exp	sub	code	rev	comp	runtime	trialtime	stdt	nstim	refreshdur	cuedur	gapdur	gapOnsetRange	durPostProbe	gapOnsetTime	blocktype	prac	trial	ntargets	soa	probeTarget	resp	acc	rt	pts	tpts	meanFrameDur	minFrameDur	maxFrameDur
DTProbeTrack03	18	ProbeTrackDT	1.1	SCS215a	20110128.104306	20110128.104318	single-task	8	0.013328	60	0	60-180	60	83	NoGap	1	1	2	9	1	target	1	1480	260	260	13.328	12.864	13.790
DTProbeTrack03	18	ProbeTrackDT	1.1	SCS215a	20110128.104306	20110128.104324	single-task	8	0.013328	60	0	60-180	60	146	NoGap	1	2	2	45	0	distractor	1	1200	400	660	13.328	12.989	13.674
DTProbeTrack03	18	ProbeTrackDT	1.1	SCS215a	20110128.104306	20110128.104331	single-task	8	0.013328	60	0	60-180	60	66	NoGap	1	3	2	45	0	distractor	1	787	607	1267	13.328	12.993	13.635
DTProbeTrack03	18	ProbeTrackDT	1.1	SCS215a	20110128.104306	20110128.104337	single-task	8	0.013328	60	0	60-180	60	106	NoGap	1	4	2	1	1	target	1	933	534	1801	13.327	12.906	13.736
DTProbeTrack03	18	ProbeTrackDT	1.1	SCS215a	20110128.104306	20110128.104342	single-task	8	0.013328	60	0	60-180	60	148	NoGap	1	5	2	45	0	distractor	1	893	554	2355	13.328	12.834	13.816
DTProbeTrack03	18	ProbeTrackDT	1.1	SCS215a	20110128.104306	20110128.104349	single-task	8	0.013328	60	0	60-180	60	64	NoGap	1	6	2	3	1	target	1	893	554	2909	13.328	12.931	13.728
DTProbeTrack03	18	ProbeTrackDT	1.1	SCS215a	20110128.104306	20110128.104354	single-task	8	0.013328	60	0	60-180	60	104	NoGap	1	7	2	9	1	target	1	920	540	3449	13.328	12.986	13.674
DTProbeTrack03	18	ProbeTrackDT	1.1	SCS215a	20110128.104306	20110128.104400	single-task	8	0.013328	60	0	60-180	60	84	NoGap	1	8	2	45	1	target	1	853	574	4023	13.328	13.072	13.644
DTProbeTrack03	18	ProbeTrackDT	1.1	SCS215a	20110128.104306	20110128.104405	single-task	8	0.013328	60	0	60-180	60	141	NoGap	1	9	2	3	1	target	1	907	547	4570	13.328	12.983	13.671
DTProbeTrack03	18	ProbeTrackDT	1.1	SCS215a	20110128.104306	20110128.104412	single-task	8	0.013328	60	0	60-180	60	155	NoGap	1	10	2	1	1	target	1	680	660	5230	13.328	13.008	13.638
DTProbeTrack03	18	ProbeTrackDT	1.1	SCS215a	20110128.104306	20110128.104418	single-task	8	0.013328	60	0	60-180	60	124	NoGap	1	11	2	6	0	distractor	1	880	560	5790	13.378	12.864	26.801
DTProbeTrack03	18	ProbeTrackDT	1.1	SCS215a	20110128.104306	20110128.104423	single-task	8	0.013328	60	0	60-180	60	68	NoGap	1	12	2	9	1	target	1	960	520	6310	13.328	13.307	13.348
DTProbeTrack03	18	ProbeTrackDT	1.1	SCS215a	20110128.104306	20110128.104429	single-task	8	0.013328	60	0	60-180	60	135	NoGap	1	13	2	3	0	distractor	1	947	527	6837	13.328	12.973	13.685
DTProbeTrack03	18	ProbeTrackDT	1.1	SCS215a	20110128.104306	20110128.104435	single-task	8	0.013328	60	0	60-180	60	149	NoGap	1	14	2	9	0	distractor	1	1040	480	7317	13.328	13.099	13.569
DTProbeTrack03	18	ProbeTrackDT	1.1	SCS215a	20110128.104306	20110128.104441	single-task	8	0.013328	60	0	60-180	60	95	NoGap	1	15	2	45	0	distractor	1	867	567	7884	13.328	12.859	13.778
DTProbeTrack03	18	ProbeTrackDT	1.1	SCS215a	20110128.104306	20110128.104447	single-task	8	0.013328	60	0	60-180	60	68	NoGap	1	16	2	3	1	target	1	627	687	8571	13.328	12.928	13.737
DTProbeTrack03	18	ProbeTrackDT	1.1	SCS215a	20110128.104306	20110128.104452	single-task	8	0.013328	60	0	60-180	60	88	NoGap	1	17	2	6	0	distractor	1	867	567	9138	13.328	13.309	13.345
DTProbeTrack03	18	ProbeTrackDT	1.1	SCS215a	20110128.104306	20110128.104457	single-task	8	0.013328	60	0	60-180	60	175	NoGap	1	18	2	1	0	target	0	800	-1000	8138	13.328	12.844	13.808
DTProbeTrack03	18	ProbeTrackDT	1.1	SCS215a	20110128.104306	20110128.104504	single-task	8	0.013328	60	0	60-180	60	174	NoGap	1	19	2	6	1	target	1	960	520	8658	13.328	13.017	13.628
DTProbeTrack03	18	ProbeTrackDT	1.1	SCS215a	20110128.104306	20110128.104510	single-task	8	0.013328	60	0	60-180	60	125	NoGap	1	20	2	3	1	target	1	867	567	9225	13.328	12.866	13.796
DTProbeTrack03	18	ProbeTrackDT	1.1	SCS215a	20110128.104306	20110128.104516	single-task	8	0.013328	60	0	60-180	60	104	NoGap	1	21	2	3	0	distractor	1	947	527	9752	13.328	12.945	13.717
DTProbeTrack03	18	ProbeTrackDT	1.1	SCS215a	20110128.104306	20110128.104522	single-task	8	0.013328	60	0	60-180	60	112	NoGap	1	22	2	6	1	target	1	773	614	10366	13.328	12.908	13.743
DTProbeTrack03	18	ProbeTrackDT	1.1	SCS215a	20110128.104306	20110128.104527	single-task	8	0.013328	60	0	60-180	60	128	NoGap	1	23	2	3	0	distractor	1	760	620	10986	13.328	13.116	13.544
DTProbeTrack03	18	ProbeTrackDT	1.1	SCS215a	20110128.104306	20110128.104533	single-task	8	0.013328	60	0	60-180	60	145	NoGap	1	24	2	6	1	target	1	614	693	11679	13.328	13.307	13.348
DTProbeTrack03	18	ProbeTrackDT	1.1	SCS215a	20110128.104306	20110128.104539	single-task	8	0.013328	60	0	60-180	60	116	NoGap	1	25	2	9	0	distractor	1	1080	460	12139	13.328	13.106	13.551
DTProbeTrack03	18	ProbeTrackDT	1.1	SCS215a	20110128.104306	20110128.104545	single-task	8	0.013328	60	0	60-180	60	154	NoGap	1	26	2	1	0	distractor	1	867	567	12706	13.328	12.893	13.757
DTProbeTrack03	18	ProbeTrackDT	1.1	SCS215a	20110128.104306	20110128.104551	single-task	8	0.013328	60	0	60-180	60	162	NoGap	1	27	2	6	0	distractor	1	1027	487	13193	13.328	13.299	13.352
DTProbeTrack03	18	ProbeTrackDT	1.1	SCS215a	20110128.104306	20110128.104558	single-task	8	0.013328	60	0	60-180	60	159	NoGap	1	28	2	45	1	target	1	907	547	13740	13.328	13.112	13.549
DTProbeTrack03	18	ProbeTrackDT	1.1	SCS215a	20110128.104306	20110128.104604	single-task	8	0.013328	60	0	60-180	60	157	NoGap	1	29	2	9	0	distractor	1	1013	494	14234	13.328	12.929	13.741
DTProbeTrack03	18	ProbeTrackDT	1.1	SCS215a	20110128.104306	20110128.104611	single-task	8	0.013328	60	0	60-180	60	150	NoGap	1	30	2	1	0	distractor	1	800	600	14834	13.328	13.104	13.539
DTProbeTrack03	18	ProbeTrackDT	1.1	SCS215a	20110128.104306	20110128.104617	single-task	8	0.013328	60	0	60-180	60	113	NoGap	1	31	2	45	1	target	1	720	640	15474	13.328	12.883	13.764
DTProbeTrack03	18	ProbeTrackDT	1.1	SCS215a	20110128.104306	20110128.104623	single-task	8	0.013328	60	0	60-180	60	73	NoGap	1	32	2	1	1	target	1	787	607	16081	13.328	12.950	13.699
DTProbeTrack03	18	ProbeTrackDT	1.1	SCS215a	20110128.104306	20110128.104628	single-task	8	0.013328	60	0	60-180	60	87	NoGap	1	33	2	9	1	target	1	827	587	16668	13.328	12.991	13.672
DTProbeTrack03	18	ProbeTrackDT	1.1	SCS215a	20110128.104306	20110128.104633	single-task	8	0.013328	60	0	60-180	60	74	NoGap	1	34	2	6	0	distractor	1	640	680	17348	13.328	13.105	13.548
DTProbeTrack03	18	ProbeTrackDT	1.1	SCS215a	20110128.104306	20110128.104638	single-task	8	0.013328	60	0	60-180	60	165	NoGap	1	35	2	9	0	distractor	1	787	607	17955	13.328	12.854	13.812
DTProbeTrack03	18	ProbeTrackDT	1.1	SCS215a	20110128.104306	20110128.104645	single-task	8	0.013328	60	0	60-180	60	103	NoGap	1	36	2	1	1	target	1	933	534	18489	13.328	13.029	13.613
DTProbeTrack03	18	ProbeTrackDT	1.1	SCS215a	20110128.104306	20110128.104650	single-task	8	0.013328	60	0	60-180	60	133	NoGap	1	37	2	3	0	distractor	1	813	594	19083	13.328	12.889	13.763
DTProbeTrack03	18	ProbeTrackDT	1.1	SCS215a	20110128.104306	20110128.104656	single-task	8	0.013328	60	0	60-180	60	70	NoGap	1	38	2	6	1	target	1	653	674	19757	13.328	13.308	13.348
DTProbeTrack03	18	ProbeTrackDT	1.1	SCS215a	20110128.104306	20110128.104701	single-task	8	0.013328	60	0	60-180	60	88	NoGap	1	39	2	1	0	distractor	1	840	580	20337	13.328	13.304	13.353
DTProbeTrack03	18	ProbeTrackDT	1.1	SCS215a	20110128.104306	20110128.104706	single-task	8	0.013328	60	0	60-180	60	153	NoGap	1	40	2	45	1	target	1	773	614	20951	13.328	13.112	13.556
DTProbeTrack03	18	ProbeTrackDT	1.1	SCS215a	20110128.105105	20110128.105112	dt-generate	8	0.013327	60	10	60-180	60	89	GapPrac	1	1	2	9	1	target	1	467	767	21718	13.328	13.093	13.549
DTProbeTrack03	18	ProbeTrackDT	1.1	SCS215a	20110128.105105	20110128.105117	dt-generate	8	0.013327	60	10	60-180	60	80	GapPrac	1	2	2	3	1	target	1	827	587	22305	13.328	13.238	13.412
DTProbeTrack03	18	ProbeTrackDT	1.1	SCS215a	20110128.105105	20110128.105122	dt-generate	8	0.013327	60	10	60-180	60	150	GapPrac	1	3	2	1	0	target	0	867	-1000	21305	13.328	12.942	13.729
DTProbeTrack03	18	ProbeTrackDT	1.1	SCS215a	20110128.105105	20110128.105128	dt-generate	8	0.013327	60	10	60-180	60	144	GapPrac	1	4	2	45	1	target	1	840	580	21885	13.328	12.897	13.767
DTProbeTrack03	18	ProbeTrackDT	1.1	SCS215a	20110128.105105	20110128.105135	dt-generate	8	0.013327	60	10	60-180	60	126	GapPrac	1	5	2	45	0	distractor	1	1067	467	22352	13.328	12.871	13.792
DTProbeTrack03	18	ProbeTrackDT	1.1	SCS215a	20110128.105105	20110128.105142	dt-generate	8	0.013327	60	10	60-180	60	168	GapPrac	1	6	2	6	1	target	1	680	660	23012	13.328	12.901	13.770
DTProbeTrack03	18	ProbeTrackDT	1.1	SCS215a	20110128.105105	20110128.105148	dt-generate	8	0.013327	60	10	60-180	60	157	GapPrac	1	7	2	1	1	target	1	880	560	23572	13.328	12.883	13.787
DTProbeTrack03	18	ProbeTrackDT	1.1	SCS215a	20110128.105105	20110128.105155	dt-generate	8	0.013327	60	10	60-180	60	151	GapPrac	1	8	2	45	0	distractor	1	813	594	24166	13.328	12.962	13.686
DTProbeTrack03	18	ProbeTrackDT	1.1	SCS215a	20110128.105105	20110128.105202	dt-generate	8	0.013327	60	10	60-180	60	122	GapPrac	1	9	2	6	1	target	1	1720	140	24306	13.328	13.005	13.638
DTProbeTrack03	18	ProbeTrackDT	1.1	SCS215a	20110128.105105	20110128.105208	dt-generate	8	0.013327	60	10	60-180	60	118	GapPrac	1	10	2	6	0	distractor	1	720	640	24946	13.328	13.051	13.611
DTProbeTrack03	18	ProbeTrackDT	1.1	SCS215a	20110128.105105	20110128.105214	dt-generate	8	0.013327	60	10	60-180	60	123	GapPrac	1	11	2	9	0	target	0	907	-1000	23946	13.328	13.299	13.352
DTProbeTrack03	18	ProbeTrackDT	1.1	SCS215a	20110128.105105	20110128.105220	dt-generate	8	0.013327	60	10	60-180	60	98	GapPrac	1	12	2	45	1	target	1	840	580	24526	13.328	12.859	13.785
DTProbeTrack03	18	ProbeTrackDT	1.1	SCS215a	20110128.105105	20110128.105226	dt-generate	8	0.013327	60	10	60-180	60	90	GapPrac	1	13	2	9	1	target	1	893	554	25080	13.328	12.895	13.772
DTProbeTrack03	18	ProbeTrackDT	1.1	SCS215a	20110128.105105	20110128.105232	dt-generate	8	0.013327	60	10	60-180	60	158	GapPrac	1	14	2	6	0	distractor	1	1373	314	25394	13.328	13.255	13.405
DTProbeTrack03	18	ProbeTrackDT	1.1	SCS215a	20110128.105105	20110128.105239	dt-generate	8	0.013327	60	10	60-180	60	93	GapPrac	1	15	2	1	1	distractor	0	1240	-1000	24394	13.328	12.961	13.698
DTProbeTrack03	18	ProbeTrackDT	1.1	SCS215a	20110128.105105	20110128.105245	dt-generate	8	0.013327	60	10	60-180	60	177	GapPrac	1	16	2	3	1	target	1	680	660	25054	13.328	12.884	13.774
DTProbeTrack03	18	ProbeTrackDT	1.1	SCS215a	20110128.105105	20110128.105251	dt-generate	8	0.013327	60	10	60-180	60	173	GapPrac	1	17	2	1	0	distractor	1	1000	500	25554	13.328	13.094	13.561
DTProbeTrack03	18	ProbeTrackDT	1.1	SCS215a	20110128.105105	20110128.105258	dt-generate	8	0.013327	60	10	60-180	60	130	GapPrac	1	18	2	3	0	target	0	1546	-1000	24554	13.328	13.091	13.566
DTProbeTrack03	18	ProbeTrackDT	1.1	SCS215a	20110128.105105	20110128.105305	dt-generate	8	0.013327	60	10	60-180	60	178	GapPrac	1	19	2	9	0	target	0	1333	-1000	23554	13.328	12.987	13.668
DTProbeTrack03	18	ProbeTrackDT	1.1	SCS215a	20110128.105105	20110128.105312	dt-generate	8	0.013327	60	10	60-180	60	104	GapPrac	1	20	2	3	0	distractor	1	653	674	24228	13.328	13.085	13.558
DTProbeTrack03	18	ProbeTrackDT	1.1	SCS215a	20110128.105425	20110128.105429	dt-generate	8	0.013328	60	10	60-180	60	88	GapExp	1	1	2	45	0	distractor	1	800	600	24828	13.328	13.100	13.558
DTProbeTrack03	18	ProbeTrackDT	1.1	SCS215a	20110128.105425	20110128.105435	dt-generate	8	0.013328	60	10	60-180	60	122	GapExp	1	2	2	1	0	distractor	1	853	574	25402	13.328	12.914	13.752
DTProbeTrack03	18	ProbeTrackDT	1.1	SCS215a	20110128.105425	20110128.105441	dt-generate	8	0.013328	60	10	60-180	60	107	GapExp	1	3	2	3	0	distractor	1	707	647	26049	13.328	12.924	13.743
DTProbeTrack03	18	ProbeTrackDT	1.1	SCS215a	20110128.105425	20110128.105446	dt-generate	8	0.013328	60	10	60-180	60	123	GapExp	1	4	2	9	1	target	1	680	660	26709	13.328	12.876	13.770
DTProbeTrack03	18	ProbeTrackDT	1.1	SCS215a	20110128.105425	20110128.105452	dt-generate	8	0.013328	60	10	60-180	60	62	GapExp	1	5	2	3	1	target	1	733	634	27343	13.328	12.894	13.766
DTProbeTrack03	18	ProbeTrackDT	1.1	SCS215a	20110128.105425	20110128.105457	dt-generate	8	0.013328	60	10	60-180	60	119	GapExp	0	6	2	3	1	target	1	640	680	28023	13.328	12.940	13.702
DTProbeTrack03	18	ProbeTrackDT	1.1	SCS215a	20110128.105425	20110128.105503	dt-generate	8	0.013328	60	10	60-180	60	75	GapExp	0	7	2	6	1	target	1	720	640	28663	13.328	12.841	13.809
DTProbeTrack03	18	ProbeTrackDT	1.1	SCS215a	20110128.105425	20110128.105508	dt-generate	8	0.013328	60	10	60-180	60	103	GapExp	0	8	2	3	0	distractor	1	800	600	29263	13.328	12.931	13.739
DTProbeTrack03	18	ProbeTrackDT	1.1	SCS215a	20110128.105425	20110128.105514	dt-generate	8	0.013328	60	10	60-180	60	175	GapExp	0	9	2	45	0	distractor	1	787	607	29870	13.328	13.087	13.572
DTProbeTrack03	18	ProbeTrackDT	1.1	SCS215a	20110128.105425	20110128.105521	dt-generate	8	0.013328	60	10	60-180	60	110	GapExp	0	10	2	6	1	distractor	0	693	-1000	28870	13.328	13.308	13.353
DTProbeTrack03	18	ProbeTrackDT	1.1	SCS215a	20110128.105425	20110128.105526	dt-generate	8	0.013328	60	10	60-180	60	101	GapExp	0	11	2	3	0	target	0	773	-1000	27870	13.328	13.084	13.565
DTProbeTrack03	18	ProbeTrackDT	1.1	SCS215a	20110128.105425	20110128.105532	dt-generate	8	0.013328	60	10	60-180	60	132	GapExp	0	12	2	3	0	distractor	1	800	600	28470	13.328	12.864	13.765
DTProbeTrack03	18	ProbeTrackDT	1.1	SCS215a	20110128.105425	20110128.105538	dt-generate	8	0.013328	60	10	60-180	60	173	GapExp	0	13	2	6	1	target	1	800	600	29070	13.328	13.118	13.544
DTProbeTrack03	18	ProbeTrackDT	1.1	SCS215a	20110128.105425	20110128.105544	dt-generate	8	0.013328	60	10	60-180	60	106	GapExp	0	14	2	3	0	distractor	1	880	560	29630	13.328	12.878	13.774
DTProbeTrack03	18	ProbeTrackDT	1.1	SCS215a	20110128.105425	20110128.105550	dt-generate	8	0.013328	60	10	60-180	60	147	GapExp	0	15	2	1	0	distractor	1	867	567	30197	13.328	12.883	13.772
DTProbeTrack03	18	ProbeTrackDT	1.1	SCS215a	20110128.105425	20110128.105556	dt-generate	8	0.013328	60	10	60-180	60	148	GapExp	0	16	2	9	1	target	1	693	654	30851	13.328	13.020	13.636
DTProbeTrack03	18	ProbeTrackDT	1.1	SCS215a	20110128.105425	20110128.105603	dt-generate	8	0.013328	60	10	60-180	60	73	GapExp	0	17	2	1	1	target	1	973	514	31365	13.328	13.070	13.612
DTProbeTrack03	18	ProbeTrackDT	1.1	SCS215a	20110128.105425	20110128.105608	dt-generate	8	0.013328	60	10	60-180	60	74	GapExp	0	18	2	6	0	distractor	1	867	567	31932	13.328	13.087	13.564
DTProbeTrack03	18	ProbeTrackDT	1.1	SCS215a	20110128.105425	20110128.105613	dt-generate	8	0.013328	60	10	60-180	60	136	GapExp	0	19	2	9	1	target	1	787	607	32539	13.328	13.094	13.555
DTProbeTrack03	18	ProbeTrackDT	1.1	SCS215a	20110128.105425	20110128.105619	dt-generate	8	0.013328	60	10	60-180	60	160	GapExp	0	20	2	3	1	target	1	747	627	33166	13.328	13.037	13.616
DTProbeTrack03	18	ProbeTrackDT	1.1	SCS215a	20110128.105425	20110128.105626	dt-generate	8	0.013328	60	10	60-180	60	150	GapExp	0	21	2	45	0	distractor	1	827	587	33753	13.328	12.922	13.722
DTProbeTrack03	18	ProbeTrackDT	1.1	SCS215a	20110128.105425	20110128.105632	dt-generate	8	0.013328	60	10	60-180	60	79	GapExp	0	22	2	6	0	distractor	1	1027	487	34240	13.328	12.944	13.711
DTProbeTrack03	18	ProbeTrackDT	1.1	SCS215a	20110128.105425	20110128.105638	dt-generate	8	0.013328	60	10	60-180	60	79	GapExp	0	23	2	6	0	target	0	494	-1000	33240	13.328	13.306	13.346
DTProbeTrack03	18	ProbeTrackDT	1.1	SCS215a	20110128.105425	20110128.105643	dt-generate	8	0.013328	60	10	60-180	60	68	GapExp	0	24	2	6	1	distractor	0	1586	-1000	32240	13.328	13.099	13.558
DTProbeTrack03	18	ProbeTrackDT	1.1	SCS215a	20110128.105425	20110128.105649	dt-generate	8	0.013328	60	10	60-180	60	147	GapExp	0	25	2	45	0	target	0	973	-1000	31240	13.328	13.014	13.639
DTProbeTrack03	18	ProbeTrackDT	1.1	SCS215a	20110128.105425	20110128.105656	dt-generate	8	0.013328	60	10	60-180	60	90	GapExp	0	26	2	1	1	target	1	760	620	31860	13.328	12.897	13.753
DTProbeTrack03	18	ProbeTrackDT	1.1	SCS215a	20110128.105425	20110128.105701	dt-generate	8	0.013328	60	10	60-180	60	115	GapExp	0	27	2	3	1	target	1	813	594	32454	13.328	12.935	13.738
DTProbeTrack03	18	ProbeTrackDT	1.1	SCS215a	20110128.105425	20110128.105707	dt-generate	8	0.013328	60	10	60-180	60	146	GapExp	0	28	2	9	0	distractor	1	627	687	33141	13.328	13.011	13.644
DTProbeTrack03	18	ProbeTrackDT	1.1	SCS215a	20110128.105425	20110128.105713	dt-generate	8	0.013328	60	10	60-180	60	127	GapExp	0	29	2	3	0	target	0	947	-1000	32141	13.328	12.934	13.720
DTProbeTrack03	18	ProbeTrackDT	1.1	SCS215a	20110128.105425	20110128.105719	dt-generate	8	0.013328	60	10	60-180	60	115	GapExp	0	30	2	9	0	target	0	840	-1000	31141	13.328	12.870	13.786
DTProbeTrack03	18	ProbeTrackDT	1.1	SCS215a	20110128.105425	20110128.105725	dt-generate	8	0.013328	60	10	60-180	60	115	GapExp	0	31	2	6	0	distractor	1	920	540	31681	13.328	13.112	13.544
DTProbeTrack03	18	ProbeTrackDT	1.1	SCS215a	20110128.105425	20110128.105731	dt-generate	8	0.013328	60	10	60-180	60	97	GapExp	0	32	2	6	1	target	1	640	680	32361	13.328	12.916	13.740
DTProbeTrack03	18	ProbeTrackDT	1.1	SCS215a	20110128.105425	20110128.105736	dt-generate	8	0.013328	60	10	60-180	60	114	GapExp	0	33	2	6	0	distractor	1	787	607	32968	13.328	12.876	13.786
DTProbeTrack03	18	ProbeTrackDT	1.1	SCS215a	20110128.105425	20110128.105742	dt-generate	8	0.013328	60	10	60-180	60	121	GapExp	0	34	2	1	1	target	1	880	560	33528	13.328	12.863	13.774
DTProbeTrack03	18	ProbeTrackDT	1.1	SCS215a	20110128.105425	20110128.105748	dt-generate	8	0.013328	60	10	60-180	60	126	GapExp	0	35	2	45	0	distractor	1	734	633	34161	13.328	12.908	13.741
DTProbeTrack03	18	ProbeTrackDT	1.1	SCS215a	20110128.105425	20110128.105754	dt-generate	8	0.013328	60	10	60-180	60	118	GapExp	0	36	2	9	1	target	1	827	587	34748	13.328	13.156	13.635
DTProbeTrack03	18	ProbeTrackDT	1.1	SCS215a	20110128.105425	20110128.105800	dt-generate	8	0.013328	60	10	60-180	60	163	GapExp	0	37	2	6	1	target	1	734	633	35381	13.328	13.094	13.553
DTProbeTrack03	18	ProbeTrackDT	1.1	SCS215a	20110128.105425	20110128.105807	dt-generate	8	0.013328	60	10	60-180	60	140	GapExp	0	38	2	45	0	distractor	1	987	507	35888	13.328	13.302	13.345
DTProbeTrack03	18	ProbeTrackDT	1.1	SCS215a	20110128.105425	20110128.105814	dt-generate	8	0.013328	60	10	60-180	60	111	GapExp	0	39	2	1	0	target	0	1040	-1000	34888	13.328	13.091	13.553
DTProbeTrack03	18	ProbeTrackDT	1.1	SCS215a	20110128.105425	20110128.105819	dt-generate	8	0.013328	60	10	60-180	60	137	GapExp	0	40	2	45	0	distractor	1	640	680	35568	13.328	12.972	13.715
DTProbeTrack03	18	ProbeTrackDT	1.1	SCS215a	20110128.105425	20110128.105826	dt-generate	8	0.013328	60	10	60-180	60	174	GapExp	0	41	2	45	0	distractor	1	893	554	36122	13.328	12.871	13.792
DTProbeTrack03	18	ProbeTrackDT	1.1	SCS215a	20110128.105425	20110128.105833	dt-generate	8	0.013328	60	10	60-180	60	172	GapExp	0	42	2	9	0	distractor	1	734	633	36755	13.328	13.089	13.549
DTProbeTrack03	18	ProbeTrackDT	1.1	SCS215a	20110128.105425	20110128.105840	dt-generate	8	0.013328	60	10	60-180	60	79	GapExp	0	43	2	9	1	target	1	653	674	37429	13.328	12.922	13.735
DTProbeTrack03	18	ProbeTrackDT	1.1	SCS215a	20110128.105425	20110128.105845	dt-generate	8	0.013328	60	10	60-180	60	62	GapExp	0	44	2	1	0	target	0	2359	-1000	36429	13.328	12.837	13.828
DTProbeTrack03	18	ProbeTrackDT	1.1	SCS215a	20110128.105425	20110128.105852	dt-generate	8	0.013328	60	10	60-180	60	125	GapExp	0	45	2	6	0	distractor	1	667	667	37096	13.328	13.263	13.384
DTProbeTrack03	18	ProbeTrackDT	1.1	SCS215a	20110128.105425	20110128.105857	dt-generate	8	0.013328	60	10	60-180	60	86	GapExp	0	46	2	45	0	target	0	680	-1000	36096	13.328	13.213	13.413
DTProbeTrack03	18	ProbeTrackDT	1.1	SCS215a	20110128.105425	20110128.105903	dt-generate	8	0.013328	60	10	60-180	60	69	GapExp	0	47	2	9	0	target	0	1466	-1000	35096	13.328	12.919	13.738
DTProbeTrack03	18	ProbeTrackDT	1.1	SCS215a	20110128.105425	20110128.105909	dt-generate	8	0.013328	60	10	60-180	60	95	GapExp	0	48	2	9	0	distractor	1	1120	440	35536	13.328	13.095	13.571
DTProbeTrack03	18	ProbeTrackDT	1.1	SCS215a	20110128.105425	20110128.105915	dt-generate	8	0.013328	60	10	60-180	60	104	GapExp	0	49	2	3	1	target	1	1706	147	35683	13.328	12.947	13.720
DTProbeTrack03	18	ProbeTrackDT	1.1	SCS215a	20110128.105425	20110128.105921	dt-generate	8	0.013328	60	10	60-180	60	159	GapExp	0	50	2	1	1	target	1	1200	400	36083	13.328	12.952	13.698
DTProbeTrack03	18	ProbeTrackDT	1.1	SCS215a	20110128.105425	20110128.110019	dt-generate	8	0.013328	60	10	60-180	60	67	GapExp	0	51	2	9	0	distractor	1	667	667	36750	13.328	13.299	13.357
DTProbeTrack03	18	ProbeTrackDT	1.1	SCS215a	20110128.105425	20110128.110024	dt-generate	8	0.013328	60	10	60-180	60	163	GapExp	0	52	2	6	1	distractor	0	1053	-1000	35750	13.370	12.846	26.709
DTProbeTrack03	18	ProbeTrackDT	1.1	SCS215a	20110128.105425	20110128.110031	dt-generate	8	0.013328	60	10	60-180	60	85	GapExp	0	53	2	3	0	distractor	1	840	580	36330	13.328	13.020	13.636
DTProbeTrack03	18	ProbeTrackDT	1.1	SCS215a	20110128.105425	20110128.110036	dt-generate	8	0.013328	60	10	60-180	60	83	GapExp	0	54	2	1	1	target	1	733	634	36964	13.328	13.306	13.347
DTProbeTrack03	18	ProbeTrackDT	1.1	SCS215a	20110128.105425	20110128.110041	dt-generate	8	0.013328	60	10	60-180	60	132	GapExp	0	55	2	9	0	distractor	1	813	594	37558	13.328	12.931	13.726
DTProbeTrack03	18	ProbeTrackDT	1.1	SCS215a	20110128.105425	20110128.110047	dt-generate	8	0.013328	60	10	60-180	60	112	GapExp	0	56	2	3	1	target	1	827	587	38145	13.328	12.962	13.685
DTProbeTrack03	18	ProbeTrackDT	1.1	SCS215a	20110128.105425	20110128.110053	dt-generate	8	0.013328	60	10	60-180	60	130	GapExp	0	57	2	9	0	distractor	1	933	534	38679	13.327	12.836	13.821
DTProbeTrack03	18	ProbeTrackDT	1.1	SCS215a	20110128.105425	20110128.110059	dt-generate	8	0.013328	60	10	60-180	60	67	GapExp	0	58	2	6	0	distractor	1	1013	494	39173	13.328	13.309	13.349
DTProbeTrack03	18	ProbeTrackDT	1.1	SCS215a	20110128.105425	20110128.110105	dt-generate	8	0.013328	60	10	60-180	60	149	GapExp	0	59	2	45	1	target	1	800	600	39773	13.328	13.065	13.600
DTProbeTrack03	18	ProbeTrackDT	1.1	SCS215a	20110128.105425	20110128.110111	dt-generate	8	0.013328	60	10	60-180	60	107	GapExp	0	60	2	3	1	target	1	1746	127	39900	13.328	13.305	13.347
DTProbeTrack03	18	ProbeTrackDT	1.1	SCS215a	20110128.105425	20110128.110118	dt-generate	8	0.013328	60	10	60-180	60	164	GapExp	0	61	2	3	1	target	1	1546	227	40127	13.328	12.963	13.705
DTProbeTrack03	18	ProbeTrackDT	1.1	SCS215a	20110128.105425	20110128.110125	dt-generate	8	0.013328	60	10	60-180	60	162	GapExp	0	62	2	45	0	distractor	1	360	820	40947	13.328	13.306	13.348
DTProbeTrack03	18	ProbeTrackDT	1.1	SCS215a	20110128.105425	20110128.110132	dt-generate	8	0.013328	60	10	60-180	60	95	GapExp	0	63	2	45	0	distractor	1	720	640	41587	13.328	12.923	13.719
DTProbeTrack03	18	ProbeTrackDT	1.1	SCS215a	20110128.105425	20110128.110138	dt-generate	8	0.013328	60	10	60-180	60	68	GapExp	0	64	2	6	0	target	0	773	-1000	40587	13.328	13.063	13.584
DTProbeTrack03	18	ProbeTrackDT	1.1	SCS215a	20110128.105425	20110128.110143	dt-generate	8	0.013328	60	10	60-180	60	164	GapExp	0	65	2	3	0	distractor	1	733	634	41221	13.328	12.868	13.782
DTProbeTrack03	18	ProbeTrackDT	1.1	SCS215a	20110128.105425	20110128.110149	dt-generate	8	0.013328	60	10	60-180	60	61	GapExp	0	66	2	9	1	target	1	1080	460	41681	13.328	12.953	13.689
DTProbeTrack03	18	ProbeTrackDT	1.1	SCS215a	20110128.105425	20110128.110155	dt-generate	8	0.013328	60	10	60-180	60	105	GapExp	0	67	2	1	0	distractor	1	1146	427	42108	13.328	12.850	13.804
DTProbeTrack03	18	ProbeTrackDT	1.1	SCS215a	20110128.105425	20110128.110200	dt-generate	8	0.013328	60	10	60-180	60	61	GapExp	0	68	2	3	1	target	1	707	647	42755	13.328	13.246	13.411
DTProbeTrack03	18	ProbeTrackDT	1.1	SCS215a	20110128.105425	20110128.110205	dt-generate	8	0.013328	60	10	60-180	60	132	GapExp	0	69	2	3	1	target	1	747	627	43382	13.328	12.957	13.696
DTProbeTrack03	18	ProbeTrackDT	1.1	SCS215a	20110128.105425	20110128.110211	dt-generate	8	0.013328	60	10	60-180	60	120	GapExp	0	70	2	1	0	distractor	1	640	680	44062	13.328	12.902	13.746
DTProbeTrack03	18	ProbeTrackDT	1.1	SCS215a	20110128.105425	20110128.110217	dt-generate	8	0.013328	60	10	60-180	60	127	GapExp	0	71	2	1	0	target	0	733	-1000	43062	13.328	12.889	13.763
DTProbeTrack03	18	ProbeTrackDT	1.1	SCS215a	20110128.105425	20110128.110223	dt-generate	8	0.013328	60	10	60-180	60	101	GapExp	0	72	2	9	0	distractor	1	813	594	43656	13.328	12.966	13.690
DTProbeTrack03	18	ProbeTrackDT	1.1	SCS215a	20110128.105425	20110128.110228	dt-generate	8	0.013328	60	10	60-180	60	66	GapExp	0	73	2	9	1	13	-3	893	-1000	42656	13.328	13.309	13.349
DTProbeTrack03	18	ProbeTrackDT	1.1	SCS215a	20110128.105425	20110128.110234	dt-generate	8	0.013328	60	10	60-180	60	133	GapExp	0	74	2	6	0	distractor	1	1107	447	43103	13.328	13.074	13.571
DTProbeTrack03	18	ProbeTrackDT	1.1	SCS215a	20110128.105425	20110128.110240	dt-generate	8	0.013328	60	10	60-180	60	72	GapExp	0	75	2	45	0	distractor	1	880	560	43663	13.328	13.055	13.609
DTProbeTrack03	18	ProbeTrackDT	1.1	SCS215a	20110128.105425	20110128.110246	dt-generate	8	0.013328	60	10	60-180	60	135	GapExp	0	76	2	45	0	target	0	1613	-1000	42663	13.328	13.107	13.552
DTProbeTrack03	18	ProbeTrackDT	1.1	SCS215a	20110128.105425	20110128.110253	dt-generate	8	0.013328	60	10	60-180	60	177	GapExp	0	77	2	45	0	target	0	867	-1000	41663	13.328	13.091	13.577
DTProbeTrack03	18	ProbeTrackDT	1.1	SCS215a	20110128.105425	20110128.110301	dt-generate	8	0.013328	60	10	60-180	60	85	GapExp	0	78	2	45	1	target	1	933	534	42197	13.328	13.120	13.542
DTProbeTrack03	18	ProbeTrackDT	1.1	SCS215a	20110128.105425	20110128.110307	dt-generate	8	0.013328	60	10	60-180	60	176	GapExp	0	79	2	9	1	target	1	574	713	42910	13.328	12.899	13.761
DTProbeTrack03	18	ProbeTrackDT	1.1	SCS215a	20110128.105425	20110128.110313	dt-generate	8	0.013328	60	10	60-180	60	140	GapExp	0	80	2	45	1	target	1	534	733	43643	13.328	13.110	13.555
DTProbeTrack03	18	ProbeTrackDT	1.1	SCS215a	20110128.105425	20110128.110319	dt-generate	8	0.013328	60	10	60-180	60	171	GapExp	0	81	2	6	1	target	1	720	640	44283	13.328	12.949	13.716
DTProbeTrack03	18	ProbeTrackDT	1.1	SCS215a	20110128.105425	20110128.110326	dt-generate	8	0.013328	60	10	60-180	60	153	GapExp	0	82	2	1	1	target	1	627	687	44970	13.328	12.921	13.741
DTProbeTrack03	18	ProbeTrackDT	1.1	SCS215a	20110128.105425	20110128.110332	dt-generate	8	0.013328	60	10	60-180	60	112	GapExp	0	83	2	45	0	distractor	1	1253	374	45344	13.328	13.147	13.505
DTProbeTrack03	18	ProbeTrackDT	1.1	SCS215a	20110128.105425	20110128.110339	dt-generate	8	0.013328	60	10	60-180	60	80	GapExp	0	84	2	9	0	90	-3	867	-1000	44344	13.328	13.307	13.345
DTProbeTrack03	18	ProbeTrackDT	1.1	SCS215a	20110128.105425	20110128.110344	dt-generate	8	0.013328	60	10	60-180	60	96	GapExp	0	85	2	45	0	distractor	1	840	580	44924	13.328	13.295	13.347
DTProbeTrack03	18	ProbeTrackDT	1.1	SCS215a	20110128.105425	20110128.110350	dt-generate	8	0.013328	60	10	60-180	60	148	GapExp	0	86	2	6	1	target	1	613	694	45618	13.328	13.097	13.552
DTProbeTrack03	18	ProbeTrackDT	1.1	SCS215a	20110128.105425	20110128.110356	dt-generate	8	0.013328	60	10	60-180	60	101	GapExp	0	87	2	1	1	target	1	587	707	46325	13.328	13.113	13.551
DTProbeTrack03	18	ProbeTrackDT	1.1	SCS215a	20110128.105425	20110128.110402	dt-generate	8	0.013328	60	10	60-180	60	99	GapExp	0	88	2	1	0	distractor	1	733	634	46959	13.328	13.255	13.395
DTProbeTrack03	18	ProbeTrackDT	1.1	SCS215a	20110128.105425	20110128.110407	dt-generate	8	0.013328	60	10	60-180	60	85	GapExp	0	89	2	45	1	target	1	1573	214	47173	13.328	13.078	13.589
DTProbeTrack03	18	ProbeTrackDT	1.1	SCS215a	20110128.105425	20110128.110414	dt-generate	8	0.013328	60	10	60-180	60	123	GapExp	0	90	2	9	0	distractor	1	853	574	47747	13.328	13.051	13.515
DTProbeTrack03	18	ProbeTrackDT	1.1	SCS215a	20110128.105425	20110128.110420	dt-generate	8	0.013328	60	10	60-180	60	138	GapExp	0	91	2	1	1	target	1	547	727	48474	13.377	13.291	26.707
DTProbeTrack03	18	ProbeTrackDT	1.1	SCS215a	20110128.105425	20110128.110426	dt-generate	8	0.013328	60	10	60-180	60	64	GapExp	0	92	2	45	1	target	1	587	707	49181	13.328	13.083	13.614
DTProbeTrack03	18	ProbeTrackDT	1.1	SCS215a	20110128.105425	20110128.110431	dt-generate	8	0.013328	60	10	60-180	60	63	GapExp	0	93	2	45	0	distractor	1	667	667	49848	13.328	13.083	13.549
DTProbeTrack03	18	ProbeTrackDT	1.1	SCS215a	20110128.105425	20110128.110437	dt-generate	8	0.013328	60	10	60-180	60	84	GapExp	0	94	2	6	0	distractor	1	787	607	50455	13.328	13.059	13.603
DTProbeTrack03	18	ProbeTrackDT	1.1	SCS215a	20110128.105425	20110128.110442	dt-generate	8	0.013328	60	10	60-180	60	163	GapExp	0	95	2	1	0	target	0	1067	-1000	49455	13.328	13.300	13.355
DTProbeTrack03	18	ProbeTrackDT	1.1	SCS215a	20110128.105425	20110128.110449	dt-generate	8	0.013328	60	10	60-180	60	106	GapExp	0	96	2	45	1	target	1	760	620	50075	13.328	12.914	13.735
DTProbeTrack03	18	ProbeTrackDT	1.1	SCS215a	20110128.105425	20110128.110455	dt-generate	8	0.013328	60	10	60-180	60	100	GapExp	0	97	2	6	0	distractor	1	813	594	50669	13.328	12.907	13.758
DTProbeTrack03	18	ProbeTrackDT	1.1	SCS215a	20110128.105425	20110128.110500	dt-generate	8	0.013328	60	10	60-180	60	106	GapExp	0	98	2	9	1	target	1	734	633	51302	13.328	13.100	13.549
DTProbeTrack03	18	ProbeTrackDT	1.1	SCS215a	20110128.105425	20110128.110506	dt-generate	8	0.013328	60	10	60-180	60	140	GapExp	0	99	2	3	0	distractor	1	747	627	51929	13.328	13.101	13.564
DTProbeTrack03	18	ProbeTrackDT	1.1	SCS215a	20110128.105425	20110128.110512	dt-generate	8	0.013328	60	10	60-180	60	121	GapExp	0	100	2	1	0	distractor	1	1546	227	52156	13.328	13.108	13.563
DTProbeTrack03	18	ProbeTrackDT	1.1	SCS215a	20110128.105425	20110128.110616	dt-generate	8	0.013328	60	10	60-180	60	112	GapExp	0	101	2	6	1	target	1	720	640	52796	13.328	13.092	13.556
DTProbeTrack03	18	ProbeTrackDT	1.1	SCS215a	20110128.105425	20110128.110622	dt-generate	8	0.013328	60	10	60-180	60	142	GapExp	0	102	2	9	1	target	1	560	720	53516	13.328	12.862	13.796
DTProbeTrack03	18	ProbeTrackDT	1.1	SCS215a	20110128.105425	20110128.110628	dt-generate	8	0.013328	60	10	60-180	60	112	GapExp	0	103	2	1	1	target	1	507	747	54263	13.328	13.309	13.347
DTProbeTrack03	18	ProbeTrackDT	1.1	SCS215a	20110128.105425	20110128.110633	dt-generate	8	0.013328	60	10	60-180	60	156	GapExp	0	104	2	3	0	distractor	1	1440	280	54543	13.328	13.304	13.349
DTProbeTrack03	18	ProbeTrackDT	1.1	SCS215a	20110128.105425	20110128.110640	dt-generate	8	0.013328	60	10	60-180	60	101	GapExp	0	105	2	1	1	target	1	507	747	55290	13.328	13.309	13.347
DTProbeTrack03	18	ProbeTrackDT	1.1	SCS215a	20110128.105425	20110128.110645	dt-generate	8	0.013328	60	10	60-180	60	109	GapExp	0	106	2	9	0	distractor	1	693	654	55944	13.328	13.094	13.556
DTProbeTrack03	18	ProbeTrackDT	1.1	SCS215a	20110128.105425	20110128.110651	dt-generate	8	0.013328	60	10	60-180	60	71	GapExp	0	107	2	1	0	target	0	1840	-1000	54944	13.328	13.100	13.561
DTProbeTrack03	18	ProbeTrackDT	1.1	SCS215a	20110128.105425	20110128.110657	dt-generate	8	0.013328	60	10	60-180	60	158	GapExp	0	108	2	6	0	distractor	1	627	687	55631	13.328	13.307	13.349
DTProbeTrack03	18	ProbeTrackDT	1.1	SCS215a	20110128.105425	20110128.110703	dt-generate	8	0.013328	60	10	60-180	60	68	GapExp	0	109	2	1	0	distractor	1	907	547	56178	13.328	12.863	13.807
DTProbeTrack03	18	ProbeTrackDT	1.1	SCS215a	20110128.105425	20110128.110709	dt-generate	8	0.013328	60	10	60-180	60	88	GapExp	0	110	2	9	1	target	1	587	707	56885	13.328	13.308	13.347
DTProbeTrack03	18	ProbeTrackDT	1.1	SCS215a	20110128.105425	20110128.110714	dt-generate	8	0.013328	60	10	60-180	60	61	GapExp	0	111	2	6	1	target	1	720	640	57525	13.328	13.019	13.625
DTProbeTrack03	18	ProbeTrackDT	1.1	SCS215a	20110128.105425	20110128.110719	dt-generate	8	0.013328	60	10	60-180	60	80	GapExp	0	112	2	6	1	distractor	0	907	-1000	56525	13.328	12.859	13.807
DTProbeTrack03	18	ProbeTrackDT	1.1	SCS215a	20110128.105425	20110128.110724	dt-generate	8	0.013328	60	10	60-180	60	175	GapExp	0	113	2	6	1	target	1	600	700	57225	13.328	12.916	13.747
DTProbeTrack03	18	ProbeTrackDT	1.1	SCS215a	20110128.105425	20110128.110731	dt-generate	8	0.013328	60	10	60-180	60	74	GapExp	0	114	2	1	0	distractor	1	693	654	57879	13.328	13.310	13.346
DTProbeTrack03	18	ProbeTrackDT	1.1	SCS215a	20110128.105425	20110128.110736	dt-generate	8	0.013328	60	10	60-180	60	142	GapExp	0	115	2	3	0	distractor	1	787	607	58486	13.328	13.077	13.586
DTProbeTrack03	18	ProbeTrackDT	1.1	SCS215a	20110128.105425	20110128.110742	dt-generate	8	0.013328	60	10	60-180	60	72	GapExp	0	116	2	3	0	distractor	1	853	574	59060	13.328	13.113	13.558
DTProbeTrack03	18	ProbeTrackDT	1.1	SCS215a	20110128.105425	20110128.110747	dt-generate	8	0.013328	60	10	60-180	60	152	GapExp	0	117	2	3	1	target	1	920	540	59600	13.328	12.902	13.753
DTProbeTrack03	18	ProbeTrackDT	1.1	SCS215a	20110128.105425	20110128.110754	dt-generate	8	0.013328	60	10	60-180	60	114	GapExp	0	118	2	1	0	distractor	1	893	554	60154	13.328	13.092	13.566
DTProbeTrack03	18	ProbeTrackDT	1.1	SCS215a	20110128.105425	20110128.110759	dt-generate	8	0.013328	60	10	60-180	60	68	GapExp	0	119	2	45	1	target	1	534	733	60887	13.327	13.309	13.346
DTProbeTrack03	18	ProbeTrackDT	1.1	SCS215a	20110128.105425	20110128.110805	dt-generate	8	0.013328	60	10	60-180	60	171	GapExp	0	120	2	1	0	distractor	1	773	614	61501	13.328	13.306	13.348
DTProbeTrack03	18	ProbeTrackDT	1.1	SCS215a	20110128.105425	20110128.110811	dt-generate	8	0.013328	60	10	60-180	60	165	GapExp	0	121	2	45	0	distractor	1	733	634	62135	13.328	12.856	13.797
DTProbeTrack03	18	ProbeTrackDT	1.1	SCS215a	20110128.105425	20110128.110818	dt-generate	8	0.013328	60	10	60-180	60	98	GapExp	0	122	2	6	0	distractor	1	560	720	62855	13.328	13.309	13.347
DTProbeTrack03	18	ProbeTrackDT	1.1	SCS215a	20110128.105425	20110128.110824	dt-generate	8	0.013328	60	10	60-180	60	134	GapExp	0	123	2	1	1	target	1	707	647	63502	13.328	13.097	13.566
DTProbeTrack03	18	ProbeTrackDT	1.1	SCS215a	20110128.105425	20110128.110829	dt-generate	8	0.013328	60	10	60-180	60	84	GapExp	0	124	2	45	1	target	1	653	674	64176	13.328	13.095	13.564
DTProbeTrack03	18	ProbeTrackDT	1.1	SCS215a	20110128.105425	20110128.110835	dt-generate	8	0.013328	60	10	60-180	60	116	GapExp	0	125	2	3	0	distractor	1	747	627	64803	13.328	13.065	13.602
DTProbeTrack03	18	ProbeTrackDT	1.1	SCS215a	20110128.105425	20110128.110841	dt-generate	8	0.013328	60	10	60-180	60	123	GapExp	0	126	2	9	1	target	1	800	600	65403	13.328	13.312	13.344
DTProbeTrack03	18	ProbeTrackDT	1.1	SCS215a	20110128.105425	20110128.110847	dt-generate	8	0.013328	60	10	60-180	60	68	GapExp	0	127	2	1	1	target	1	627	687	66090	13.328	13.305	13.354
DTProbeTrack03	18	ProbeTrackDT	1.1	SCS215a	20110128.105425	20110128.110852	dt-generate	8	0.013328	60	10	60-180	60	161	GapExp	0	128	2	6	1	target	1	573	714	66804	13.328	13.087	13.574
DTProbeTrack03	18	ProbeTrackDT	1.1	SCS215a	20110128.105425	20110128.110858	dt-generate	8	0.013328	60	10	60-180	60	155	GapExp	0	129	2	3	1	target	1	480	760	67564	13.328	13.120	13.550
DTProbeTrack03	18	ProbeTrackDT	1.1	SCS215a	20110128.105425	20110128.110904	dt-generate	8	0.013328	60	10	60-180	60	124	GapExp	0	130	2	45	1	target	1	627	687	68251	13.328	13.086	13.567
DTProbeTrack03	18	ProbeTrackDT	1.1	SCS215a	20110128.105425	20110128.110910	dt-generate	8	0.013328	60	10	60-180	60	68	GapExp	0	131	2	6	0	distractor	1	747	627	68878	13.328	13.302	13.360
DTProbeTrack03	18	ProbeTrackDT	1.1	SCS215a	20110128.105425	20110128.110915	dt-generate	8	0.013328	60	10	60-180	60	80	GapExp	0	132	2	9	0	distractor	1	640	680	69558	13.328	13.304	13.359
DTProbeTrack03	18	ProbeTrackDT	1.1	SCS215a	20110128.105425	20110128.110921	dt-generate	8	0.013328	60	10	60-180	60	170	GapExp	0	133	2	45	1	target	1	920	540	70098	13.328	13.308	13.346
DTProbeTrack03	18	ProbeTrackDT	1.1	SCS215a	20110128.105425	20110128.110928	dt-generate	8	0.013328	60	10	60-180	60	116	GapExp	0	134	2	9	0	distractor	1	773	614	70712	13.328	12.871	13.776
DTProbeTrack03	18	ProbeTrackDT	1.1	SCS215a	20110128.105425	20110128.110934	dt-generate	8	0.013328	60	10	60-180	60	78	GapExp	0	135	2	6	0	target	0	587	-1000	69712	13.328	13.105	13.537
DTProbeTrack03	18	ProbeTrackDT	1.1	SCS215a	20110128.105425	20110128.110939	dt-generate	8	0.013328	60	10	60-180	60	103	GapExp	0	136	2	9	1	target	1	693	654	70366	13.328	13.101	13.562
DTProbeTrack03	18	ProbeTrackDT	1.1	SCS215a	20110128.105425	20110128.110944	dt-generate	8	0.013328	60	10	60-180	60	166	GapExp	0	137	2	3	1	target	1	547	727	71093	13.328	13.292	13.349
DTProbeTrack03	18	ProbeTrackDT	1.1	SCS215a	20110128.105425	20110128.110951	dt-generate	8	0.013328	60	10	60-180	60	89	GapExp	0	138	2	45	1	target	1	613	694	71787	13.328	13.301	13.356
DTProbeTrack03	18	ProbeTrackDT	1.1	SCS215a	20110128.105425	20110128.110956	dt-generate	8	0.013328	60	10	60-180	60	90	GapExp	0	139	2	6	1	target	1	560	720	72507	13.327	13.308	13.346
DTProbeTrack03	18	ProbeTrackDT	1.1	SCS215a	20110128.105425	20110128.111002	dt-generate	8	0.013328	60	10	60-180	60	75	GapExp	0	140	2	1	0	distractor	1	773	614	73121	13.328	12.879	13.786
DTProbeTrack03	18	ProbeTrackDT	1.1	SCS215a	20110128.105425	20110128.111007	dt-generate	8	0.013328	60	10	60-180	60	91	GapExp	0	141	2	9	0	target	0	1373	-1000	72121	13.328	13.106	13.551
DTProbeTrack03	18	ProbeTrackDT	1.1	SCS215a	20110128.105425	20110128.111013	dt-generate	8	0.013328	60	10	60-180	60	64	GapExp	0	142	2	1	1	target	1	1360	320	72441	13.328	13.306	13.346
DTProbeTrack03	18	ProbeTrackDT	1.1	SCS215a	20110128.105425	20110128.111018	dt-generate	8	0.013328	60	10	60-180	60	133	GapExp	0	143	2	45	1	target	1	707	647	73088	13.328	12.855	13.810
DTProbeTrack03	18	ProbeTrackDT	1.1	SCS215a	20110128.105425	20110128.111025	dt-generate	8	0.013328	60	10	60-180	60	82	GapExp	0	144	2	6	1	target	1	573	714	73802	13.328	12.931	13.720
DTProbeTrack03	18	ProbeTrackDT	1.1	SCS215a	20110128.105425	20110128.111030	dt-generate	8	0.013328	60	10	60-180	60	83	GapExp	0	145	2	1	0	83	-3	520	-1000	72802	13.328	13.091	13.551
DTProbeTrack03	18	ProbeTrackDT	1.1	SCS215a	20110128.105425	20110128.111035	dt-generate	8	0.013328	60	10	60-180	60	70	GapExp	0	146	2	45	1	target	1	733	634	73436	13.328	13.099	13.571
DTProbeTrack03	18	ProbeTrackDT	1.1	SCS215a	20110128.105425	20110128.111041	dt-generate	8	0.013328	60	10	60-180	60	137	GapExp	0	147	2	9	1	target	1	640	680	74116	13.328	13.092	13.565
DTProbeTrack03	18	ProbeTrackDT	1.1	SCS215a	20110128.105425	20110128.111047	dt-generate	8	0.013328	60	10	60-180	60	134	GapExp	0	148	2	3	0	target	0	800	-1000	73116	13.328	13.309	13.347
DTProbeTrack03	18	ProbeTrackDT	1.1	SCS215a	20110128.105425	20110128.111053	dt-generate	8	0.013328	60	10	60-180	60	85	GapExp	0	149	2	3	0	distractor	1	933	534	73650	13.328	12.902	13.746
DTProbeTrack03	18	ProbeTrackDT	1.1	SCS215a	20110128.105425	20110128.111058	dt-generate	8	0.013328	60	10	60-180	60	141	GapExp	0	150	2	9	0	distractor	1	734	633	74283	13.328	13.308	13.345
DTProbeTrack03	18	ProbeTrackDT	1.1	SCS215a	20110128.105425	20110128.111215	dt-generate	8	0.013328	60	10	60-180	60	108	GapExp	0	151	2	3	1	target	1	573	714	74997	13.328	13.098	13.545
DTProbeTrack03	18	ProbeTrackDT	1.1	SCS215a	20110128.105425	20110128.111220	dt-generate	8	0.013328	60	10	60-180	60	148	GapExp	0	152	2	45	1	target	1	547	727	75724	13.328	13.092	13.550
DTProbeTrack03	18	ProbeTrackDT	1.1	SCS215a	20110128.105425	20110128.111227	dt-generate	8	0.013328	60	10	60-180	60	125	GapExp	0	153	2	3	1	target	1	693	654	76378	13.328	13.014	13.649
DTProbeTrack03	18	ProbeTrackDT	1.1	SCS215a	20110128.105425	20110128.111233	dt-generate	8	0.013328	60	10	60-180	60	109	GapExp	0	154	2	3	0	distractor	1	707	647	77025	13.328	13.172	13.490
DTProbeTrack03	18	ProbeTrackDT	1.1	SCS215a	20110128.105425	20110128.111238	dt-generate	8	0.013328	60	10	60-180	60	93	GapExp	0	155	2	9	1	target	1	667	667	77692	13.328	13.299	13.355
DTProbeTrack03	18	ProbeTrackDT	1.1	SCS215a	20110128.105425	20110128.111244	dt-generate	8	0.013328	60	10	60-180	60	165	GapExp	0	156	2	6	0	distractor	1	480	760	78452	13.328	12.962	13.694
DTProbeTrack03	18	ProbeTrackDT	1.1	SCS215a	20110128.105425	20110128.111250	dt-generate	8	0.013328	60	10	60-180	60	62	GapExp	0	157	2	9	1	target	1	880	560	79012	13.328	13.086	13.557
DTProbeTrack03	18	ProbeTrackDT	1.1	SCS215a	20110128.105425	20110128.111255	dt-generate	8	0.013328	60	10	60-180	60	172	GapExp	0	158	2	6	0	target	0	747	-1000	78012	13.328	13.085	13.559
DTProbeTrack03	18	ProbeTrackDT	1.1	SCS215a	20110128.105425	20110128.111301	dt-generate	8	0.013328	60	10	60-180	60	85	GapExp	0	159	2	9	1	target	1	1346	327	78339	13.328	12.942	13.707
DTProbeTrack03	18	ProbeTrackDT	1.1	SCS215a	20110128.105425	20110128.111307	dt-generate	8	0.013328	60	10	60-180	60	109	GapExp	0	160	2	3	0	distractor	1	680	660	78999	13.328	13.307	13.352
DTProbeTrack03	18	ProbeTrackDT	1.1	SCS215a	20110128.105425	20110128.111313	dt-generate	8	0.013328	60	10	60-180	60	102	GapExp	0	161	2	1	0	distractor	1	813	594	79593	13.381	13.129	26.663
DTProbeTrack03	18	ProbeTrackDT	1.1	SCS215a	20110128.105425	20110128.111319	dt-generate	8	0.013328	60	10	60-180	60	121	GapExp	0	162	2	9	0	distractor	1	893	554	80147	13.328	12.982	13.670
DTProbeTrack03	18	ProbeTrackDT	1.1	SCS215a	20110128.105425	20110128.111325	dt-generate	8	0.013328	60	10	60-180	60	63	GapExp	0	163	2	9	0	distractor	1	1027	487	80634	13.328	13.102	13.540
DTProbeTrack03	18	ProbeTrackDT	1.1	SCS215a	20110128.105425	20110128.111330	dt-generate	8	0.013328	60	10	60-180	60	144	GapExp	0	164	2	1	1	target	1	707	647	81281	13.328	13.088	13.564
DTProbeTrack03	18	ProbeTrackDT	1.1	SCS215a	20110128.105425	20110128.111336	dt-generate	8	0.013328	60	10	60-180	60	165	GapExp	0	165	2	45	1	target	1	693	654	81935	13.328	12.909	13.762
DTProbeTrack03	18	ProbeTrackDT	1.1	SCS215a	20110128.105425	20110128.111343	dt-generate	8	0.013328	60	10	60-180	60	68	GapExp	0	166	2	3	1	target	1	547	727	82662	13.328	13.310	13.353
DTProbeTrack03	18	ProbeTrackDT	1.1	SCS215a	20110128.105425	20110128.111348	dt-generate	8	0.013328	60	10	60-180	60	79	GapExp	0	167	2	45	1	target	1	520	740	83402	13.328	13.308	13.347
DTProbeTrack03	18	ProbeTrackDT	1.1	SCS215a	20110128.105425	20110128.111353	dt-generate	8	0.013328	60	10	60-180	60	114	GapExp	0	168	2	6	0	target	0	1586	-1000	82402	13.328	13.303	13.347
DTProbeTrack03	18	ProbeTrackDT	1.1	SCS215a	20110128.105425	20110128.111400	dt-generate	8	0.013328	60	10	60-180	60	109	GapExp	0	169	2	1	0	distractor	1	720	640	83042	13.328	12.977	13.681
DTProbeTrack03	18	ProbeTrackDT	1.1	SCS215a	20110128.105425	20110128.111405	dt-generate	8	0.013328	60	10	60-180	60	91	GapExp	0	170	2	45	1	target	1	547	727	83769	13.328	13.098	13.574
DTProbeTrack03	18	ProbeTrackDT	1.1	SCS215a	20110128.105425	20110128.111411	dt-generate	8	0.013328	60	10	60-180	60	144	GapExp	0	171	2	1	0	distractor	1	534	733	84502	13.328	13.310	13.346
DTProbeTrack03	18	ProbeTrackDT	1.1	SCS215a	20110128.105425	20110128.111417	dt-generate	8	0.013328	60	10	60-180	60	64	GapExp	0	172	2	1	1	target	1	720	640	85142	13.328	13.303	13.345
DTProbeTrack03	18	ProbeTrackDT	1.1	SCS215a	20110128.105425	20110128.111422	dt-generate	8	0.013328	60	10	60-180	60	121	GapExp	0	173	2	1	1	target	1	560	720	85862	13.328	13.305	13.356
DTProbeTrack03	18	ProbeTrackDT	1.1	SCS215a	20110128.105425	20110128.111428	dt-generate	8	0.013328	60	10	60-180	60	169	GapExp	0	174	2	45	0	distractor	1	653	674	86536	13.328	12.924	13.743
DTProbeTrack03	18	ProbeTrackDT	1.1	SCS215a	20110128.105425	20110128.111435	dt-generate	8	0.013328	60	10	60-180	60	113	GapExp	0	175	2	3	1	target	1	1960	20	86556	13.328	13.107	13.556
DTProbeTrack03	18	ProbeTrackDT	1.1	SCS215a	20110128.105425	20110128.111441	dt-generate	8	0.013328	60	10	60-180	60	134	GapExp	0	176	2	45	0	distractor	1	574	713	87269	13.328	12.876	13.779
DTProbeTrack03	18	ProbeTrackDT	1.1	SCS215a	20110128.105425	20110128.111448	dt-generate	8	0.013328	60	10	60-180	60	126	GapExp	0	177	2	3	0	target	0	880	-1000	86269	13.328	12.857	13.800
DTProbeTrack03	18	ProbeTrackDT	1.1	SCS215a	20110128.105425	20110128.111454	dt-generate	8	0.013328	60	10	60-180	60	101	GapExp	0	178	2	45	1	target	1	613	694	86963	13.328	13.088	13.569
DTProbeTrack03	18	ProbeTrackDT	1.1	SCS215a	20110128.105425	20110128.111500	dt-generate	8	0.013328	60	10	60-180	60	172	GapExp	0	179	2	3	0	distractor	1	867	567	87530	13.328	13.109	13.539
DTProbeTrack03	18	ProbeTrackDT	1.1	SCS215a	20110128.105425	20110128.111506	dt-generate	8	0.013328	60	10	60-180	60	86	GapExp	0	180	2	1	0	distractor	1	853	574	88104	13.328	13.306	13.350
DTProbeTrack03	18	ProbeTrackDT	1.1	SCS215a	20110128.105425	20110128.111512	dt-generate	8	0.013328	60	10	60-180	60	68	GapExp	0	181	2	6	0	distractor	1	960	520	88624	13.328	13.247	13.402
DTProbeTrack03	18	ProbeTrackDT	1.1	SCS215a	20110128.105425	20110128.111517	dt-generate	8	0.013328	60	10	60-180	60	72	GapExp	0	182	2	9	1	target	1	920	540	89164	13.328	13.025	13.631
DTProbeTrack03	18	ProbeTrackDT	1.1	SCS215a	20110128.105425	20110128.111523	dt-generate	8	0.013328	60	10	60-180	60	163	GapExp	0	183	2	45	0	distractor	1	1853	74	89238	13.328	12.842	13.807
DTProbeTrack03	18	ProbeTrackDT	1.1	SCS215a	20110128.105425	20110128.111531	dt-generate	8	0.013328	60	10	60-180	60	111	GapExp	0	184	2	9	0	distractor	1	733	634	89872	13.328	13.015	13.656
DTProbeTrack03	18	ProbeTrackDT	1.1	SCS215a	20110128.105425	20110128.111536	dt-generate	8	0.013328	60	10	60-180	60	82	GapExp	0	185	2	3	1	target	1	707	647	90519	13.328	12.884	13.771
DTProbeTrack03	18	ProbeTrackDT	1.1	SCS215a	20110128.105425	20110128.111542	dt-generate	8	0.013328	60	10	60-180	60	104	GapExp	0	186	2	6	1	distractor	0	973	-1000	89519	13.328	12.963	13.707
DTProbeTrack03	18	ProbeTrackDT	1.1	SCS215a	20110128.105425	20110128.111547	dt-generate	8	0.013328	60	10	60-180	60	168	GapExp	0	187	2	1	1	target	1	720	640	90159	13.328	12.836	13.814
DTProbeTrack03	18	ProbeTrackDT	1.1	SCS215a	20110128.105425	20110128.111554	dt-generate	8	0.013328	60	10	60-180	60	140	GapExp	0	188	2	3	0	distractor	1	707	647	90806	13.328	13.307	13.357
DTProbeTrack03	18	ProbeTrackDT	1.1	SCS215a	20110128.105425	20110128.111600	dt-generate	8	0.013328	60	10	60-180	60	98	GapExp	0	189	2	6	0	distractor	1	600	700	91506	13.328	13.138	13.543
DTProbeTrack03	18	ProbeTrackDT	1.1	SCS215a	20110128.105425	20110128.111605	dt-generate	8	0.013328	60	10	60-180	60	173	GapExp	0	190	2	1	1	target	1	640	680	92186	13.328	12.868	13.782
DTProbeTrack03	18	ProbeTrackDT	1.1	SCS215a	20110128.105425	20110128.111611	dt-generate	8	0.013328	60	10	60-180	60	75	GapExp	0	191	2	9	1	target	1	480	760	92946	13.328	13.111	13.545
DTProbeTrack03	18	ProbeTrackDT	1.1	SCS215a	20110128.105425	20110128.111616	dt-generate	8	0.013328	60	10	60-180	60	157	GapExp	0	192	2	3	1	target	1	920	540	93486	13.327	13.009	13.768
DTProbeTrack03	18	ProbeTrackDT	1.1	SCS215a	20110128.105425	20110128.111623	dt-generate	8	0.013328	60	10	60-180	60	160	GapExp	0	193	2	9	1	target	1	613	694	94180	13.327	12.830	13.814
DTProbeTrack03	18	ProbeTrackDT	1.1	SCS215a	20110128.105425	20110128.111629	dt-generate	8	0.013328	60	10	60-180	60	141	GapExp	0	194	2	9	0	distractor	1	507	747	94927	13.328	12.933	13.709
DTProbeTrack03	18	ProbeTrackDT	1.1	SCS215a	20110128.105425	20110128.111635	dt-generate	8	0.013328	60	10	60-180	60	79	GapExp	0	195	2	3	1	target	1	1160	420	95347	13.327	13.304	13.345
DTProbeTrack03	18	ProbeTrackDT	1.1	SCS215a	20110128.105425	20110128.111641	dt-generate	8	0.013328	60	10	60-180	60	104	GapExp	0	196	2	6	1	target	1	640	680	96027	13.328	13.099	13.550
DTProbeTrack03	18	ProbeTrackDT	1.1	SCS215a	20110128.105425	20110128.111646	dt-generate	8	0.013328	60	10	60-180	60	133	GapExp	0	197	2	3	1	target	1	733	634	96661	13.328	13.112	13.550
DTProbeTrack03	18	ProbeTrackDT	1.1	SCS215a	20110128.105425	20110128.111652	dt-generate	8	0.013328	60	10	60-180	60	127	GapExp	0	198	2	9	1	target	1	640	680	97341	13.328	12.926	13.736
DTProbeTrack03	18	ProbeTrackDT	1.1	SCS215a	20110128.105425	20110128.111658	dt-generate	8	0.013328	60	10	60-180	60	163	GapExp	0	199	2	45	1	target	1	747	627	97968	13.328	13.286	13.390
DTProbeTrack03	18	ProbeTrackDT	1.1	SCS215a	20110128.105425	20110128.111705	dt-generate	8	0.013328	60	10	60-180	60	117	GapExp	0	200	2	45	1	target	1	560	720	98688	13.373	12.859	26.624
DTProbeTrack03	18	ProbeTrackDT	1.1	SCS215a	20110128.105425	20110128.111716	dt-generate	8	0.013328	60	10	60-180	60	128	GapExp	0	201	2	3	0	distractor	1	720	640	99328	13.328	13.097	13.555
DTProbeTrack03	18	ProbeTrackDT	1.1	SCS215a	20110128.105425	20110128.111722	dt-generate	8	0.013328	60	10	60-180	60	141	GapExp	0	202	2	1	1	target	1	1266	367	99695	13.328	13.101	13.558
DTProbeTrack03	18	ProbeTrackDT	1.1	SCS215a	20110128.105425	20110128.111728	dt-generate	8	0.013328	60	10	60-180	60	177	GapExp	0	203	2	6	1	target	1	534	733	100428	13.328	12.970	13.697
DTProbeTrack03	18	ProbeTrackDT	1.1	SCS215a	20110128.105425	20110128.111735	dt-generate	8	0.013328	60	10	60-180	60	135	GapExp	0	204	2	1	1	distractor	0	680	-1000	99428	13.328	13.104	13.566
DTProbeTrack03	18	ProbeTrackDT	1.1	SCS215a	20110128.105425	20110128.111740	dt-generate	8	0.013328	60	10	60-180	60	65	GapExp	0	205	2	6	1	target	1	520	740	100168	13.328	12.870	13.785
DTProbeTrack03	18	ProbeTrackDT	1.1	SCS215a	20110128.111835	20110128.111840	dt-shadow	8	0.013328	60	10	60-180	60	72	GapPrac	1	1	2	3	0	target	0	853	-1000	99168	13.328	12.892	13.760
DTProbeTrack03	18	ProbeTrackDT	1.1	SCS215a	20110128.111835	20110128.111845	dt-shadow	8	0.013328	60	10	60-180	60	72	GapPrac	1	2	2	6	1	target	1	693	654	99822	13.328	13.099	13.560
DTProbeTrack03	18	ProbeTrackDT	1.1	SCS215a	20110128.111835	20110128.111850	dt-shadow	8	0.013328	60	10	60-180	60	79	GapPrac	1	3	2	3	1	target	1	933	534	100356	13.328	13.308	13.345
DTProbeTrack03	18	ProbeTrackDT	1.1	SCS215a	20110128.111835	20110128.111856	dt-shadow	8	0.013328	60	10	60-180	60	161	GapPrac	1	4	2	9	0	distractor	1	627	687	101043	13.328	12.900	13.762
DTProbeTrack03	18	ProbeTrackDT	1.1	SCS215a	20110128.111835	20110128.111902	dt-shadow	8	0.013328	60	10	60-180	60	90	GapPrac	1	5	2	3	1	target	1	574	713	101756	13.328	13.017	13.654
DTProbeTrack03	18	ProbeTrackDT	1.1	SCS215a	20110128.111835	20110128.111907	dt-shadow	8	0.013328	60	10	60-180	60	153	GapPrac	1	6	2	9	1	target	1	440	780	102536	13.328	13.105	13.558
DTProbeTrack03	18	ProbeTrackDT	1.1	SCS215a	20110128.111835	20110128.111913	dt-shadow	8	0.013328	60	10	60-180	60	74	GapPrac	1	7	2	6	0	distractor	1	747	627	103163	13.328	13.308	13.354
DTProbeTrack03	18	ProbeTrackDT	1.1	SCS215a	20110128.111835	20110128.111918	dt-shadow	8	0.013328	60	10	60-180	60	67	GapPrac	1	8	2	45	1	target	1	560	720	103883	13.328	13.303	13.346
DTProbeTrack03	18	ProbeTrackDT	1.1	SCS215a	20110128.111835	20110128.111924	dt-shadow	8	0.013328	60	10	60-180	60	165	GapPrac	1	9	2	3	0	distractor	1	667	667	104550	13.328	13.265	13.377
DTProbeTrack03	18	ProbeTrackDT	1.1	SCS215a	20110128.111835	20110128.111930	dt-shadow	8	0.013328	60	10	60-180	60	78	GapPrac	1	10	2	9	0	target	0	560	-1000	103550	13.327	13.295	13.361
DTProbeTrack03	18	ProbeTrackDT	1.1	SCS215a	20110128.111835	20110128.111935	dt-shadow	8	0.013328	60	10	60-180	60	150	GapPrac	1	11	2	6	1	target	1	573	714	104264	13.328	13.099	13.571
DTProbeTrack03	18	ProbeTrackDT	1.1	SCS215a	20110128.111835	20110128.111941	dt-shadow	8	0.013328	60	10	60-180	60	131	GapPrac	1	12	2	45	0	distractor	1	787	607	104871	13.328	13.096	13.556
DTProbeTrack03	18	ProbeTrackDT	1.1	SCS215a	20110128.111835	20110128.111948	dt-shadow	8	0.013328	60	10	60-180	60	129	GapPrac	1	13	2	1	0	target	0	2039	-1000	103871	13.328	13.095	13.559
DTProbeTrack03	18	ProbeTrackDT	1.1	SCS215a	20110128.111835	20110128.111955	dt-shadow	8	0.013328	60	10	60-180	60	173	GapPrac	1	14	2	6	0	distractor	1	973	514	104385	13.328	12.860	13.789
DTProbeTrack03	18	ProbeTrackDT	1.1	SCS215a	20110128.111835	20110128.112002	dt-shadow	8	0.013328	60	10	60-180	60	115	GapPrac	1	15	2	1	1	target	1	587	707	105092	13.328	12.881	13.769
DTProbeTrack03	18	ProbeTrackDT	1.1	SCS215a	20110128.111835	20110128.112007	dt-shadow	8	0.013328	60	10	60-180	60	86	GapPrac	1	16	2	9	1	target	1	600	700	105792	13.328	13.088	13.568
DTProbeTrack03	18	ProbeTrackDT	1.1	SCS215a	20110128.111835	20110128.112013	dt-shadow	8	0.013328	60	10	60-180	60	155	GapPrac	1	17	2	1	1	target	1	480	760	106552	13.328	13.016	13.634
DTProbeTrack03	18	ProbeTrackDT	1.1	SCS215a	20110128.111835	20110128.112019	dt-shadow	8	0.013328	60	10	60-180	60	76	GapPrac	1	18	2	1	0	target	0	400	-1000	105552	13.328	13.308	13.346
DTProbeTrack03	18	ProbeTrackDT	1.1	SCS215a	20110128.111835	20110128.112023	dt-shadow	8	0.013328	60	10	60-180	60	121	GapPrac	1	19	2	45	1	target	1	653	674	106226	13.328	13.096	13.557
DTProbeTrack03	18	ProbeTrackDT	1.1	SCS215a	20110128.111835	20110128.112030	dt-shadow	8	0.013328	60	10	60-180	60	79	GapPrac	1	20	2	45	0	distractor	1	600	700	106926	13.328	13.114	13.542
DTProbeTrack03	18	ProbeTrackDT	1.1	SCS215a	20110128.112106	20110128.112112	dt-shadow	8	0.013328	60	10	60-180	60	137	GapExp	1	1	2	3	0	distractor	1	813	594	107520	13.328	12.888	13.776
DTProbeTrack03	18	ProbeTrackDT	1.1	SCS215a	20110128.112106	20110128.112118	dt-shadow	8	0.013328	60	10	60-180	60	140	GapExp	1	2	2	9	1	target	1	573	714	108234	13.328	13.111	13.548
DTProbeTrack03	18	ProbeTrackDT	1.1	SCS215a	20110128.112106	20110128.112124	dt-shadow	8	0.013328	60	10	60-180	60	127	GapExp	1	3	2	6	1	target	1	707	647	108881	13.328	13.306	13.350
DTProbeTrack03	18	ProbeTrackDT	1.1	SCS215a	20110128.112106	20110128.112130	dt-shadow	8	0.013328	60	10	60-180	60	134	GapExp	1	4	2	1	1	target	1	560	720	109601	13.328	12.956	13.708
DTProbeTrack03	18	ProbeTrackDT	1.1	SCS215a	20110128.112106	20110128.112136	dt-shadow	8	0.013328	60	10	60-180	60	80	GapExp	1	5	2	6	0	distractor	1	520	740	110341	13.328	12.880	13.784
DTProbeTrack03	18	ProbeTrackDT	1.1	SCS215a	20110128.112106	20110128.112141	dt-shadow	8	0.013328	60	10	60-180	60	112	GapExp	0	6	2	3	1	target	1	520	740	111081	13.328	13.093	13.569
DTProbeTrack03	18	ProbeTrackDT	1.1	SCS215a	20110128.112106	20110128.112146	dt-shadow	8	0.013328	60	10	60-180	60	111	GapExp	0	7	2	45	0	distractor	1	627	687	111768	13.328	12.876	13.801
DTProbeTrack03	18	ProbeTrackDT	1.1	SCS215a	20110128.112106	20110128.112152	dt-shadow	8	0.013328	60	10	60-180	60	128	GapExp	0	8	2	6	0	distractor	1	880	560	112328	13.328	12.907	13.747
DTProbeTrack03	18	ProbeTrackDT	1.1	SCS215a	20110128.112106	20110128.112158	dt-shadow	8	0.013328	60	10	60-180	60	106	GapExp	0	9	2	6	0	distractor	1	747	627	112955	13.328	13.074	13.589
DTProbeTrack03	18	ProbeTrackDT	1.1	SCS215a	20110128.112106	20110128.112204	dt-shadow	8	0.013328	60	10	60-180	60	73	GapExp	0	10	2	45	1	distractor	0	1080	-1000	111955	13.328	12.906	13.755
DTProbeTrack03	18	ProbeTrackDT	1.1	SCS215a	20110128.112106	20110128.112210	dt-shadow	8	0.013328	60	10	60-180	60	110	GapExp	0	11	2	9	1	target	1	520	740	112695	13.328	13.086	13.558
DTProbeTrack03	18	ProbeTrackDT	1.1	SCS215a	20110128.112106	20110128.112215	dt-shadow	8	0.013328	60	10	60-180	60	151	GapExp	0	12	2	1	0	distractor	1	640	680	113375	13.328	12.896	13.763
DTProbeTrack03	18	ProbeTrackDT	1.1	SCS215a	20110128.112106	20110128.112221	dt-shadow	8	0.013328	60	10	60-180	60	101	GapExp	0	13	2	45	1	target	1	893	554	113929	13.328	13.101	13.549
DTProbeTrack03	18	ProbeTrackDT	1.1	SCS215a	20110128.112106	20110128.112228	dt-shadow	8	0.013328	60	10	60-180	60	67	GapExp	0	14	2	9	0	distractor	1	1240	380	114309	13.328	12.942	13.721
DTProbeTrack03	18	ProbeTrackDT	1.1	SCS215a	20110128.112106	20110128.112233	dt-shadow	8	0.013328	60	10	60-180	60	83	GapExp	0	15	2	45	0	target	0	867	-1000	113309	13.328	13.309	13.347
DTProbeTrack03	18	ProbeTrackDT	1.1	SCS215a	20110128.112106	20110128.112239	dt-shadow	8	0.013328	60	10	60-180	60	139	GapExp	0	16	2	9	0	target	0	454	-1000	112309	13.328	12.848	13.807
DTProbeTrack03	18	ProbeTrackDT	1.1	SCS215a	20110128.112106	20110128.112245	dt-shadow	8	0.013328	60	10	60-180	60	107	GapExp	0	17	2	1	0	distractor	1	600	700	113009	13.328	13.106	13.541
DTProbeTrack03	18	ProbeTrackDT	1.1	SCS215a	20110128.112106	20110128.112251	dt-shadow	8	0.013328	60	10	60-180	60	94	GapExp	0	18	2	1	1	target	1	640	680	113689	13.328	13.094	13.556
DTProbeTrack03	18	ProbeTrackDT	1.1	SCS215a	20110128.112106	20110128.112256	dt-shadow	8	0.013328	60	10	60-180	60	174	GapExp	0	19	2	9	0	distractor	1	680	660	114349	13.328	12.848	13.815
DTProbeTrack03	18	ProbeTrackDT	1.1	SCS215a	20110128.112106	20110128.112302	dt-shadow	8	0.013328	60	10	60-180	60	122	GapExp	0	20	2	3	0	distractor	1	667	667	115016	13.328	13.084	13.572
DTProbeTrack03	18	ProbeTrackDT	1.1	SCS215a	20110128.112106	20110128.112308	dt-shadow	8	0.013328	60	10	60-180	60	153	GapExp	0	21	2	45	1	target	1	480	760	115776	13.328	13.303	13.361
DTProbeTrack03	18	ProbeTrackDT	1.1	SCS215a	20110128.112106	20110128.112315	dt-shadow	8	0.013328	60	10	60-180	60	86	GapExp	0	22	2	3	1	target	1	640	680	116456	13.328	13.290	13.366
DTProbeTrack03	18	ProbeTrackDT	1.1	SCS215a	20110128.112106	20110128.112320	dt-shadow	8	0.013328	60	10	60-180	60	171	GapExp	0	23	2	1	0	target	0	747	-1000	115456	13.328	13.081	13.569
DTProbeTrack03	18	ProbeTrackDT	1.1	SCS215a	20110128.112106	20110128.112326	dt-shadow	8	0.013328	60	10	60-180	60	77	GapExp	0	24	2	1	1	target	1	707	647	116103	13.328	13.109	13.545
DTProbeTrack03	18	ProbeTrackDT	1.1	SCS215a	20110128.112106	20110128.112331	dt-shadow	8	0.013328	60	10	60-180	60	131	GapExp	0	25	2	6	0	target	0	933	-1000	115103	13.328	13.056	13.607
DTProbeTrack03	18	ProbeTrackDT	1.1	SCS215a	20110128.112106	20110128.112338	dt-shadow	8	0.013328	60	10	60-180	60	173	GapExp	0	26	2	3	0	distractor	1	827	587	115690	13.328	13.306	13.348
DTProbeTrack03	18	ProbeTrackDT	1.1	SCS215a	20110128.112106	20110128.112344	dt-shadow	8	0.013328	60	10	60-180	60	118	GapExp	0	27	2	9	0	distractor	1	653	674	116364	13.328	13.309	13.349
DTProbeTrack03	18	ProbeTrackDT	1.1	SCS215a	20110128.112106	20110128.112350	dt-shadow	8	0.013328	60	10	60-180	60	98	GapExp	0	28	2	6	1	target	1	574	713	117077	13.328	13.298	13.357
DTProbeTrack03	18	ProbeTrackDT	1.1	SCS215a	20110128.112106	20110128.112355	dt-shadow	8	0.013328	60	10	60-180	60	102	GapExp	0	29	2	9	0	distractor	1	653	674	117751	13.328	13.301	13.349
DTProbeTrack03	18	ProbeTrackDT	1.1	SCS215a	20110128.112106	20110128.112401	dt-shadow	8	0.013328	60	10	60-180	60	73	GapExp	0	30	2	1	0	distractor	1	653	674	118425	13.328	13.114	13.542
DTProbeTrack03	18	ProbeTrackDT	1.1	SCS215a	20110128.112106	20110128.112406	dt-shadow	8	0.013328	60	10	60-180	60	163	GapExp	0	31	2	45	0	distractor	1	800	600	119025	13.328	13.035	13.708
DTProbeTrack03	18	ProbeTrackDT	1.1	SCS215a	20110128.112106	20110128.112413	dt-shadow	8	0.013328	60	10	60-180	60	101	GapExp	0	32	2	45	0	target	0	693	-1000	118025	13.328	13.100	13.558
DTProbeTrack03	18	ProbeTrackDT	1.1	SCS215a	20110128.112106	20110128.112419	dt-shadow	8	0.013328	60	10	60-180	60	129	GapExp	0	33	2	3	1	distractor	0	987	-1000	117025	13.328	12.860	13.798
DTProbeTrack03	18	ProbeTrackDT	1.1	SCS215a	20110128.112106	20110128.112425	dt-shadow	8	0.013328	60	10	60-180	60	106	GapExp	0	34	2	9	0	distractor	1	733	634	117659	13.328	13.309	13.346
DTProbeTrack03	18	ProbeTrackDT	1.1	SCS215a	20110128.112106	20110128.112431	dt-shadow	8	0.013328	60	10	60-180	60	159	GapExp	0	35	2	1	0	distractor	1	827	587	118246	13.328	12.934	13.709
DTProbeTrack03	18	ProbeTrackDT	1.1	SCS215a	20110128.112106	20110128.112437	dt-shadow	8	0.013328	60	10	60-180	60	139	GapExp	0	36	2	1	0	distractor	1	560	720	118966	13.328	13.087	13.566
DTProbeTrack03	18	ProbeTrackDT	1.1	SCS215a	20110128.112106	20110128.112443	dt-shadow	8	0.013328	60	10	60-180	60	76	GapExp	0	37	2	1	1	target	1	667	667	119633	13.328	12.993	13.666
DTProbeTrack03	18	ProbeTrackDT	1.1	SCS215a	20110128.112106	20110128.112448	dt-shadow	8	0.013328	60	10	60-180	60	117	GapExp	0	38	2	3	1	target	1	813	594	120227	13.328	13.113	13.557
DTProbeTrack03	18	ProbeTrackDT	1.1	SCS215a	20110128.112106	20110128.112454	dt-shadow	8	0.013328	60	10	60-180	60	118	GapExp	0	39	2	6	0	distractor	1	773	614	120841	13.328	12.943	13.713
DTProbeTrack03	18	ProbeTrackDT	1.1	SCS215a	20110128.112106	20110128.112500	dt-shadow	8	0.013328	60	10	60-180	60	74	GapExp	0	40	2	9	1	target	1	747	627	121468	13.328	13.304	13.348
DTProbeTrack03	18	ProbeTrackDT	1.1	SCS215a	20110128.112106	20110128.112505	dt-shadow	8	0.013328	60	10	60-180	60	79	GapExp	0	41	2	45	1	target	1	640	680	122148	13.328	13.092	13.552
DTProbeTrack03	18	ProbeTrackDT	1.1	SCS215a	20110128.112106	20110128.112511	dt-shadow	8	0.013328	60	10	60-180	60	113	GapExp	0	42	2	6	0	distractor	1	667	667	122815	13.328	13.100	13.557
DTProbeTrack03	18	ProbeTrackDT	1.1	SCS215a	20110128.112106	20110128.112516	dt-shadow	8	0.013328	60	10	60-180	60	121	GapExp	0	43	2	1	1	target	1	573	714	123529	13.328	12.935	13.728
DTProbeTrack03	18	ProbeTrackDT	1.1	SCS215a	20110128.112106	20110128.112522	dt-shadow	8	0.013328	60	10	60-180	60	73	GapExp	0	44	2	1	1	target	1	653	674	124203	13.328	13.033	13.640
DTProbeTrack03	18	ProbeTrackDT	1.1	SCS215a	20110128.112106	20110128.112527	dt-shadow	8	0.013328	60	10	60-180	60	137	GapExp	0	45	2	45	1	target	1	547	727	124930	13.328	13.009	13.639
DTProbeTrack03	18	ProbeTrackDT	1.1	SCS215a	20110128.112106	20110128.112533	dt-shadow	8	0.013328	60	10	60-180	60	114	GapExp	0	46	2	3	0	distractor	1	867	567	125497	13.328	13.308	13.345
DTProbeTrack03	18	ProbeTrackDT	1.1	SCS215a	20110128.112106	20110128.112539	dt-shadow	8	0.013328	60	10	60-180	60	177	GapExp	0	47	2	45	1	target	1	827	587	126084	13.328	13.085	13.571
DTProbeTrack03	18	ProbeTrackDT	1.1	SCS215a	20110128.112106	20110128.112546	dt-shadow	8	0.013328	60	10	60-180	60	89	GapExp	0	48	2	1	1	target	1	560	720	126804	13.328	12.998	13.688
DTProbeTrack03	18	ProbeTrackDT	1.1	SCS215a	20110128.112106	20110128.112551	dt-shadow	8	0.013328	60	10	60-180	60	63	GapExp	0	49	2	3	0	distractor	1	600	700	127504	13.328	13.307	13.347
DTProbeTrack03	18	ProbeTrackDT	1.1	SCS215a	20110128.112106	20110128.112556	dt-shadow	8	0.013328	60	10	60-180	60	104	GapExp	0	50	2	45	0	distractor	1	707	647	128151	13.328	13.306	13.361
DTProbeTrack03	18	ProbeTrackDT	1.1	SCS215a	20110128.112106	20110128.112710	dt-shadow	8	0.013328	60	10	60-180	60	65	GapExp	0	51	2	1	0	distractor	1	973	514	128665	13.328	13.109	13.555
DTProbeTrack03	18	ProbeTrackDT	1.1	SCS215a	20110128.112106	20110128.112715	dt-shadow	8	0.013328	60	10	60-180	60	81	GapExp	0	52	2	45	0	distractor	1	653	674	129339	13.328	13.093	13.565
DTProbeTrack03	18	ProbeTrackDT	1.1	SCS215a	20110128.112106	20110128.112721	dt-shadow	8	0.013328	60	10	60-180	60	87	GapExp	0	53	2	1	1	target	1	560	720	130059	13.328	13.295	13.369
DTProbeTrack03	18	ProbeTrackDT	1.1	SCS215a	20110128.112106	20110128.112726	dt-shadow	8	0.013328	60	10	60-180	60	157	GapExp	0	54	2	1	1	target	1	467	767	130826	13.328	12.875	13.788
DTProbeTrack03	18	ProbeTrackDT	1.1	SCS215a	20110128.112106	20110128.112732	dt-shadow	8	0.013328	60	10	60-180	60	141	GapExp	0	55	2	45	1	target	1	667	667	131493	13.328	13.309	13.348
DTProbeTrack03	18	ProbeTrackDT	1.1	SCS215a	20110128.112106	20110128.112738	dt-shadow	8	0.013328	60	10	60-180	60	98	GapExp	0	56	2	6	0	distractor	1	747	627	132120	13.328	13.090	13.553
DTProbeTrack03	18	ProbeTrackDT	1.1	SCS215a	20110128.112106	20110128.112744	dt-shadow	8	0.013328	60	10	60-180	60	146	GapExp	0	57	2	9	1	target	1	613	694	132814	13.328	13.093	13.563
DTProbeTrack03	18	ProbeTrackDT	1.1	SCS215a	20110128.112106	20110128.112750	dt-shadow	8	0.013328	60	10	60-180	60	105	GapExp	0	58	2	45	0	distractor	1	640	680	133494	13.328	12.846	13.580
DTProbeTrack03	18	ProbeTrackDT	1.1	SCS215a	20110128.112106	20110128.112756	dt-shadow	8	0.013328	60	10	60-180	60	71	GapExp	0	59	2	45	0	distractor	1	907	547	134041	13.328	13.128	13.524
DTProbeTrack03	18	ProbeTrackDT	1.1	SCS215a	20110128.112106	20110128.112802	dt-shadow	8	0.013328	60	10	60-180	60	84	GapExp	0	60	2	1	1	target	1	853	574	134615	13.328	12.907	13.756
DTProbeTrack03	18	ProbeTrackDT	1.1	SCS215a	20110128.112106	20110128.112807	dt-shadow	8	0.013328	60	10	60-180	60	180	GapExp	0	61	2	45	1	target	1	560	720	135335	13.328	12.887	13.764
DTProbeTrack03	18	ProbeTrackDT	1.1	SCS215a	20110128.112106	20110128.112814	dt-shadow	8	0.013328	60	10	60-180	60	116	GapExp	0	62	2	6	1	target	1	520	740	136075	13.328	13.107	13.350
DTProbeTrack03	18	ProbeTrackDT	1.1	SCS215a	20110128.112106	20110128.112820	dt-shadow	8	0.013328	60	10	60-180	60	70	GapExp	0	63	2	1	0	distractor	1	653	674	136749	13.328	13.111	13.545
DTProbeTrack03	18	ProbeTrackDT	1.1	SCS215a	20110128.112106	20110128.112825	dt-shadow	8	0.013328	60	10	60-180	60	179	GapExp	0	64	2	6	0	distractor	1	800	600	137349	13.328	13.087	13.563
DTProbeTrack03	18	ProbeTrackDT	1.1	SCS215a	20110128.112106	20110128.112831	dt-shadow	8	0.013328	60	10	60-180	60	166	GapExp	0	65	2	3	0	distractor	1	600	700	138049	13.328	12.997	13.658
DTProbeTrack03	18	ProbeTrackDT	1.1	SCS215a	20110128.112106	20110128.112838	dt-shadow	8	0.013328	60	10	60-180	60	153	GapExp	0	66	2	3	0	distractor	1	827	587	138636	13.372	12.869	26.982
DTProbeTrack03	18	ProbeTrackDT	1.1	SCS215a	20110128.112106	20110128.112844	dt-shadow	8	0.013328	60	10	60-180	60	162	GapExp	0	67	2	6	1	target	1	733	634	139270	13.328	13.129	13.534
DTProbeTrack03	18	ProbeTrackDT	1.1	SCS215a	20110128.112106	20110128.112850	dt-shadow	8	0.013328	60	10	60-180	60	74	GapExp	0	68	2	9	0	distractor	1	667	667	139937	13.328	13.305	13.345
DTProbeTrack03	18	ProbeTrackDT	1.1	SCS215a	20110128.112106	20110128.112856	dt-shadow	8	0.013328	60	10	60-180	60	125	GapExp	0	69	2	45	0	distractor	1	720	640	140577	13.328	13.111	13.576
DTProbeTrack03	18	ProbeTrackDT	1.1	SCS215a	20110128.112106	20110128.112902	dt-shadow	8	0.013328	60	10	60-180	60	147	GapExp	0	70	2	9	1	target	1	760	620	141197	13.328	13.042	13.614
DTProbeTrack03	18	ProbeTrackDT	1.1	SCS215a	20110128.112106	20110128.112908	dt-shadow	8	0.013328	60	10	60-180	60	170	GapExp	0	71	2	45	1	target	1	587	707	141904	13.328	13.306	13.372
DTProbeTrack03	18	ProbeTrackDT	1.1	SCS215a	20110128.112106	20110128.112915	dt-shadow	8	0.013328	60	10	60-180	60	64	GapExp	0	72	2	6	0	distractor	1	720	640	142544	13.328	13.110	13.539
DTProbeTrack03	18	ProbeTrackDT	1.1	SCS215a	20110128.112106	20110128.112920	dt-shadow	8	0.013328	60	10	60-180	60	103	GapExp	0	73	2	1	1	target	1	893	554	143098	13.328	13.207	13.450
DTProbeTrack03	18	ProbeTrackDT	1.1	SCS215a	20110128.112106	20110128.112926	dt-shadow	8	0.013328	60	10	60-180	60	73	GapExp	0	74	2	1	1	target	1	573	714	143812	13.328	12.925	13.785
DTProbeTrack03	18	ProbeTrackDT	1.1	SCS215a	20110128.112106	20110128.112931	dt-shadow	8	0.013328	60	10	60-180	60	142	GapExp	0	75	2	9	0	distractor	1	627	687	144499	13.328	13.095	13.564
DTProbeTrack03	18	ProbeTrackDT	1.1	SCS215a	20110128.112106	20110128.112937	dt-shadow	8	0.013328	60	10	60-180	60	168	GapExp	0	76	2	6	1	target	1	507	747	145246	13.328	13.105	13.546
DTProbeTrack03	18	ProbeTrackDT	1.1	SCS215a	20110128.112106	20110128.112943	dt-shadow	8	0.013328	60	10	60-180	60	126	GapExp	0	77	2	3	1	target	1	574	713	145959	13.328	13.297	13.359
DTProbeTrack03	18	ProbeTrackDT	1.1	SCS215a	20110128.112106	20110128.112949	dt-shadow	8	0.013328	60	10	60-180	60	123	GapExp	0	78	2	3	0	distractor	1	640	680	146639	13.328	12.966	13.691
DTProbeTrack03	18	ProbeTrackDT	1.1	SCS215a	20110128.112106	20110128.112955	dt-shadow	8	0.013328	60	10	60-180	60	112	GapExp	0	79	2	6	1	target	1	667	667	147306	13.328	12.992	13.674
DTProbeTrack03	18	ProbeTrackDT	1.1	SCS215a	20110128.112106	20110128.113000	dt-shadow	8	0.013328	60	10	60-180	60	121	GapExp	0	80	2	1	0	distractor	1	840	580	147886	13.328	12.982	13.660
DTProbeTrack03	18	ProbeTrackDT	1.1	SCS215a	20110128.112106	20110128.113006	dt-shadow	8	0.013328	60	10	60-180	60	125	GapExp	0	81	2	1	0	distractor	1	680	660	148546	13.328	12.845	13.804
DTProbeTrack03	18	ProbeTrackDT	1.1	SCS215a	20110128.112106	20110128.113012	dt-shadow	8	0.013328	60	10	60-180	60	76	GapExp	0	82	2	6	1	target	1	627	687	149233	13.328	12.955	13.693
DTProbeTrack03	18	ProbeTrackDT	1.1	SCS215a	20110128.112106	20110128.113017	dt-shadow	8	0.013328	60	10	60-180	60	125	GapExp	0	83	2	3	0	distractor	1	1320	340	149573	13.328	13.302	13.347
DTProbeTrack03	18	ProbeTrackDT	1.1	SCS215a	20110128.112106	20110128.113023	dt-shadow	8	0.013328	60	10	60-180	60	96	GapExp	0	84	2	6	1	target	1	507	747	150320	13.327	13.131	13.519
DTProbeTrack03	18	ProbeTrackDT	1.1	SCS215a	20110128.112106	20110128.113029	dt-shadow	8	0.013328	60	10	60-180	60	161	GapExp	0	85	2	45	0	distractor	1	613	694	151014	13.328	12.882	13.789
DTProbeTrack03	18	ProbeTrackDT	1.1	SCS215a	20110128.112106	20110128.113035	dt-shadow	8	0.013328	60	10	60-180	60	121	GapExp	0	86	2	9	1	target	1	653	674	151688	13.328	13.019	13.641
DTProbeTrack03	18	ProbeTrackDT	1.1	SCS215a	20110128.112106	20110128.113041	dt-shadow	8	0.013328	60	10	60-180	60	101	GapExp	0	87	2	1	1	target	1	920	540	152228	13.328	12.984	13.656
DTProbeTrack03	18	ProbeTrackDT	1.1	SCS215a	20110128.112106	20110128.113047	dt-shadow	8	0.013328	60	10	60-180	60	173	GapExp	0	88	2	6	1	target	1	760	620	152848	13.328	13.102	13.549
DTProbeTrack03	18	ProbeTrackDT	1.1	SCS215a	20110128.112106	20110128.113053	dt-shadow	8	0.013328	60	10	60-180	60	119	GapExp	0	89	2	9	1	target	1	680	660	153508	13.328	13.088	13.548
DTProbeTrack03	18	ProbeTrackDT	1.1	SCS215a	20110128.112106	20110128.113059	dt-shadow	8	0.013328	60	10	60-180	60	114	GapExp	0	90	2	45	1	target	1	534	733	154241	13.328	13.005	13.649
DTProbeTrack03	18	ProbeTrackDT	1.1	SCS215a	20110128.112106	20110128.113105	dt-shadow	8	0.013328	60	10	60-180	60	89	GapExp	0	91	2	3	1	target	1	573	714	154955	13.328	13.047	13.598
DTProbeTrack03	18	ProbeTrackDT	1.1	SCS215a	20110128.112106	20110128.113110	dt-shadow	8	0.013328	60	10	60-180	60	171	GapExp	0	92	2	3	0	distractor	1	1067	467	155422	13.328	12.869	13.775
DTProbeTrack03	18	ProbeTrackDT	1.1	SCS215a	20110128.112106	20110128.113117	dt-shadow	8	0.013328	60	10	60-180	60	70	GapExp	0	93	2	9	1	target	1	880	560	155982	13.328	13.307	13.349
DTProbeTrack03	18	ProbeTrackDT	1.1	SCS215a	20110128.112106	20110128.113123	dt-shadow	8	0.013328	60	10	60-180	60	134	GapExp	0	94	2	9	1	target	1	613	694	156676	13.328	13.308	13.349
DTProbeTrack03	18	ProbeTrackDT	1.1	SCS215a	20110128.112106	20110128.113128	dt-shadow	8	0.013328	60	10	60-180	60	88	GapExp	0	95	2	3	0	distractor	1	680	660	157336	13.328	13.072	13.575
DTProbeTrack03	18	ProbeTrackDT	1.1	SCS215a	20110128.112106	20110128.113134	dt-shadow	8	0.013328	60	10	60-180	60	95	GapExp	0	96	2	3	1	target	1	600	700	158036	13.328	12.962	13.705
DTProbeTrack03	18	ProbeTrackDT	1.1	SCS215a	20110128.112106	20110128.113139	dt-shadow	8	0.013328	60	10	60-180	60	141	GapExp	0	97	2	1	0	distractor	1	827	587	158623	13.328	13.068	13.599
DTProbeTrack03	18	ProbeTrackDT	1.1	SCS215a	20110128.112106	20110128.113145	dt-shadow	8	0.013328	60	10	60-180	60	170	GapExp	0	98	2	6	0	distractor	1	707	647	159270	13.328	13.301	13.382
DTProbeTrack03	18	ProbeTrackDT	1.1	SCS215a	20110128.112106	20110128.113152	dt-shadow	8	0.013328	60	10	60-180	60	69	GapExp	0	99	2	3	1	target	1	654	673	159943	13.328	13.309	13.348
DTProbeTrack03	18	ProbeTrackDT	1.1	SCS215a	20110128.112106	20110128.113157	dt-shadow	8	0.013328	60	10	60-180	60	126	GapExp	0	100	2	45	0	distractor	1	680	660	160603	13.328	13.114	13.530
DTProbeTrack03	18	ProbeTrackDT	1.1	SCS215a	20110128.112106	20110128.113324	dt-shadow	8	0.013328	60	10	60-180	60	73	GapExp	0	101	2	1	0	distractor	1	1027	487	161090	13.328	13.307	13.359
DTProbeTrack03	18	ProbeTrackDT	1.1	SCS215a	20110128.112106	20110128.113329	dt-shadow	8	0.013328	60	10	60-180	60	92	GapExp	0	102	2	3	0	distractor	1	653	674	161764	13.328	13.150	13.548
DTProbeTrack03	18	ProbeTrackDT	1.1	SCS215a	20110128.112106	20110128.113335	dt-shadow	8	0.013328	60	10	60-180	60	111	GapExp	0	103	2	6	1	target	1	720	640	162404	13.328	12.877	13.780
DTProbeTrack03	18	ProbeTrackDT	1.1	SCS215a	20110128.112106	20110128.113340	dt-shadow	8	0.013328	60	10	60-180	60	175	GapExp	0	104	2	9	0	distractor	1	573	714	163118	13.328	12.971	13.684
DTProbeTrack03	18	ProbeTrackDT	1.1	SCS215a	20110128.112106	20110128.113347	dt-shadow	8	0.013328	60	10	60-180	60	121	GapExp	0	105	2	6	1	target	1	507	747	163865	13.328	12.865	13.796
DTProbeTrack03	18	ProbeTrackDT	1.1	SCS215a	20110128.112106	20110128.113352	dt-shadow	8	0.013328	60	10	60-180	60	127	GapExp	0	106	2	45	1	target	1	653	674	164539	13.328	12.920	13.739
DTProbeTrack03	18	ProbeTrackDT	1.1	SCS215a	20110128.112106	20110128.113359	dt-shadow	8	0.013328	60	10	60-180	60	98	GapExp	0	107	2	9	1	target	1	494	753	165292	13.328	13.255	13.398
DTProbeTrack03	18	ProbeTrackDT	1.1	SCS215a	20110128.112106	20110128.113404	dt-shadow	8	0.013328	60	10	60-180	60	61	GapExp	0	108	2	6	1	target	1	507	747	166039	13.328	13.103	13.601
DTProbeTrack03	18	ProbeTrackDT	1.1	SCS215a	20110128.112106	20110128.113409	dt-shadow	8	0.013328	60	10	60-180	60	122	GapExp	0	109	2	3	0	distractor	1	600	700	166739	13.328	13.309	13.345
DTProbeTrack03	18	ProbeTrackDT	1.1	SCS215a	20110128.112106	20110128.113415	dt-shadow	8	0.013328	60	10	60-180	60	86	GapExp	0	110	2	3	1	target	1	534	733	167472	13.328	12.930	13.725
DTProbeTrack03	18	ProbeTrackDT	1.1	SCS215a	20110128.112106	20110128.113420	dt-shadow	8	0.013328	60	10	60-180	60	126	GapExp	0	111	2	3	1	target	1	507	747	168219	13.328	13.304	13.348
DTProbeTrack03	18	ProbeTrackDT	1.1	SCS215a	20110128.112106	20110128.113425	dt-shadow	8	0.013328	60	10	60-180	60	173	GapExp	0	112	2	1	1	target	1	520	740	168959	13.328	13.309	13.348
DTProbeTrack03	18	ProbeTrackDT	1.1	SCS215a	20110128.112106	20110128.113432	dt-shadow	8	0.013328	60	10	60-180	60	174	GapExp	0	113	2	3	0	distractor	1	560	720	169679	13.328	12.937	13.704
DTProbeTrack03	18	ProbeTrackDT	1.1	SCS215a	20110128.112106	20110128.113438	dt-shadow	8	0.013328	60	10	60-180	60	108	GapExp	0	114	2	45	1	target	1	587	707	170386	13.328	12.971	13.685
DTProbeTrack03	18	ProbeTrackDT	1.1	SCS215a	20110128.112106	20110128.113444	dt-shadow	8	0.013328	60	10	60-180	60	140	GapExp	0	115	2	45	0	distractor	1	587	707	171093	13.328	13.310	13.350
DTProbeTrack03	18	ProbeTrackDT	1.1	SCS215a	20110128.112106	20110128.113451	dt-shadow	8	0.013328	60	10	60-180	60	82	GapExp	0	116	2	1	0	13	-3	813	-1000	170093	13.328	12.984	13.666
DTProbeTrack03	18	ProbeTrackDT	1.1	SCS215a	20110128.112106	20110128.113456	dt-shadow	8	0.013328	60	10	60-180	60	138	GapExp	0	117	2	6	1	target	1	560	720	170813	13.328	13.300	13.346
DTProbeTrack03	18	ProbeTrackDT	1.1	SCS215a	20110128.112106	20110128.113502	dt-shadow	8	0.013328	60	10	60-180	60	71	GapExp	0	118	2	9	0	distractor	1	973	514	171327	13.328	13.306	13.347
DTProbeTrack03	18	ProbeTrackDT	1.1	SCS215a	20110128.112106	20110128.113507	dt-shadow	8	0.013328	60	10	60-180	60	129	GapExp	0	119	2	9	1	target	1	587	707	172034	13.328	13.301	13.348
DTProbeTrack03	18	ProbeTrackDT	1.1	SCS215a	20110128.112106	20110128.113513	dt-shadow	8	0.013328	60	10	60-180	60	152	GapExp	0	120	2	3	0	distractor	1	600	700	172734	13.328	13.107	13.552
DTProbeTrack03	18	ProbeTrackDT	1.1	SCS215a	20110128.112106	20110128.113519	dt-shadow	8	0.013328	60	10	60-180	60	97	GapExp	0	121	2	9	1	target	1	520	740	173474	13.328	13.301	13.344
DTProbeTrack03	18	ProbeTrackDT	1.1	SCS215a	20110128.112106	20110128.113524	dt-shadow	8	0.013328	60	10	60-180	60	82	GapExp	0	122	2	3	1	target	1	547	727	174201	13.328	13.202	13.441
DTProbeTrack03	18	ProbeTrackDT	1.1	SCS215a	20110128.112106	20110128.113530	dt-shadow	8	0.013328	60	10	60-180	60	140	GapExp	0	123	2	9	1	target	1	547	727	174928	13.328	13.307	13.347
DTProbeTrack03	18	ProbeTrackDT	1.1	SCS215a	20110128.112106	20110128.113536	dt-shadow	8	0.013328	60	10	60-180	60	81	GapExp	0	124	2	45	0	distractor	1	667	667	175595	13.328	13.300	13.359
DTProbeTrack03	18	ProbeTrackDT	1.1	SCS215a	20110128.112106	20110128.113541	dt-shadow	8	0.013328	60	10	60-180	60	89	GapExp	0	125	2	1	0	distractor	1	760	620	176215	13.328	13.086	13.570
DTProbeTrack03	18	ProbeTrackDT	1.1	SCS215a	20110128.112106	20110128.113547	dt-shadow	8	0.013328	60	10	60-180	60	128	GapExp	0	126	2	9	1	target	1	600	700	176915	13.328	12.952	13.713
DTProbeTrack03	18	ProbeTrackDT	1.1	SCS215a	20110128.112106	20110128.113552	dt-shadow	8	0.013328	60	10	60-180	60	134	GapExp	0	127	2	6	1	target	1	507	747	177662	13.328	13.308	13.349
DTProbeTrack03	18	ProbeTrackDT	1.1	SCS215a	20110128.112106	20110128.113558	dt-shadow	8	0.013328	60	10	60-180	60	179	GapExp	0	128	2	45	1	target	1	627	687	178349	13.328	12.900	13.746
DTProbeTrack03	18	ProbeTrackDT	1.1	SCS215a	20110128.112106	20110128.113605	dt-shadow	8	0.013328	60	10	60-180	60	78	GapExp	0	129	2	1	1	target	1	640	680	179029	13.328	12.957	13.692
DTProbeTrack03	18	ProbeTrackDT	1.1	SCS215a	20110128.112106	20110128.113610	dt-shadow	8	0.013328	60	10	60-180	60	169	GapExp	0	130	2	3	1	target	1	600	700	179729	13.328	12.887	13.753
DTProbeTrack03	18	ProbeTrackDT	1.1	SCS215a	20110128.112106	20110128.113617	dt-shadow	8	0.013328	60	10	60-180	60	70	GapExp	0	131	2	6	0	target	0	574	-1000	178729	13.328	13.114	13.562
DTProbeTrack03	18	ProbeTrackDT	1.1	SCS215a	20110128.112106	20110128.113622	dt-shadow	8	0.013328	60	10	60-180	60	177	GapExp	0	132	2	45	0	distractor	1	627	687	179416	13.328	13.308	13.347
DTProbeTrack03	18	ProbeTrackDT	1.1	SCS215a	20110128.112106	20110128.113629	dt-shadow	8	0.013328	60	10	60-180	60	88	GapExp	0	133	2	45	1	target	1	533	734	180150	13.328	13.103	13.543
DTProbeTrack03	18	ProbeTrackDT	1.1	SCS215a	20110128.112106	20110128.113634	dt-shadow	8	0.013328	60	10	60-180	60	94	GapExp	0	134	2	6	1	distractor	0	587	-1000	179150	13.328	13.286	13.376
DTProbeTrack03	18	ProbeTrackDT	1.1	SCS215a	20110128.112106	20110128.113640	dt-shadow	8	0.013328	60	10	60-180	60	99	GapExp	0	135	2	45	0	distractor	1	627	687	179837	13.328	13.137	13.521
DTProbeTrack03	18	ProbeTrackDT	1.1	SCS215a	20110128.112106	20110128.113646	dt-shadow	8	0.013328	60	10	60-180	60	102	GapExp	0	136	2	45	1	target	1	520	740	180577	13.328	13.308	13.350
DTProbeTrack03	18	ProbeTrackDT	1.1	SCS215a	20110128.112106	20110128.113652	dt-shadow	8	0.013328	60	10	60-180	60	107	GapExp	0	137	2	1	0	distractor	1	747	627	181204	13.328	13.103	13.559
DTProbeTrack03	18	ProbeTrackDT	1.1	SCS215a	20110128.112106	20110128.113657	dt-shadow	8	0.013328	60	10	60-180	60	106	GapExp	0	138	2	9	1	target	1	1027	487	181691	13.328	13.299	13.371
DTProbeTrack03	18	ProbeTrackDT	1.1	SCS215a	20110128.112106	20110128.113703	dt-shadow	8	0.013328	60	10	60-180	60	123	GapExp	0	139	2	3	0	distractor	1	800	600	182291	13.328	13.097	13.544
DTProbeTrack03	18	ProbeTrackDT	1.1	SCS215a	20110128.112106	20110128.113709	dt-shadow	8	0.013328	60	10	60-180	60	90	GapExp	0	140	2	9	1	target	1	693	654	182945	13.328	12.886	13.766
DTProbeTrack03	18	ProbeTrackDT	1.1	SCS215a	20110128.112106	20110128.113714	dt-shadow	8	0.013328	60	10	60-180	60	168	GapExp	0	141	2	6	1	target	1	760	620	183565	13.411	12.856	40.066
DTProbeTrack03	18	ProbeTrackDT	1.1	SCS215a	20110128.112106	20110128.113721	dt-shadow	8	0.013328	60	10	60-180	60	143	GapExp	0	142	2	9	1	target	1	613	694	184259	13.328	12.905	13.765
DTProbeTrack03	18	ProbeTrackDT	1.1	SCS215a	20110128.112106	20110128.113727	dt-shadow	8	0.013328	60	10	60-180	60	143	GapExp	0	143	2	1	1	target	1	600	700	184959	13.328	13.093	13.676
DTProbeTrack03	18	ProbeTrackDT	1.1	SCS215a	20110128.112106	20110128.113733	dt-shadow	8	0.013328	60	10	60-180	60	128	GapExp	0	144	2	9	1	target	1	574	713	185672	13.328	13.307	13.347
DTProbeTrack03	18	ProbeTrackDT	1.1	SCS215a	20110128.112106	20110128.113739	dt-shadow	8	0.013328	60	10	60-180	60	172	GapExp	0	145	2	3	1	target	1	547	727	186399	13.328	13.094	13.549
DTProbeTrack03	18	ProbeTrackDT	1.1	SCS215a	20110128.112106	20110128.113745	dt-shadow	8	0.013328	60	10	60-180	60	116	GapExp	0	146	2	45	0	target	0	667	-1000	185399	13.328	12.870	13.789
DTProbeTrack03	18	ProbeTrackDT	1.1	SCS215a	20110128.112106	20110128.113751	dt-shadow	8	0.013328	60	10	60-180	60	101	GapExp	0	147	2	1	0	distractor	1	733	634	186033	13.328	13.303	13.361
DTProbeTrack03	18	ProbeTrackDT	1.1	SCS215a	20110128.112106	20110128.113757	dt-shadow	8	0.013328	60	10	60-180	60	163	GapExp	0	148	2	45	0	distractor	1	800	600	186633	13.328	12.951	13.693
DTProbeTrack03	18	ProbeTrackDT	1.1	SCS215a	20110128.112106	20110128.113804	dt-shadow	8	0.013328	60	10	60-180	60	176	GapExp	0	149	2	6	0	target	0	1040	-1000	185633	13.328	13.307	13.349
DTProbeTrack03	18	ProbeTrackDT	1.1	SCS215a	20110128.112106	20110128.113810	dt-shadow	8	0.013328	60	10	60-180	60	89	GapExp	0	150	2	9	1	target	1	693	654	186287	13.328	13.308	13.347
DTProbeTrack03	18	ProbeTrackDT	1.1	SCS215a	20110128.112106	20110128.113858	dt-shadow	8	0.013328	60	10	60-180	60	162	GapExp	0	151	2	45	1	target	1	560	720	187007	13.328	13.119	13.546
DTProbeTrack03	18	ProbeTrackDT	1.1	SCS215a	20110128.112106	20110128.113905	dt-shadow	8	0.013328	60	10	60-180	60	166	GapExp	0	152	2	3	1	target	1	494	753	187760	13.328	13.090	13.555
DTProbeTrack03	18	ProbeTrackDT	1.1	SCS215a	20110128.112106	20110128.113911	dt-shadow	8	0.013328	60	10	60-180	60	177	GapExp	0	153	2	6	1	target	1	640	680	188440	13.328	13.308	13.348
DTProbeTrack03	18	ProbeTrackDT	1.1	SCS215a	20110128.112106	20110128.113917	dt-shadow	8	0.013328	60	10	60-180	60	64	GapExp	0	154	2	9	0	83	-3	587	-1000	187440	13.328	13.100	13.552
DTProbeTrack03	18	ProbeTrackDT	1.1	SCS215a	20110128.112106	20110128.113922	dt-shadow	8	0.013328	60	10	60-180	60	180	GapExp	0	155	2	45	0	distractor	1	787	607	188047	13.328	13.103	13.552
DTProbeTrack03	18	ProbeTrackDT	1.1	SCS215a	20110128.112106	20110128.113930	dt-shadow	8	0.013328	60	10	60-180	60	74	GapExp	0	156	2	45	0	distractor	1	653	674	188721	13.327	13.308	13.347
DTProbeTrack03	18	ProbeTrackDT	1.1	SCS215a	20110128.112106	20110128.113935	dt-shadow	8	0.013328	60	10	60-180	60	76	GapExp	0	157	2	9	0	distractor	1	614	693	189414	13.328	13.307	13.349
DTProbeTrack03	18	ProbeTrackDT	1.1	SCS215a	20110128.112106	20110128.113940	dt-shadow	8	0.013328	60	10	60-180	60	180	GapExp	0	158	2	6	0	distractor	1	707	647	190061	13.328	13.310	13.347
DTProbeTrack03	18	ProbeTrackDT	1.1	SCS215a	20110128.112106	20110128.113947	dt-shadow	8	0.013328	60	10	60-180	60	101	GapExp	0	159	2	6	0	distractor	1	720	640	190701	13.328	13.304	13.355
DTProbeTrack03	18	ProbeTrackDT	1.1	SCS215a	20110128.112106	20110128.113952	dt-shadow	8	0.013328	60	10	60-180	60	131	GapExp	0	160	2	6	0	distractor	1	627	687	191388	13.328	13.101	13.556
DTProbeTrack03	18	ProbeTrackDT	1.1	SCS215a	20110128.112106	20110128.113958	dt-shadow	8	0.013328	60	10	60-180	60	142	GapExp	0	161	2	6	1	distractor	0	667	-1000	190388	13.328	12.952	13.713
DTProbeTrack03	18	ProbeTrackDT	1.1	SCS215a	20110128.112106	20110128.114004	dt-shadow	8	0.013328	60	10	60-180	60	124	GapExp	0	162	2	45	1	target	1	760	620	191008	13.328	12.900	13.763
DTProbeTrack03	18	ProbeTrackDT	1.1	SCS215a	20110128.112106	20110128.114011	dt-shadow	8	0.013328	60	10	60-180	60	66	GapExp	0	163	2	1	1	target	1	640	680	191688	13.328	12.882	13.779
DTProbeTrack03	18	ProbeTrackDT	1.1	SCS215a	20110128.112106	20110128.114016	dt-shadow	8	0.013328	60	10	60-180	60	80	GapExp	0	164	2	3	1	target	1	627	687	192375	13.328	13.307	13.347
DTProbeTrack03	18	ProbeTrackDT	1.1	SCS215a	20110128.112106	20110128.114021	dt-shadow	8	0.013328	60	10	60-180	60	160	GapExp	0	165	2	9	0	target	0	960	-1000	191375	13.328	13.085	13.558
DTProbeTrack03	18	ProbeTrackDT	1.1	SCS215a	20110128.112106	20110128.114027	dt-shadow	8	0.013328	60	10	60-180	60	151	GapExp	0	166	2	6	0	distractor	1	654	673	192048	13.328	13.106	13.551
DTProbeTrack03	18	ProbeTrackDT	1.1	SCS215a	20110128.112106	20110128.114033	dt-shadow	8	0.013328	60	10	60-180	60	131	GapExp	0	167	2	9	0	target	0	707	-1000	191048	13.328	13.106	13.554
DTProbeTrack03	18	ProbeTrackDT	1.1	SCS215a	20110128.112106	20110128.114039	dt-shadow	8	0.013328	60	10	60-180	60	100	GapExp	0	168	2	9	0	distractor	1	1200	400	191448	13.328	13.299	13.350
DTProbeTrack03	18	ProbeTrackDT	1.1	SCS215a	20110128.112106	20110128.114045	dt-shadow	8	0.013328	60	10	60-180	60	77	GapExp	0	169	2	1	0	target	0	893	-1000	190448	13.328	13.307	13.344
DTProbeTrack03	18	ProbeTrackDT	1.1	SCS215a	20110128.112106	20110128.114051	dt-shadow	8	0.013328	60	10	60-180	60	157	GapExp	0	170	2	1	0	distractor	1	600	700	191148	13.328	13.308	13.350
DTProbeTrack03	18	ProbeTrackDT	1.1	SCS215a	20110128.112106	20110128.114057	dt-shadow	8	0.013328	60	10	60-180	60	123	GapExp	0	171	2	3	1	target	1	773	614	191762	13.328	13.094	13.561
DTProbeTrack03	18	ProbeTrackDT	1.1	SCS215a	20110128.112106	20110128.114103	dt-shadow	8	0.013328	60	10	60-180	60	117	GapExp	0	172	2	6	0	distractor	1	640	680	192442	13.328	13.110	13.544
DTProbeTrack03	18	ProbeTrackDT	1.1	SCS215a	20110128.112106	20110128.114108	dt-shadow	8	0.013328	60	10	60-180	60	180	GapExp	0	173	2	9	0	distractor	1	1000	500	192942	13.328	12.881	13.764
DTProbeTrack03	18	ProbeTrackDT	1.1	SCS215a	20110128.112106	20110128.114115	dt-shadow	8	0.013328	60	10	60-180	60	153	GapExp	0	174	2	6	1	target	1	733	634	193576	13.328	13.099	13.554
DTProbeTrack03	18	ProbeTrackDT	1.1	SCS215a	20110128.112106	20110128.114122	dt-shadow	8	0.013328	60	10	60-180	60	165	GapExp	0	175	2	6	0	distractor	1	720	640	194216	13.328	13.289	13.352
DTProbeTrack03	18	ProbeTrackDT	1.1	SCS215a	20110128.112106	20110128.114128	dt-shadow	8	0.013328	60	10	60-180	60	114	GapExp	0	176	2	1	0	distractor	1	680	660	194876	13.328	13.310	13.347
DTProbeTrack03	18	ProbeTrackDT	1.1	SCS215a	20110128.112106	20110128.114134	dt-shadow	8	0.013328	60	10	60-180	60	69	GapExp	0	177	2	45	1	target	1	600	700	195576	13.328	13.306	13.347
DTProbeTrack03	18	ProbeTrackDT	1.1	SCS215a	20110128.112106	20110128.114139	dt-shadow	8	0.013328	60	10	60-180	60	99	GapExp	0	178	2	3	1	target	1	773	614	196190	13.328	13.094	13.556
DTProbeTrack03	18	ProbeTrackDT	1.1	SCS215a	20110128.112106	20110128.114145	dt-shadow	8	0.013328	60	10	60-180	60	94	GapExp	0	179	2	3	0	distractor	1	627	687	196877	13.328	12.857	13.805
DTProbeTrack03	18	ProbeTrackDT	1.1	SCS215a	20110128.112106	20110128.114150	dt-shadow	8	0.013328	60	10	60-180	60	84	GapExp	0	180	2	3	0	distractor	1	1173	414	197291	13.328	12.931	13.740
DTProbeTrack03	18	ProbeTrackDT	1.1	SCS215a	20110128.112106	20110128.114156	dt-shadow	8	0.013328	60	10	60-180	60	152	GapExp	0	181	2	1	1	target	1	800	600	197891	13.328	13.308	13.348
DTProbeTrack03	18	ProbeTrackDT	1.1	SCS215a	20110128.112106	20110128.114202	dt-shadow	8	0.013328	60	10	60-180	60	76	GapExp	0	182	2	6	1	target	1	640	680	198571	13.328	13.290	13.366
DTProbeTrack03	18	ProbeTrackDT	1.1	SCS215a	20110128.112106	20110128.114207	dt-shadow	8	0.013328	60	10	60-180	60	119	GapExp	0	183	2	3	1	target	1	600	700	199271	13.328	13.093	13.556
DTProbeTrack03	18	ProbeTrackDT	1.1	SCS215a	20110128.112106	20110128.114213	dt-shadow	8	0.013328	60	10	60-180	60	166	GapExp	0	184	2	45	1	target	1	627	687	199958	13.328	13.098	13.554
DTProbeTrack03	18	ProbeTrackDT	1.1	SCS215a	20110128.112106	20110128.114220	dt-shadow	8	0.013328	60	10	60-180	60	123	GapExp	0	185	2	1	1	target	1	614	693	200651	13.328	12.977	13.671
DTProbeTrack03	18	ProbeTrackDT	1.1	SCS215a	20110128.112106	20110128.114225	dt-shadow	8	0.013328	60	10	60-180	60	177	GapExp	0	186	2	3	0	distractor	1	693	654	201305	13.328	12.967	13.676
DTProbeTrack03	18	ProbeTrackDT	1.1	SCS215a	20110128.112106	20110128.114232	dt-shadow	8	0.013328	60	10	60-180	60	165	GapExp	0	187	2	1	0	distractor	1	907	547	201852	13.328	12.968	13.682
DTProbeTrack03	18	ProbeTrackDT	1.1	SCS215a	20110128.112106	20110128.114238	dt-shadow	8	0.013328	60	10	60-180	60	105	GapExp	0	188	2	1	1	target	1	707	647	202499	13.328	13.308	13.348
DTProbeTrack03	18	ProbeTrackDT	1.1	SCS215a	20110128.112106	20110128.114244	dt-shadow	8	0.013328	60	10	60-180	60	125	GapExp	0	189	2	1	1	target	1	547	727	203226	13.328	13.301	13.345
DTProbeTrack03	18	ProbeTrackDT	1.1	SCS215a	20110128.112106	20110128.114249	dt-shadow	8	0.013328	60	10	60-180	60	103	GapExp	0	190	2	9	0	distractor	1	573	714	203940	13.328	13.308	13.349
DTProbeTrack03	18	ProbeTrackDT	1.1	SCS215a	20110128.112106	20110128.114255	dt-shadow	8	0.013328	60	10	60-180	60	147	GapExp	0	191	2	6	0	distractor	1	707	647	204587	13.328	12.860	13.790
DTProbeTrack03	18	ProbeTrackDT	1.1	SCS215a	20110128.112106	20110128.114301	dt-shadow	8	0.013328	60	10	60-180	60	166	GapExp	0	192	2	9	0	distractor	1	627	687	205274	13.328	13.032	13.611
DTProbeTrack03	18	ProbeTrackDT	1.1	SCS215a	20110128.112106	20110128.114307	dt-shadow	8	0.013328	60	10	60-180	60	145	GapExp	0	193	2	6	0	distractor	1	627	687	205961	13.328	13.095	13.559
DTProbeTrack03	18	ProbeTrackDT	1.1	SCS215a	20110128.112106	20110128.114313	dt-shadow	8	0.013328	60	10	60-180	60	91	GapExp	0	194	2	3	1	distractor	0	774	-1000	204961	13.328	13.005	13.652
DTProbeTrack03	18	ProbeTrackDT	1.1	SCS215a	20110128.112106	20110128.114319	dt-shadow	8	0.013328	60	10	60-180	60	157	GapExp	0	195	2	9	1	target	1	613	694	205655	13.328	12.966	13.697
DTProbeTrack03	18	ProbeTrackDT	1.1	SCS215a	20110128.112106	20110128.114325	dt-shadow	8	0.013328	60	10	60-180	60	141	GapExp	0	196	2	6	0	distractor	1	800	600	206255	13.328	12.984	13.658
DTProbeTrack03	18	ProbeTrackDT	1.1	SCS215a	20110128.112106	20110128.114331	dt-shadow	8	0.013328	60	10	60-180	60	91	GapExp	0	197	2	3	0	distractor	1	867	567	206822	13.328	13.101	13.564
DTProbeTrack03	18	ProbeTrackDT	1.1	SCS215a	20110128.112106	20110128.114337	dt-shadow	8	0.013328	60	10	60-180	60	62	GapExp	0	198	2	9	0	target	0	680	-1000	205822	13.328	13.309	13.350
DTProbeTrack03	18	ProbeTrackDT	1.1	SCS215a	20110128.112106	20110128.114342	dt-shadow	8	0.013328	60	10	60-180	60	113	GapExp	0	199	2	45	0	distractor	1	720	640	206462	13.328	13.091	13.559
DTProbeTrack03	18	ProbeTrackDT	1.1	SCS215a	20110128.112106	20110128.114348	dt-shadow	8	0.013328	60	10	60-180	60	105	GapExp	0	200	2	45	1	target	1	534	733	207195	13.328	13.102	13.538
DTProbeTrack03	18	ProbeTrackDT	1.1	SCS215a	20110128.112106	20110128.114359	dt-shadow	8	0.013328	60	10	60-180	60	95	GapExp	0	201	2	3	0	distractor	1	840	580	207775	13.328	13.300	13.348
DTProbeTrack03	18	ProbeTrackDT	1.1	SCS215a	20110128.112106	20110128.114405	dt-shadow	8	0.013328	60	10	60-180	60	79	GapExp	0	202	2	3	1	target	1	613	694	208469	13.328	12.866	13.802
DTProbeTrack03	18	ProbeTrackDT	1.1	SCS215a	20110128.112106	20110128.114410	dt-shadow	8	0.013328	60	10	60-180	60	112	GapExp	0	203	2	9	0	distractor	1	600	700	209169	13.328	13.310	13.345
DTProbeTrack03	18	ProbeTrackDT	1.1	SCS215a	20110128.112106	20110128.114416	dt-shadow	8	0.013328	60	10	60-180	60	89	GapExp	0	204	2	6	1	target	1	614	693	209862	13.328	13.308	13.344
DTProbeTrack03	18	ProbeTrackDT	1.1	SCS215a	20110128.112106	20110128.114421	dt-shadow	8	0.013328	60	10	60-180	60	111	GapExp	0	205	2	9	1	target	1	707	647	210509	13.328	13.302	13.348
DTProbeTrack03	18	ProbeTrackDT	1.1	SCS215a	20110128.114513	20110128.114531	single-task	8	0.013327	60	10	60-180	60	120	GapPrac	1	1	2	6	0	distractor	1	720	640	211149	13.328	13.301	13.343
DTProbeTrack03	18	ProbeTrackDT	1.1	SCS215a	20110128.114513	20110128.114537	single-task	8	0.013327	60	10	60-180	60	177	GapPrac	1	2	2	9	1	distractor	0	853	-1000	210149	13.328	12.863	13.794
DTProbeTrack03	18	ProbeTrackDT	1.1	SCS215a	20110128.114513	20110128.114544	single-task	8	0.013327	60	10	60-180	60	81	GapPrac	1	3	2	3	0	distractor	1	667	667	210816	13.328	12.876	13.781
DTProbeTrack03	18	ProbeTrackDT	1.1	SCS215a	20110128.114513	20110128.114549	single-task	8	0.013327	60	10	60-180	60	163	GapPrac	1	4	2	1	0	target	0	494	-1000	209816	13.328	12.872	13.725
DTProbeTrack03	18	ProbeTrackDT	1.1	SCS215a	20110128.114513	20110128.114555	single-task	8	0.013327	60	10	60-180	60	132	GapPrac	1	5	2	6	1	target	1	720	640	210456	13.328	12.861	13.799
DTProbeTrack03	18	ProbeTrackDT	1.1	SCS215a	20110128.114513	20110128.114601	single-task	8	0.013327	60	10	60-180	60	100	GapPrac	1	6	2	1	1	target	1	693	654	211110	13.328	12.927	13.737
DTProbeTrack03	18	ProbeTrackDT	1.1	SCS215a	20110128.114513	20110128.114606	single-task	8	0.013327	60	10	60-180	60	166	GapPrac	1	7	2	3	1	target	1	520	740	211850	13.328	13.114	13.517
DTProbeTrack03	18	ProbeTrackDT	1.1	SCS215a	20110128.114513	20110128.114612	single-task	8	0.013327	60	10	60-180	60	75	GapPrac	1	8	2	9	1	target	1	787	607	212457	13.328	13.309	13.345
DTProbeTrack03	18	ProbeTrackDT	1.1	SCS215a	20110128.114513	20110128.114618	single-task	8	0.013327	60	10	60-180	60	89	GapPrac	1	9	2	45	1	target	1	667	667	213124	13.328	12.872	13.773
DTProbeTrack03	18	ProbeTrackDT	1.1	SCS215a	20110128.114513	20110128.114624	single-task	8	0.013327	60	10	60-180	60	69	GapPrac	1	10	2	45	1	target	1	560	720	213844	13.328	13.297	13.347
DTProbeTrack03	18	ProbeTrackDT	1.1	SCS215a	20110128.114513	20110128.114629	single-task	8	0.013327	60	10	60-180	60	158	GapPrac	1	11	2	45	0	distractor	1	720	640	214484	13.328	12.875	13.765
DTProbeTrack03	18	ProbeTrackDT	1.1	SCS215a	20110128.114513	20110128.114636	single-task	8	0.013327	60	10	60-180	60	76	GapPrac	1	12	2	3	1	target	1	653	674	215158	13.328	12.889	13.760
DTProbeTrack03	18	ProbeTrackDT	1.1	SCS215a	20110128.114513	20110128.114641	single-task	8	0.013327	60	10	60-180	60	164	GapPrac	1	13	2	3	0	distractor	1	787	607	215765	13.328	13.293	13.346
DTProbeTrack03	18	ProbeTrackDT	1.1	SCS215a	20110128.114513	20110128.114647	single-task	8	0.013327	60	10	60-180	60	174	GapPrac	1	14	2	1	1	target	1	587	707	216472	13.328	12.995	13.653
DTProbeTrack03	18	ProbeTrackDT	1.1	SCS215a	20110128.114513	20110128.114654	single-task	8	0.013327	60	10	60-180	60	130	GapPrac	1	15	2	6	0	distractor	1	653	674	217146	13.328	12.919	13.742
DTProbeTrack03	18	ProbeTrackDT	1.1	SCS215a	20110128.114513	20110128.114700	single-task	8	0.013327	60	10	60-180	60	64	GapPrac	1	16	2	1	0	target	0	627	-1000	216146	13.328	13.087	13.564
DTProbeTrack03	18	ProbeTrackDT	1.1	SCS215a	20110128.114513	20110128.114704	single-task	8	0.013327	60	10	60-180	60	64	GapPrac	1	17	2	45	0	distractor	1	973	514	216660	13.328	12.882	13.774
DTProbeTrack03	18	ProbeTrackDT	1.1	SCS215a	20110128.114513	20110128.114710	single-task	8	0.013327	60	10	60-180	60	110	GapPrac	1	18	2	6	1	target	1	627	687	217347	13.328	12.989	13.668
DTProbeTrack03	18	ProbeTrackDT	1.1	SCS215a	20110128.114513	20110128.114716	single-task	8	0.013327	60	10	60-180	60	164	GapPrac	1	19	2	9	0	distractor	1	613	694	218041	13.328	13.026	13.629
DTProbeTrack03	18	ProbeTrackDT	1.1	SCS215a	20110128.114513	20110128.114722	single-task	8	0.013327	60	10	60-180	60	172	GapPrac	1	20	2	9	0	distractor	1	893	554	218595	13.328	13.090	13.561
DTProbeTrack03	18	ProbeTrackDT	1.1	SCS215a	20110128.114754	20110128.114808	single-task	8	0.013327	60	10	60-180	60	142	GapExp	1	1	2	45	1	target	1	667	667	219262	13.328	13.098	13.561
DTProbeTrack03	18	ProbeTrackDT	1.1	SCS215a	20110128.114754	20110128.114815	single-task	8	0.013327	60	10	60-180	60	111	GapExp	1	2	2	6	1	target	1	680	660	219922	13.328	13.118	13.551
DTProbeTrack03	18	ProbeTrackDT	1.1	SCS215a	20110128.114754	20110128.114821	single-task	8	0.013327	60	10	60-180	60	70	GapExp	1	3	2	6	0	distractor	1	560	720	220642	13.328	13.168	13.490
DTProbeTrack03	18	ProbeTrackDT	1.1	SCS215a	20110128.114754	20110128.114826	single-task	8	0.013327	60	10	60-180	60	127	GapExp	1	4	2	45	0	distractor	1	587	707	221349	13.328	12.862	13.785
DTProbeTrack03	18	ProbeTrackDT	1.1	SCS215a	20110128.114754	20110128.114832	single-task	8	0.013327	60	10	60-180	60	97	GapExp	1	5	2	3	0	distractor	1	1493	254	221603	13.328	12.882	13.781
DTProbeTrack03	18	ProbeTrackDT	1.1	SCS215a	20110128.114754	20110128.114838	single-task	8	0.013327	60	10	60-180	60	173	GapExp	0	6	2	3	0	target	0	653	-1000	220603	13.328	13.083	13.565
DTProbeTrack03	18	ProbeTrackDT	1.1	SCS215a	20110128.114754	20110128.114844	single-task	8	0.013327	60	10	60-180	60	104	GapExp	0	7	2	6	1	target	1	627	687	221290	13.328	12.958	13.706
DTProbeTrack03	18	ProbeTrackDT	1.1	SCS215a	20110128.114754	20110128.114850	single-task	8	0.013327	60	10	60-180	60	147	GapExp	0	8	2	45	1	distractor	0	534	-1000	220290	13.328	13.101	13.541
DTProbeTrack03	18	ProbeTrackDT	1.1	SCS215a	20110128.114754	20110128.114856	single-task	8	0.013327	60	10	60-180	60	94	GapExp	0	9	2	3	1	target	1	653	674	220964	13.328	13.290	13.359
DTProbeTrack03	18	ProbeTrackDT	1.1	SCS215a	20110128.114754	20110128.114902	single-task	8	0.013327	60	10	60-180	60	153	GapExp	0	10	2	1	0	distractor	1	640	680	221644	13.328	13.061	13.588
DTProbeTrack03	18	ProbeTrackDT	1.1	SCS215a	20110128.114754	20110128.114908	single-task	8	0.013327	60	10	60-180	60	75	GapExp	0	11	2	6	0	distractor	1	921	540	222184	13.328	12.986	13.688
DTProbeTrack03	18	ProbeTrackDT	1.1	SCS215a	20110128.114754	20110128.114913	single-task	8	0.013327	60	10	60-180	60	136	GapExp	0	12	2	1	1	distractor	0	1133	-1000	221184	13.328	12.921	13.726
DTProbeTrack03	18	ProbeTrackDT	1.1	SCS215a	20110128.114754	20110128.114919	single-task	8	0.013327	60	10	60-180	60	136	GapExp	0	13	2	3	1	target	1	600	700	221884	13.328	12.986	13.678
DTProbeTrack03	18	ProbeTrackDT	1.1	SCS215a	20110128.114754	20110128.114925	single-task	8	0.013327	60	10	60-180	60	90	GapExp	0	14	2	3	0	distractor	1	733	634	222518	13.328	12.892	13.770
DTProbeTrack03	18	ProbeTrackDT	1.1	SCS215a	20110128.114754	20110128.114931	single-task	8	0.013327	60	10	60-180	60	129	GapExp	0	15	2	45	0	distractor	1	720	640	223158	13.328	13.019	13.637
DTProbeTrack03	18	ProbeTrackDT	1.1	SCS215a	20110128.114754	20110128.114937	single-task	8	0.013327	60	10	60-180	60	178	GapExp	0	16	2	45	1	target	1	707	647	223805	13.328	13.105	13.598
DTProbeTrack03	18	ProbeTrackDT	1.1	SCS215a	20110128.114754	20110128.114944	single-task	8	0.013327	60	10	60-180	60	75	GapExp	0	17	2	1	0	distractor	1	947	527	224332	13.388	12.880	26.899
DTProbeTrack03	18	ProbeTrackDT	1.1	SCS215a	20110128.114754	20110128.114950	single-task	8	0.013327	60	10	60-180	60	69	GapExp	0	18	2	45	0	distractor	1	853	574	224906	13.379	12.981	26.736
DTProbeTrack03	18	ProbeTrackDT	1.1	SCS215a	20110128.114754	20110128.114955	single-task	8	0.013327	60	10	60-180	60	88	GapExp	0	19	2	45	1	distractor	0	893	-1000	223906	13.328	12.851	13.790
DTProbeTrack03	18	ProbeTrackDT	1.1	SCS215a	20110128.114754	20110128.115001	single-task	8	0.013327	60	10	60-180	60	168	GapExp	0	20	2	1	1	target	1	520	740	224646	13.328	13.093	13.569
DTProbeTrack03	18	ProbeTrackDT	1.1	SCS215a	20110128.114754	20110128.115008	single-task	8	0.013327	60	10	60-180	60	153	GapExp	0	21	2	9	0	distractor	1	773	614	225260	13.328	13.042	13.608
DTProbeTrack03	18	ProbeTrackDT	1.1	SCS215a	20110128.114754	20110128.115014	single-task	8	0.013327	60	10	60-180	60	72	GapExp	0	22	2	1	1	target	1	587	707	225967	13.328	13.005	13.657
DTProbeTrack03	18	ProbeTrackDT	1.1	SCS215a	20110128.114754	20110128.115019	single-task	8	0.013327	60	10	60-180	60	170	GapExp	0	23	2	3	1	target	1	560	720	226687	13.328	12.936	13.706
DTProbeTrack03	18	ProbeTrackDT	1.1	SCS215a	20110128.114754	20110128.115025	single-task	8	0.013327	60	10	60-180	60	132	GapExp	0	24	2	6	1	target	1	613	694	227381	13.328	12.907	13.749
DTProbeTrack03	18	ProbeTrackDT	1.1	SCS215a	20110128.114754	20110128.115031	single-task	8	0.013327	60	10	60-180	60	85	GapExp	0	25	2	1	1	target	1	520	740	228121	13.328	13.001	13.747
DTProbeTrack03	18	ProbeTrackDT	1.1	SCS215a	20110128.114754	20110128.115036	single-task	8	0.013327	60	10	60-180	60	155	GapExp	0	26	2	3	0	distractor	1	653	674	228795	13.328	13.097	13.553
DTProbeTrack03	18	ProbeTrackDT	1.1	SCS215a	20110128.114754	20110128.115042	single-task	8	0.013327	60	10	60-180	60	123	GapExp	0	27	2	3	1	target	1	534	733	229528	13.328	12.961	13.689
DTProbeTrack03	18	ProbeTrackDT	1.1	SCS215a	20110128.114754	20110128.115048	single-task	8	0.013327	60	10	60-180	60	132	GapExp	0	28	2	45	1	target	1	520	740	230268	13.328	12.855	13.723
DTProbeTrack03	18	ProbeTrackDT	1.1	SCS215a	20110128.114754	20110128.115054	single-task	8	0.013327	60	10	60-180	60	164	GapExp	0	29	2	3	0	distractor	1	573	714	230982	13.328	13.308	13.357
DTProbeTrack03	18	ProbeTrackDT	1.1	SCS215a	20110128.114754	20110128.115100	single-task	8	0.013327	60	10	60-180	60	98	GapExp	0	30	2	6	0	distractor	1	667	667	231649	13.328	13.212	13.448
DTProbeTrack03	18	ProbeTrackDT	1.1	SCS215a	20110128.114754	20110128.115106	single-task	8	0.013327	60	10	60-180	60	71	GapExp	0	31	2	45	1	target	1	653	674	232323	13.328	13.062	13.604
DTProbeTrack03	18	ProbeTrackDT	1.1	SCS215a	20110128.114754	20110128.115112	single-task	8	0.013327	60	10	60-180	60	126	GapExp	0	32	2	9	1	distractor	0	1720	-1000	231323	13.328	13.101	13.551
DTProbeTrack03	18	ProbeTrackDT	1.1	SCS215a	20110128.114754	20110128.115118	single-task	8	0.013327	60	10	60-180	60	62	GapExp	0	33	2	45	1	target	1	560	720	232043	13.328	13.014	13.643
DTProbeTrack03	18	ProbeTrackDT	1.1	SCS215a	20110128.114754	20110128.115124	single-task	8	0.013327	60	10	60-180	60	175	GapExp	0	34	2	6	1	target	1	547	727	232770	13.328	13.092	13.552
DTProbeTrack03	18	ProbeTrackDT	1.1	SCS215a	20110128.114754	20110128.115130	single-task	8	0.013327	60	10	60-180	60	141	GapExp	0	35	2	6	0	distractor	1	560	720	233490	13.328	13.053	13.591
DTProbeTrack03	18	ProbeTrackDT	1.1	SCS215a	20110128.114754	20110128.115136	single-task	8	0.013327	60	10	60-180	60	61	GapExp	0	36	2	45	1	target	1	840	580	234070	13.328	12.937	13.726
DTProbeTrack03	18	ProbeTrackDT	1.1	SCS215a	20110128.114754	20110128.115142	single-task	8	0.013327	60	10	60-180	60	117	GapExp	0	37	2	45	1	target	1	813	594	234664	13.328	12.998	13.652
DTProbeTrack03	18	ProbeTrackDT	1.1	SCS215a	20110128.114754	20110128.115148	single-task	8	0.013327	60	10	60-180	60	92	GapExp	0	38	2	9	0	distractor	1	573	714	235378	13.328	13.100	13.568
