exp	sub	code	rev	comp	runtime	trialtime	stdt	nstim	refreshdur	cuedur	gapdur	gapOnsetRange	durPostProbe	gapOnsetTime	blocktype	prac	trial	ntargets	soa	probeTarget	resp	acc	rt	pts	tpts	meanFrameDur	minFrameDur	maxFrameDur
DTProbeTrack03	4	ProbeTrackDT	1.1	SCS215a	20101101.085508	20101101.085526	single-task	8	0.013343	60	0	60-180	60	131	NoGap	1	1	2	9	1	target	1	3372	0	0	13.473	12.895	40.058
DTProbeTrack03	4	ProbeTrackDT	1.1	SCS215a	20101101.085508	20101101.085534	single-task	8	0.013343	60	0	60-180	60	178	NoGap	1	2	2	3	0	target	0	1200	-1000	-1000	13.412	13.081	39.973
DTProbeTrack03	4	ProbeTrackDT	1.1	SCS215a	20101101.085508	20101101.085541	single-task	8	0.013343	60	0	60-180	60	82	NoGap	1	3	2	3	1	target	1	1133	434	-566	13.388	12.911	26.972
DTProbeTrack03	4	ProbeTrackDT	1.1	SCS215a	20101101.085508	20101101.085547	single-task	8	0.013343	60	0	60-180	60	163	NoGap	1	4	2	9	0	distractor	1	467	767	201	13.516	12.866	27.087
DTProbeTrack03	4	ProbeTrackDT	1.1	SCS215a	20101101.085508	20101101.085553	single-task	8	0.013343	60	0	60-180	60	98	NoGap	1	5	2	1	1	target	1	760	620	821	13.385	12.932	26.755
DTProbeTrack03	4	ProbeTrackDT	1.1	SCS215a	20101101.085508	20101101.085558	single-task	8	0.013343	60	0	60-180	60	144	NoGap	1	6	2	9	0	distractor	1	947	527	1348	13.328	12.848	13.818
DTProbeTrack03	4	ProbeTrackDT	1.1	SCS215a	20101101.085508	20101101.085605	single-task	8	0.013343	60	0	60-180	60	160	NoGap	1	7	2	3	1	target	1	773	614	1962	13.328	12.957	13.694
DTProbeTrack03	4	ProbeTrackDT	1.1	SCS215a	20101101.085508	20101101.085611	single-task	8	0.013343	60	0	60-180	60	162	NoGap	1	8	2	6	1	target	1	600	700	2662	13.328	13.299	13.346
DTProbeTrack03	4	ProbeTrackDT	1.1	SCS215a	20101101.085508	20101101.085617	single-task	8	0.013343	60	0	60-180	60	145	NoGap	1	9	2	45	0	distractor	1	600	700	3362	13.328	13.309	13.349
DTProbeTrack03	4	ProbeTrackDT	1.1	SCS215a	20101101.085508	20101101.085624	single-task	8	0.013343	60	0	60-180	60	109	NoGap	1	10	2	6	1	target	1	707	647	4009	13.382	12.865	26.704
DTProbeTrack03	4	ProbeTrackDT	1.1	SCS215a	20101101.085508	20101101.085629	single-task	8	0.013343	60	0	60-180	60	169	NoGap	1	11	2	1	0	distractor	1	720	640	4649	13.328	12.900	13.787
DTProbeTrack03	4	ProbeTrackDT	1.1	SCS215a	20101101.085508	20101101.085635	single-task	8	0.013343	60	0	60-180	60	72	NoGap	1	12	2	3	1	target	1	680	660	5309	13.328	12.980	13.682
DTProbeTrack03	4	ProbeTrackDT	1.1	SCS215a	20101101.085508	20101101.085640	single-task	8	0.013343	60	0	60-180	60	153	NoGap	1	13	2	1	1	target	1	627	687	5996	13.376	13.072	26.573
DTProbeTrack03	4	ProbeTrackDT	1.1	SCS215a	20101101.085508	20101101.085646	single-task	8	0.013343	60	0	60-180	60	179	NoGap	1	14	2	1	0	distractor	1	574	713	6709	13.328	13.302	13.353
DTProbeTrack03	4	ProbeTrackDT	1.1	SCS215a	20101101.085508	20101101.085653	single-task	8	0.013343	60	0	60-180	60	79	NoGap	1	15	2	9	1	target	1	680	660	7369	13.328	13.309	13.349
DTProbeTrack03	4	ProbeTrackDT	1.1	SCS215a	20101101.085508	20101101.085658	single-task	8	0.013343	60	0	60-180	60	120	NoGap	1	16	2	1	0	distractor	1	680	660	8029	13.328	13.113	13.545
DTProbeTrack03	4	ProbeTrackDT	1.1	SCS215a	20101101.085508	20101101.085703	single-task	8	0.013343	60	0	60-180	60	128	NoGap	1	17	2	6	1	target	1	720	640	8669	13.328	13.099	13.557
DTProbeTrack03	4	ProbeTrackDT	1.1	SCS215a	20101101.085508	20101101.085709	single-task	8	0.013343	60	0	60-180	60	72	NoGap	1	18	2	3	0	distractor	1	853	574	9243	13.328	12.864	13.793
DTProbeTrack03	4	ProbeTrackDT	1.1	SCS215a	20101101.085508	20101101.085714	single-task	8	0.013343	60	0	60-180	60	158	NoGap	1	19	2	9	0	distractor	1	653	674	9917	13.373	12.947	27.006
DTProbeTrack03	4	ProbeTrackDT	1.1	SCS215a	20101101.085508	20101101.085720	single-task	8	0.013343	60	0	60-180	60	136	NoGap	1	20	2	3	0	distractor	1	787	607	10524	13.328	12.888	13.777
DTProbeTrack03	4	ProbeTrackDT	1.1	SCS215a	20101101.085508	20101101.085726	single-task	8	0.013343	60	0	60-180	60	122	NoGap	1	21	2	6	0	distractor	1	720	640	11164	13.328	12.780	13.892
DTProbeTrack03	4	ProbeTrackDT	1.1	SCS215a	20101101.085508	20101101.085732	single-task	8	0.013343	60	0	60-180	60	70	NoGap	1	22	2	45	1	target	1	640	680	11844	13.328	13.305	13.354
DTProbeTrack03	4	ProbeTrackDT	1.1	SCS215a	20101101.085508	20101101.085737	single-task	8	0.013343	60	0	60-180	60	121	NoGap	1	23	2	6	0	distractor	1	627	687	12531	13.381	12.880	26.750
DTProbeTrack03	4	ProbeTrackDT	1.1	SCS215a	20101101.085508	20101101.085743	single-task	8	0.013343	60	0	60-180	60	67	NoGap	1	24	2	3	1	target	1	1067	467	12998	13.328	13.309	13.343
DTProbeTrack03	4	ProbeTrackDT	1.1	SCS215a	20101101.085508	20101101.085748	single-task	8	0.013343	60	0	60-180	60	110	NoGap	1	25	2	9	1	target	1	534	733	13731	13.328	12.852	13.786
DTProbeTrack03	4	ProbeTrackDT	1.1	SCS215a	20101101.085508	20101101.085754	single-task	8	0.013343	60	0	60-180	60	159	NoGap	1	26	2	3	0	distractor	1	587	707	14438	13.328	13.091	13.558
DTProbeTrack03	4	ProbeTrackDT	1.1	SCS215a	20101101.085508	20101101.085800	single-task	8	0.013343	60	0	60-180	60	81	NoGap	1	27	2	45	0	distractor	1	587	707	15145	13.328	12.959	13.695
DTProbeTrack03	4	ProbeTrackDT	1.1	SCS215a	20101101.085508	20101101.085805	single-task	8	0.013343	60	0	60-180	60	132	NoGap	1	28	2	45	0	distractor	1	547	727	15872	13.328	13.153	13.490
DTProbeTrack03	4	ProbeTrackDT	1.1	SCS215a	20101101.085508	20101101.085812	single-task	8	0.013343	60	0	60-180	60	85	NoGap	1	29	2	6	1	target	1	987	507	16379	13.328	12.927	13.705
DTProbeTrack03	4	ProbeTrackDT	1.1	SCS215a	20101101.085508	20101101.085817	single-task	8	0.013343	60	0	60-180	60	104	NoGap	1	30	2	45	1	target	1	667	667	17046	13.328	13.297	13.353
DTProbeTrack03	4	ProbeTrackDT	1.1	SCS215a	20101101.085508	20101101.085823	single-task	8	0.013343	60	0	60-180	60	133	NoGap	1	31	2	1	1	target	1	507	747	17793	13.328	12.872	13.791
DTProbeTrack03	4	ProbeTrackDT	1.1	SCS215a	20101101.085508	20101101.085829	single-task	8	0.013343	60	0	60-180	60	77	NoGap	1	32	2	9	1	target	1	547	727	18520	13.328	13.107	13.555
DTProbeTrack03	4	ProbeTrackDT	1.1	SCS215a	20101101.085508	20101101.085834	single-task	8	0.013343	60	0	60-180	60	135	NoGap	1	33	2	45	0	distractor	1	427	787	19307	13.328	13.105	13.557
DTProbeTrack03	4	ProbeTrackDT	1.1	SCS215a	20101101.085508	20101101.085840	single-task	8	0.013343	60	0	60-180	60	111	NoGap	1	34	2	6	0	distractor	1	680	660	19967	13.328	12.932	13.731
DTProbeTrack03	4	ProbeTrackDT	1.1	SCS215a	20101101.085508	20101101.085845	single-task	8	0.013343	60	0	60-180	60	180	NoGap	1	35	2	45	1	target	1	680	660	20627	13.328	12.933	13.722
DTProbeTrack03	4	ProbeTrackDT	1.1	SCS215a	20101101.085508	20101101.085852	single-task	8	0.013343	60	0	60-180	60	134	NoGap	1	36	2	6	0	distractor	1	604	698	21325	13.430	12.911	39.602
DTProbeTrack03	4	ProbeTrackDT	1.1	SCS215a	20101101.085508	20101101.085858	single-task	8	0.013343	60	0	60-180	60	102	NoGap	1	37	2	1	0	distractor	1	733	634	21959	13.328	12.875	13.802
DTProbeTrack03	4	ProbeTrackDT	1.1	SCS215a	20101101.085508	20101101.085903	single-task	8	0.013343	60	0	60-180	60	174	NoGap	1	38	2	9	0	distractor	1	680	660	22619	13.371	12.974	26.985
DTProbeTrack03	4	ProbeTrackDT	1.1	SCS215a	20101101.085508	20101101.085910	single-task	8	0.013343	60	0	60-180	60	128	NoGap	1	39	2	1	1	target	1	467	767	23386	13.328	13.042	13.620
DTProbeTrack03	4	ProbeTrackDT	1.1	SCS215a	20101101.085508	20101101.085915	single-task	8	0.013343	60	0	60-180	60	117	NoGap	1	40	2	45	1	target	1	747	627	24013	13.328	13.308	13.348
DTProbeTrack03	4	ProbeTrackDT	1.1	SCS215a	20101101.090031	20101101.090036	dt-shadow	8	0.013327	60	10	60-180	60	151	GapPrac	1	1	2	6	0	target	0	653	-1000	23013	13.328	13.305	13.351
DTProbeTrack03	4	ProbeTrackDT	1.1	SCS215a	20101101.090031	20101101.090042	dt-shadow	8	0.013327	60	10	60-180	60	93	GapPrac	1	2	2	9	0	distractor	1	467	767	23780	13.328	13.095	13.570
DTProbeTrack03	4	ProbeTrackDT	1.1	SCS215a	20101101.090031	20101101.090047	dt-shadow	8	0.013327	60	10	60-180	60	119	GapPrac	1	3	2	45	1	target	1	613	694	24474	13.328	12.812	13.831
DTProbeTrack03	4	ProbeTrackDT	1.1	SCS215a	20101101.090031	20101101.090053	dt-shadow	8	0.013327	60	10	60-180	60	120	GapPrac	1	4	2	9	1	target	1	613	694	25168	13.328	13.174	13.457
DTProbeTrack03	4	ProbeTrackDT	1.1	SCS215a	20101101.090031	20101101.090059	dt-shadow	8	0.013327	60	10	60-180	60	152	GapPrac	1	5	2	6	1	target	1	467	767	25935	13.328	13.306	13.350
DTProbeTrack03	4	ProbeTrackDT	1.1	SCS215a	20101101.090031	20101101.090105	dt-shadow	8	0.013327	60	10	60-180	60	130	GapPrac	1	6	2	3	1	target	1	360	820	26755	13.382	13.239	26.179
DTProbeTrack03	4	ProbeTrackDT	1.1	SCS215a	20101101.090031	20101101.090111	dt-shadow	8	0.013327	60	10	60-180	60	132	GapPrac	1	7	2	45	0	target	0	587	-1000	25755	13.328	13.306	13.356
DTProbeTrack03	4	ProbeTrackDT	1.1	SCS215a	20101101.090031	20101101.090117	dt-shadow	8	0.013327	60	10	60-180	60	108	GapPrac	1	8	2	45	0	distractor	1	693	654	26409	13.328	13.099	13.563
DTProbeTrack03	4	ProbeTrackDT	1.1	SCS215a	20101101.090031	20101101.090123	dt-shadow	8	0.013327	60	10	60-180	60	81	GapPrac	1	9	2	3	0	distractor	1	733	634	27043	13.328	13.121	13.534
DTProbeTrack03	4	ProbeTrackDT	1.1	SCS215a	20101101.090031	20101101.090128	dt-shadow	8	0.013327	60	10	60-180	60	91	GapPrac	1	10	2	1	0	target	0	707	-1000	26043	13.328	13.306	13.354
DTProbeTrack03	4	ProbeTrackDT	1.1	SCS215a	20101101.090031	20101101.090134	dt-shadow	8	0.013327	60	10	60-180	60	138	GapPrac	1	11	2	45	1	target	1	1453	274	26317	13.328	12.886	13.784
DTProbeTrack03	4	ProbeTrackDT	1.1	SCS215a	20101101.090031	20101101.090141	dt-shadow	8	0.013327	60	10	60-180	60	150	GapPrac	1	12	2	1	1	target	1	773	614	26931	13.328	12.898	13.751
DTProbeTrack03	4	ProbeTrackDT	1.1	SCS215a	20101101.090031	20101101.090147	dt-shadow	8	0.013327	60	10	60-180	60	168	GapPrac	1	13	2	6	1	target	1	613	694	27625	13.328	13.044	13.620
DTProbeTrack03	4	ProbeTrackDT	1.1	SCS215a	20101101.090031	20101101.090154	dt-shadow	8	0.013327	60	10	60-180	60	131	GapPrac	1	14	2	3	1	target	1	480	760	28385	13.328	13.305	13.352
DTProbeTrack03	4	ProbeTrackDT	1.1	SCS215a	20101101.090031	20101101.090159	dt-shadow	8	0.013327	60	10	60-180	60	163	GapPrac	1	15	2	9	0	distractor	1	693	654	29039	13.413	12.835	39.065
DTProbeTrack03	4	ProbeTrackDT	1.1	SCS215a	20101101.090031	20101101.090206	dt-shadow	8	0.013327	60	10	60-180	60	105	GapPrac	1	16	2	1	0	target	0	933	-1000	28039	13.381	13.019	26.510
DTProbeTrack03	4	ProbeTrackDT	1.1	SCS215a	20101101.090031	20101101.090211	dt-shadow	8	0.013327	60	10	60-180	60	123	GapPrac	1	17	2	6	0	distractor	1	627	687	28726	13.328	13.154	13.552
DTProbeTrack03	4	ProbeTrackDT	1.1	SCS215a	20101101.090031	20101101.090217	dt-shadow	8	0.013327	60	10	60-180	60	87	GapPrac	1	18	2	9	1	target	1	587	707	29433	13.386	13.086	26.422
DTProbeTrack03	4	ProbeTrackDT	1.1	SCS215a	20101101.090031	20101101.090223	dt-shadow	8	0.013327	60	10	60-180	60	151	GapPrac	1	19	2	1	1	target	1	653	674	30107	13.328	13.305	13.358
DTProbeTrack03	4	ProbeTrackDT	1.1	SCS215a	20101101.090031	20101101.090229	dt-shadow	8	0.013327	60	10	60-180	60	144	GapPrac	1	20	2	3	0	target	0	813	-1000	29107	13.419	12.957	40.181
DTProbeTrack03	4	ProbeTrackDT	1.1	SCS215a	20101101.090319	20101101.090323	dt-shadow	8	0.013328	60	10	60-180	60	166	GapExp	1	1	2	3	1	target	1	374	813	29920	13.328	13.104	13.548
DTProbeTrack03	4	ProbeTrackDT	1.1	SCS215a	20101101.090319	20101101.090329	dt-shadow	8	0.013328	60	10	60-180	60	76	GapExp	1	2	2	45	1	target	1	414	793	30713	13.328	12.936	13.718
DTProbeTrack03	4	ProbeTrackDT	1.1	SCS215a	20101101.090319	20101101.090335	dt-shadow	8	0.013328	60	10	60-180	60	89	GapExp	1	3	2	3	0	distractor	1	520	740	31453	13.328	13.084	13.556
DTProbeTrack03	4	ProbeTrackDT	1.1	SCS215a	20101101.090319	20101101.090340	dt-shadow	8	0.013328	60	10	60-180	60	94	GapExp	1	4	2	1	1	target	1	654	673	32126	13.385	13.221	26.667
DTProbeTrack03	4	ProbeTrackDT	1.1	SCS215a	20101101.090319	20101101.090345	dt-shadow	8	0.013328	60	10	60-180	60	86	GapExp	1	5	2	6	1	target	1	374	813	32939	13.328	12.979	13.675
DTProbeTrack03	4	ProbeTrackDT	1.1	SCS215a	20101101.090319	20101101.090350	dt-shadow	8	0.013328	60	10	60-180	60	96	GapExp	0	6	2	45	0	distractor	1	547	727	33666	13.328	13.094	13.570
DTProbeTrack03	4	ProbeTrackDT	1.1	SCS215a	20101101.090319	20101101.090356	dt-shadow	8	0.013328	60	10	60-180	60	177	GapExp	0	7	2	3	0	distractor	1	1226	387	34053	13.328	13.101	13.561
DTProbeTrack03	4	ProbeTrackDT	1.1	SCS215a	20101101.090319	20101101.090403	dt-shadow	8	0.013328	60	10	60-180	60	79	GapExp	0	8	2	3	1	target	1	467	767	34820	13.328	13.109	13.558
DTProbeTrack03	4	ProbeTrackDT	1.1	SCS215a	20101101.090319	20101101.090408	dt-shadow	8	0.013328	60	10	60-180	60	116	GapExp	0	9	2	45	0	distractor	1	600	700	35520	13.328	13.293	13.355
DTProbeTrack03	4	ProbeTrackDT	1.1	SCS215a	20101101.090319	20101101.090414	dt-shadow	8	0.013328	60	10	60-180	60	131	GapExp	0	10	2	6	0	distractor	1	494	753	36273	13.379	13.225	26.544
DTProbeTrack03	4	ProbeTrackDT	1.1	SCS215a	20101101.090319	20101101.090420	dt-shadow	8	0.013328	60	10	60-180	60	179	GapExp	0	11	2	6	0	distractor	1	600	700	36973	13.328	13.296	13.358
DTProbeTrack03	4	ProbeTrackDT	1.1	SCS215a	20101101.090319	20101101.090426	dt-shadow	8	0.013328	60	10	60-180	60	122	GapExp	0	12	2	6	0	distractor	1	920	540	37513	13.328	12.856	13.787
DTProbeTrack03	4	ProbeTrackDT	1.1	SCS215a	20101101.090319	20101101.090432	dt-shadow	8	0.013328	60	10	60-180	60	114	GapExp	0	13	2	45	1	target	1	707	647	38160	13.372	12.899	27.066
DTProbeTrack03	4	ProbeTrackDT	1.1	SCS215a	20101101.090319	20101101.090438	dt-shadow	8	0.013328	60	10	60-180	60	99	GapExp	0	14	2	45	0	distractor	1	600	700	38860	13.376	12.915	26.471
DTProbeTrack03	4	ProbeTrackDT	1.1	SCS215a	20101101.090319	20101101.090444	dt-shadow	8	0.013328	60	10	60-180	60	71	GapExp	0	15	2	6	1	target	1	693	654	39514	13.328	12.921	13.737
DTProbeTrack03	4	ProbeTrackDT	1.1	SCS215a	20101101.090319	20101101.090449	dt-shadow	8	0.013328	60	10	60-180	60	118	GapExp	0	16	2	1	0	distractor	1	520	740	40254	13.328	12.870	13.792
DTProbeTrack03	4	ProbeTrackDT	1.1	SCS215a	20101101.090319	20101101.090455	dt-shadow	8	0.013328	60	10	60-180	60	104	GapExp	0	17	2	3	0	distractor	1	534	733	40987	13.385	13.288	26.489
DTProbeTrack03	4	ProbeTrackDT	1.1	SCS215a	20101101.090319	20101101.090500	dt-shadow	8	0.013328	60	10	60-180	60	71	GapExp	0	18	2	3	1	target	1	507	747	41734	13.328	13.062	13.582
DTProbeTrack03	4	ProbeTrackDT	1.1	SCS215a	20101101.090319	20101101.090505	dt-shadow	8	0.013328	60	10	60-180	60	167	GapExp	0	19	2	45	0	distractor	1	733	634	42368	13.328	13.056	13.600
DTProbeTrack03	4	ProbeTrackDT	1.1	SCS215a	20101101.090319	20101101.090512	dt-shadow	8	0.013328	60	10	60-180	60	116	GapExp	0	20	2	45	0	distractor	1	547	727	43095	13.421	13.113	39.810
DTProbeTrack03	4	ProbeTrackDT	1.1	SCS215a	20101101.090319	20101101.090518	dt-shadow	8	0.013328	60	10	60-180	60	168	GapExp	0	21	2	9	0	distractor	1	520	740	43835	13.328	13.306	13.351
DTProbeTrack03	4	ProbeTrackDT	1.1	SCS215a	20101101.090319	20101101.090525	dt-shadow	8	0.013328	60	10	60-180	60	103	GapExp	0	22	2	45	0	target	0	827	-1000	42835	13.328	13.307	13.352
DTProbeTrack03	4	ProbeTrackDT	1.1	SCS215a	20101101.090319	20101101.090531	dt-shadow	8	0.013328	60	10	60-180	60	127	GapExp	0	23	2	3	0	distractor	1	707	647	43482	13.327	12.863	13.785
DTProbeTrack03	4	ProbeTrackDT	1.1	SCS215a	20101101.090319	20101101.090537	dt-shadow	8	0.013328	60	10	60-180	60	93	GapExp	0	24	2	45	1	target	1	640	680	44162	13.328	13.296	13.355
DTProbeTrack03	4	ProbeTrackDT	1.1	SCS215a	20101101.090319	20101101.090543	dt-shadow	8	0.013328	60	10	60-180	60	113	GapExp	0	25	2	6	1	target	1	574	713	44875	13.435	13.043	26.565
DTProbeTrack03	4	ProbeTrackDT	1.1	SCS215a	20101101.090319	20101101.090548	dt-shadow	8	0.013328	60	10	60-180	60	149	GapExp	0	26	2	45	1	distractor	0	720	-1000	43875	13.328	13.023	13.633
DTProbeTrack03	4	ProbeTrackDT	1.1	SCS215a	20101101.090319	20101101.090555	dt-shadow	8	0.013328	60	10	60-180	60	72	GapExp	0	27	2	1	1	target	1	534	733	44608	13.328	12.855	13.796
DTProbeTrack03	4	ProbeTrackDT	1.1	SCS215a	20101101.090319	20101101.090600	dt-shadow	8	0.013328	60	10	60-180	60	87	GapExp	0	28	2	6	0	distractor	1	600	700	45308	13.328	13.131	13.516
DTProbeTrack03	4	ProbeTrackDT	1.1	SCS215a	20101101.090319	20101101.090605	dt-shadow	8	0.013328	60	10	60-180	60	171	GapExp	0	29	2	6	0	distractor	1	454	773	46081	13.372	13.304	26.444
DTProbeTrack03	4	ProbeTrackDT	1.1	SCS215a	20101101.090319	20101101.090611	dt-shadow	8	0.013328	60	10	60-180	60	174	GapExp	0	30	2	3	1	target	1	600	700	46781	13.328	13.093	13.559
DTProbeTrack03	4	ProbeTrackDT	1.1	SCS215a	20101101.090319	20101101.090618	dt-shadow	8	0.013328	60	10	60-180	60	176	GapExp	0	31	2	9	1	target	1	614	693	47474	13.328	13.106	13.555
DTProbeTrack03	4	ProbeTrackDT	1.1	SCS215a	20101101.090319	20101101.090624	dt-shadow	8	0.013328	60	10	60-180	60	171	GapExp	0	32	2	1	1	target	1	653	674	48148	13.328	13.076	13.650
DTProbeTrack03	4	ProbeTrackDT	1.1	SCS215a	20101101.090319	20101101.090630	dt-shadow	8	0.013328	60	10	60-180	60	180	GapExp	0	33	2	3	0	distractor	1	560	720	48868	13.328	12.926	13.718
DTProbeTrack03	4	ProbeTrackDT	1.1	SCS215a	20101101.090319	20101101.090637	dt-shadow	8	0.013328	60	10	60-180	60	150	GapExp	0	34	2	9	0	target	0	813	-1000	47868	13.328	13.094	13.550
DTProbeTrack03	4	ProbeTrackDT	1.1	SCS215a	20101101.090319	20101101.090643	dt-shadow	8	0.013328	60	10	60-180	60	133	GapExp	0	35	2	1	0	distractor	1	800	600	48468	13.328	13.097	13.544
DTProbeTrack03	4	ProbeTrackDT	1.1	SCS215a	20101101.090319	20101101.090649	dt-shadow	8	0.013328	60	10	60-180	60	79	GapExp	0	36	2	3	0	distractor	1	1067	467	48935	13.386	13.164	26.834
DTProbeTrack03	4	ProbeTrackDT	1.1	SCS215a	20101101.090319	20101101.090655	dt-shadow	8	0.013328	60	10	60-180	60	145	GapExp	0	37	2	3	0	distractor	1	574	713	49648	13.328	12.928	13.718
DTProbeTrack03	4	ProbeTrackDT	1.1	SCS215a	20101101.090319	20101101.090701	dt-shadow	8	0.013328	60	10	60-180	60	107	GapExp	0	38	2	45	1	target	1	614	693	50341	13.328	12.914	13.746
DTProbeTrack03	4	ProbeTrackDT	1.1	SCS215a	20101101.090319	20101101.090707	dt-shadow	8	0.013328	60	10	60-180	60	84	GapExp	0	39	2	45	0	distractor	1	1266	367	50708	13.328	12.874	13.783
DTProbeTrack03	4	ProbeTrackDT	1.1	SCS215a	20101101.090319	20101101.090713	dt-shadow	8	0.013328	60	10	60-180	60	166	GapExp	0	40	2	9	0	distractor	1	507	747	51455	13.328	13.086	13.563
DTProbeTrack03	4	ProbeTrackDT	1.1	SCS215a	20101101.090319	20101101.090719	dt-shadow	8	0.013328	60	10	60-180	60	72	GapExp	0	41	2	6	1	target	1	680	660	52115	13.328	13.049	13.611
DTProbeTrack03	4	ProbeTrackDT	1.1	SCS215a	20101101.090319	20101101.090724	dt-shadow	8	0.013328	60	10	60-180	60	87	GapExp	0	42	2	6	0	distractor	1	733	634	52749	13.328	12.869	13.785
DTProbeTrack03	4	ProbeTrackDT	1.1	SCS215a	20101101.090319	20101101.090730	dt-shadow	8	0.013328	60	10	60-180	60	86	GapExp	0	43	2	9	1	target	1	693	654	53403	13.385	12.919	26.919
DTProbeTrack03	4	ProbeTrackDT	1.1	SCS215a	20101101.090319	20101101.090735	dt-shadow	8	0.013328	60	10	60-180	60	125	GapExp	0	44	2	3	1	target	1	520	740	54143	13.328	12.915	13.745
DTProbeTrack03	4	ProbeTrackDT	1.1	SCS215a	20101101.090319	20101101.090741	dt-shadow	8	0.013328	60	10	60-180	60	165	GapExp	0	45	2	6	1	target	1	387	807	54950	13.328	13.098	13.558
DTProbeTrack03	4	ProbeTrackDT	1.1	SCS215a	20101101.090319	20101101.090747	dt-shadow	8	0.013328	60	10	60-180	60	153	GapExp	0	46	2	1	0	distractor	1	734	633	55583	13.418	12.951	26.604
DTProbeTrack03	4	ProbeTrackDT	1.1	SCS215a	20101101.090319	20101101.090753	dt-shadow	8	0.013328	60	10	60-180	60	124	GapExp	0	47	2	3	1	target	1	480	760	56343	13.328	12.886	13.764
DTProbeTrack03	4	ProbeTrackDT	1.1	SCS215a	20101101.090319	20101101.090759	dt-shadow	8	0.013328	60	10	60-180	60	74	GapExp	0	48	2	9	1	target	1	1213	394	56737	13.328	13.308	13.347
DTProbeTrack03	4	ProbeTrackDT	1.1	SCS215a	20101101.090319	20101101.090804	dt-shadow	8	0.013328	60	10	60-180	60	138	GapExp	0	49	2	9	0	distractor	1	614	693	57430	13.375	13.224	26.424
DTProbeTrack03	4	ProbeTrackDT	1.1	SCS215a	20101101.090319	20101101.090810	dt-shadow	8	0.013328	60	10	60-180	60	154	GapExp	0	50	2	6	1	target	1	494	753	58183	13.328	13.303	13.350
DTProbeTrack03	4	ProbeTrackDT	1.1	SCS215a	20101101.090319	20101101.090837	dt-shadow	8	0.013328	60	10	60-180	60	158	GapExp	0	51	2	45	1	target	1	494	753	58936	13.409	13.089	26.597
DTProbeTrack03	4	ProbeTrackDT	1.1	SCS215a	20101101.090319	20101101.090844	dt-shadow	8	0.013328	60	10	60-180	60	136	GapExp	0	52	2	3	0	distractor	1	467	767	59703	13.430	13.266	26.533
DTProbeTrack03	4	ProbeTrackDT	1.1	SCS215a	20101101.090319	20101101.090850	dt-shadow	8	0.013328	60	10	60-180	60	76	GapExp	0	53	2	1	0	target	0	693	-1000	58703	13.328	13.107	13.550
DTProbeTrack03	4	ProbeTrackDT	1.1	SCS215a	20101101.090319	20101101.090855	dt-shadow	8	0.013328	60	10	60-180	60	114	GapExp	0	54	2	9	1	target	1	560	720	59423	13.328	13.102	13.546
DTProbeTrack03	4	ProbeTrackDT	1.1	SCS215a	20101101.090319	20101101.090901	dt-shadow	8	0.013328	60	10	60-180	60	102	GapExp	0	55	2	9	1	target	1	520	740	60163	13.384	13.309	26.559
DTProbeTrack03	4	ProbeTrackDT	1.1	SCS215a	20101101.090319	20101101.090906	dt-shadow	8	0.013328	60	10	60-180	60	146	GapExp	0	56	2	6	1	target	1	467	767	60930	13.328	13.098	13.563
DTProbeTrack03	4	ProbeTrackDT	1.1	SCS215a	20101101.090319	20101101.090912	dt-shadow	8	0.013328	60	10	60-180	60	65	GapExp	0	57	2	3	1	target	1	627	687	61617	13.328	13.090	13.560
DTProbeTrack03	4	ProbeTrackDT	1.1	SCS215a	20101101.090319	20101101.090917	dt-shadow	8	0.013328	60	10	60-180	60	112	GapExp	0	58	2	1	0	distractor	1	507	747	62364	13.384	12.980	26.829
DTProbeTrack03	4	ProbeTrackDT	1.1	SCS215a	20101101.090319	20101101.090922	dt-shadow	8	0.013328	60	10	60-180	60	141	GapExp	0	59	2	3	0	distractor	1	760	620	62984	13.328	12.850	13.804
DTProbeTrack03	4	ProbeTrackDT	1.1	SCS215a	20101101.090319	20101101.090928	dt-shadow	8	0.013328	60	10	60-180	60	86	GapExp	0	60	2	6	0	distractor	1	454	773	63757	13.328	12.872	13.782
DTProbeTrack03	4	ProbeTrackDT	1.1	SCS215a	20101101.090319	20101101.090934	dt-shadow	8	0.013328	60	10	60-180	60	147	GapExp	0	61	2	6	0	distractor	1	507	747	64504	13.328	13.099	13.558
DTProbeTrack03	4	ProbeTrackDT	1.1	SCS215a	20101101.090319	20101101.090939	dt-shadow	8	0.013328	60	10	60-180	60	102	GapExp	0	62	2	1	0	distractor	1	600	700	65204	13.328	13.099	13.558
DTProbeTrack03	4	ProbeTrackDT	1.1	SCS215a	20101101.090319	20101101.090945	dt-shadow	8	0.013328	60	10	60-180	60	153	GapExp	0	63	2	45	0	distractor	1	627	687	65891	13.368	13.013	26.719
DTProbeTrack03	4	ProbeTrackDT	1.1	SCS215a	20101101.090319	20101101.090952	dt-shadow	8	0.013328	60	10	60-180	60	63	GapExp	0	64	2	3	1	target	1	827	587	66478	13.328	12.856	13.805
DTProbeTrack03	4	ProbeTrackDT	1.1	SCS215a	20101101.090319	20101101.090957	dt-shadow	8	0.013328	60	10	60-180	60	175	GapExp	0	65	2	1	0	distractor	1	547	727	67205	13.415	12.861	26.516
DTProbeTrack03	4	ProbeTrackDT	1.1	SCS215a	20101101.090319	20101101.091003	dt-shadow	8	0.013328	60	10	60-180	60	111	GapExp	0	66	2	1	1	target	1	400	800	68005	13.328	12.858	13.792
DTProbeTrack03	4	ProbeTrackDT	1.1	SCS215a	20101101.090319	20101101.091008	dt-shadow	8	0.013328	60	10	60-180	60	78	GapExp	0	67	2	6	0	distractor	1	440	780	68785	13.328	12.949	13.700
DTProbeTrack03	4	ProbeTrackDT	1.1	SCS215a	20101101.090319	20101101.091013	dt-shadow	8	0.013328	60	10	60-180	60	146	GapExp	0	68	2	9	1	target	1	520	740	69525	13.328	13.101	13.547
DTProbeTrack03	4	ProbeTrackDT	1.1	SCS215a	20101101.090319	20101101.091019	dt-shadow	8	0.013328	60	10	60-180	60	164	GapExp	0	69	2	3	0	distractor	1	574	713	70238	13.372	12.886	26.257
DTProbeTrack03	4	ProbeTrackDT	1.1	SCS215a	20101101.090319	20101101.091026	dt-shadow	8	0.013328	60	10	60-180	60	85	GapExp	0	70	2	45	1	target	1	613	694	70932	13.378	12.854	26.532
DTProbeTrack03	4	ProbeTrackDT	1.1	SCS215a	20101101.090319	20101101.091031	dt-shadow	8	0.013328	60	10	60-180	60	153	GapExp	0	71	2	9	0	distractor	1	534	733	71665	13.421	12.880	39.752
DTProbeTrack03	4	ProbeTrackDT	1.1	SCS215a	20101101.090319	20101101.091037	dt-shadow	8	0.013328	60	10	60-180	60	164	GapExp	0	72	2	9	1	target	1	629	686	72351	13.633	13.256	66.643
DTProbeTrack03	4	ProbeTrackDT	1.1	SCS215a	20101101.090319	20101101.091044	dt-shadow	8	0.013328	60	10	60-180	60	82	GapExp	0	73	2	9	0	distractor	1	614	693	73044	13.328	12.916	13.760
DTProbeTrack03	4	ProbeTrackDT	1.1	SCS215a	20101101.090319	20101101.091049	dt-shadow	8	0.013328	60	10	60-180	60	85	GapExp	0	74	2	6	1	target	1	414	793	73837	13.328	13.110	13.561
DTProbeTrack03	4	ProbeTrackDT	1.1	SCS215a	20101101.090319	20101101.091054	dt-shadow	8	0.013328	60	10	60-180	60	96	GapExp	0	75	2	1	1	target	1	574	713	74550	13.328	12.946	13.684
DTProbeTrack03	4	ProbeTrackDT	1.1	SCS215a	20101101.090319	20101101.091059	dt-shadow	8	0.013328	60	10	60-180	60	114	GapExp	0	76	2	9	1	target	1	454	773	75323	13.328	12.966	13.697
DTProbeTrack03	4	ProbeTrackDT	1.1	SCS215a	20101101.090319	20101101.091105	dt-shadow	8	0.013328	60	10	60-180	60	180	GapExp	0	77	2	1	1	target	1	374	813	76136	13.328	12.857	13.812
DTProbeTrack03	4	ProbeTrackDT	1.1	SCS215a	20101101.090319	20101101.091111	dt-shadow	8	0.013328	60	10	60-180	60	64	GapExp	0	78	2	45	1	target	1	547	727	76863	13.328	12.974	13.676
DTProbeTrack03	4	ProbeTrackDT	1.1	SCS215a	20101101.090319	20101101.091116	dt-shadow	8	0.013328	60	10	60-180	60	141	GapExp	0	79	2	1	1	target	1	400	800	77663	13.328	13.108	13.549
DTProbeTrack03	4	ProbeTrackDT	1.1	SCS215a	20101101.090319	20101101.091122	dt-shadow	8	0.013328	60	10	60-180	60	159	GapExp	0	80	2	45	1	target	1	613	694	78357	13.328	13.108	13.560
DTProbeTrack03	4	ProbeTrackDT	1.1	SCS215a	20101101.090319	20101101.091129	dt-shadow	8	0.013328	60	10	60-180	60	90	GapExp	0	81	2	1	1	target	1	520	740	79097	13.328	13.303	13.350
DTProbeTrack03	4	ProbeTrackDT	1.1	SCS215a	20101101.090319	20101101.091134	dt-shadow	8	0.013328	60	10	60-180	60	92	GapExp	0	82	2	45	1	target	1	387	807	79904	13.328	13.311	13.344
DTProbeTrack03	4	ProbeTrackDT	1.1	SCS215a	20101101.090319	20101101.091139	dt-shadow	8	0.013328	60	10	60-180	60	158	GapExp	0	83	2	3	1	target	1	360	820	80724	13.328	13.087	13.561
DTProbeTrack03	4	ProbeTrackDT	1.1	SCS215a	20101101.090319	20101101.091145	dt-shadow	8	0.013328	60	10	60-180	60	114	GapExp	0	84	2	45	1	target	1	440	780	81504	13.328	13.083	13.570
DTProbeTrack03	4	ProbeTrackDT	1.1	SCS215a	20101101.090319	20101101.091151	dt-shadow	8	0.013328	60	10	60-180	60	147	GapExp	0	85	2	3	1	target	1	374	813	82317	13.328	12.914	13.746
DTProbeTrack03	4	ProbeTrackDT	1.1	SCS215a	20101101.090319	20101101.091157	dt-shadow	8	0.013328	60	10	60-180	60	92	GapExp	0	86	2	6	1	target	1	374	813	83130	13.328	13.306	13.346
DTProbeTrack03	4	ProbeTrackDT	1.1	SCS215a	20101101.090319	20101101.091202	dt-shadow	8	0.013328	60	10	60-180	60	67	GapExp	0	87	2	6	0	distractor	1	680	660	83790	13.328	13.311	13.344
DTProbeTrack03	4	ProbeTrackDT	1.1	SCS215a	20101101.090319	20101101.091207	dt-shadow	8	0.013328	60	10	60-180	60	155	GapExp	0	88	2	9	0	distractor	1	480	760	84550	13.328	12.857	13.811
DTProbeTrack03	4	ProbeTrackDT	1.1	SCS215a	20101101.090319	20101101.091213	dt-shadow	8	0.013328	60	10	60-180	60	169	GapExp	0	89	2	1	0	distractor	1	507	747	85297	13.373	13.029	26.474
DTProbeTrack03	4	ProbeTrackDT	1.1	SCS215a	20101101.090319	20101101.091219	dt-shadow	8	0.013328	60	10	60-180	60	83	GapExp	0	90	2	6	0	distractor	1	787	607	85904	13.442	13.106	39.700
DTProbeTrack03	4	ProbeTrackDT	1.1	SCS215a	20101101.090319	20101101.091225	dt-shadow	8	0.013328	60	10	60-180	60	150	GapExp	0	91	2	9	1	target	1	360	820	86724	13.328	13.309	13.349
DTProbeTrack03	4	ProbeTrackDT	1.1	SCS215a	20101101.090319	20101101.091231	dt-shadow	8	0.013328	60	10	60-180	60	119	GapExp	0	92	2	3	0	target	0	587	-1000	85724	13.328	13.145	13.525
DTProbeTrack03	4	ProbeTrackDT	1.1	SCS215a	20101101.090319	20101101.091236	dt-shadow	8	0.013328	60	10	60-180	60	69	GapExp	0	93	2	3	0	distractor	1	693	654	86378	13.328	13.307	13.346
DTProbeTrack03	4	ProbeTrackDT	1.1	SCS215a	20101101.090319	20101101.091241	dt-shadow	8	0.013328	60	10	60-180	60	180	GapExp	0	94	2	3	1	target	1	454	773	87151	13.328	13.099	13.566
DTProbeTrack03	4	ProbeTrackDT	1.1	SCS215a	20101101.090319	20101101.091248	dt-shadow	8	0.013328	60	10	60-180	60	153	GapExp	0	95	2	9	0	distractor	1	587	707	87858	13.328	12.844	13.812
DTProbeTrack03	4	ProbeTrackDT	1.1	SCS215a	20101101.090319	20101101.091254	dt-shadow	8	0.013328	60	10	60-180	60	170	GapExp	0	96	2	1	0	distractor	1	587	707	88565	13.328	12.933	13.730
DTProbeTrack03	4	ProbeTrackDT	1.1	SCS215a	20101101.090319	20101101.091300	dt-shadow	8	0.013328	60	10	60-180	60	162	GapExp	0	97	2	6	1	target	1	440	780	89345	13.328	13.122	13.541
DTProbeTrack03	4	ProbeTrackDT	1.1	SCS215a	20101101.090319	20101101.091306	dt-shadow	8	0.013328	60	10	60-180	60	65	GapExp	0	98	2	45	1	target	1	454	773	90118	13.328	13.199	13.464
DTProbeTrack03	4	ProbeTrackDT	1.1	SCS215a	20101101.090319	20101101.091312	dt-shadow	8	0.013328	60	10	60-180	60	80	GapExp	0	99	2	3	0	distractor	1	800	600	90718	13.328	12.992	13.665
DTProbeTrack03	4	ProbeTrackDT	1.1	SCS215a	20101101.090319	20101101.091317	dt-shadow	8	0.013328	60	10	60-180	60	154	GapExp	0	100	2	45	0	distractor	1	547	727	91445	13.328	13.084	13.577
DTProbeTrack03	4	ProbeTrackDT	1.1	SCS215a	20101101.090319	20101101.091351	dt-shadow	8	0.013328	60	10	60-180	60	69	GapExp	0	101	2	9	1	target	1	614	693	92138	13.328	12.881	13.795
DTProbeTrack03	4	ProbeTrackDT	1.1	SCS215a	20101101.090319	20101101.091356	dt-shadow	8	0.013328	60	10	60-180	60	77	GapExp	0	102	2	1	1	target	1	680	660	92798	13.328	13.307	13.361
DTProbeTrack03	4	ProbeTrackDT	1.1	SCS215a	20101101.090319	20101101.091401	dt-shadow	8	0.013328	60	10	60-180	60	122	GapExp	0	103	2	3	0	target	0	547	-1000	91798	13.328	13.037	13.925
DTProbeTrack03	4	ProbeTrackDT	1.1	SCS215a	20101101.090319	20101101.091407	dt-shadow	8	0.013328	60	10	60-180	60	158	GapExp	0	104	2	3	0	distractor	1	614	693	92491	13.328	13.102	13.771
DTProbeTrack03	4	ProbeTrackDT	1.1	SCS215a	20101101.090319	20101101.091413	dt-shadow	8	0.013328	60	10	60-180	60	114	GapExp	0	105	2	6	1	target	1	480	760	93251	13.382	13.131	26.785
DTProbeTrack03	4	ProbeTrackDT	1.1	SCS215a	20101101.090319	20101101.091418	dt-shadow	8	0.013328	60	10	60-180	60	126	GapExp	0	106	2	3	1	target	1	360	820	94071	13.437	13.106	26.783
DTProbeTrack03	4	ProbeTrackDT	1.1	SCS215a	20101101.090319	20101101.091424	dt-shadow	8	0.013328	60	10	60-180	60	155	GapExp	0	107	2	9	1	target	1	480	760	94831	13.328	12.868	13.792
DTProbeTrack03	4	ProbeTrackDT	1.1	SCS215a	20101101.090319	20101101.091430	dt-shadow	8	0.013328	60	10	60-180	60	68	GapExp	0	108	2	1	0	distractor	1	680	660	95491	13.392	13.168	26.902
DTProbeTrack03	4	ProbeTrackDT	1.1	SCS215a	20101101.090319	20101101.091435	dt-shadow	8	0.013328	60	10	60-180	60	68	GapExp	0	109	2	45	0	distractor	1	707	647	96138	13.328	12.945	13.714
DTProbeTrack03	4	ProbeTrackDT	1.1	SCS215a	20101101.090319	20101101.091441	dt-shadow	8	0.013328	60	10	60-180	60	148	GapExp	0	110	2	9	0	distractor	1	693	654	96792	13.328	13.115	13.543
DTProbeTrack03	4	ProbeTrackDT	1.1	SCS215a	20101101.090319	20101101.091447	dt-shadow	8	0.013328	60	10	60-180	60	149	GapExp	0	111	2	9	0	target	0	1480	-1000	95792	13.416	12.953	26.825
DTProbeTrack03	4	ProbeTrackDT	1.1	SCS215a	20101101.090319	20101101.091454	dt-shadow	8	0.013328	60	10	60-180	60	102	GapExp	0	112	2	9	0	distractor	1	867	567	96359	13.432	12.960	26.527
DTProbeTrack03	4	ProbeTrackDT	1.1	SCS215a	20101101.090319	20101101.091459	dt-shadow	8	0.013328	60	10	60-180	60	111	GapExp	0	113	2	9	1	target	1	494	753	97112	13.328	12.846	13.808
DTProbeTrack03	4	ProbeTrackDT	1.1	SCS215a	20101101.090319	20101101.091505	dt-shadow	8	0.013328	60	10	60-180	60	90	GapExp	0	114	2	6	1	target	1	494	753	97865	13.328	12.939	13.720
DTProbeTrack03	4	ProbeTrackDT	1.1	SCS215a	20101101.090319	20101101.091510	dt-shadow	8	0.013328	60	10	60-180	60	160	GapExp	0	115	2	9	0	distractor	1	507	747	98612	13.328	13.115	13.542
DTProbeTrack03	4	ProbeTrackDT	1.1	SCS215a	20101101.090319	20101101.091516	dt-shadow	8	0.013328	60	10	60-180	60	138	GapExp	0	116	2	3	0	target	0	747	-1000	97612	13.328	13.108	13.550
DTProbeTrack03	4	ProbeTrackDT	1.1	SCS215a	20101101.090319	20101101.091522	dt-shadow	8	0.013328	60	10	60-180	60	148	GapExp	0	117	2	6	0	distractor	1	507	747	98359	13.328	13.309	13.347
DTProbeTrack03	4	ProbeTrackDT	1.1	SCS215a	20101101.090319	20101101.091528	dt-shadow	8	0.013328	60	10	60-180	60	73	GapExp	0	118	2	3	0	distractor	1	587	707	99066	13.392	13.308	26.637
DTProbeTrack03	4	ProbeTrackDT	1.1	SCS215a	20101101.090319	20101101.091533	dt-shadow	8	0.013328	60	10	60-180	60	77	GapExp	0	119	2	45	1	target	1	600	700	99766	13.380	13.306	26.652
DTProbeTrack03	4	ProbeTrackDT	1.1	SCS215a	20101101.090319	20101101.091539	dt-shadow	8	0.013328	60	10	60-180	60	169	GapExp	0	120	2	1	1	target	1	520	740	100506	13.328	12.967	13.680
DTProbeTrack03	4	ProbeTrackDT	1.1	SCS215a	20101101.090319	20101101.091545	dt-shadow	8	0.013328	60	10	60-180	60	87	GapExp	0	121	2	9	1	target	1	627	687	101193	13.328	13.089	13.554
DTProbeTrack03	4	ProbeTrackDT	1.1	SCS215a	20101101.090319	20101101.091550	dt-shadow	8	0.013328	60	10	60-180	60	160	GapExp	0	122	2	6	1	target	1	440	780	101973	13.328	12.969	13.688
DTProbeTrack03	4	ProbeTrackDT	1.1	SCS215a	20101101.090319	20101101.091556	dt-shadow	8	0.013328	60	10	60-180	60	174	GapExp	0	123	2	9	1	target	1	440	780	102753	13.328	12.877	13.784
DTProbeTrack03	4	ProbeTrackDT	1.1	SCS215a	20101101.090319	20101101.091603	dt-shadow	8	0.013328	60	10	60-180	60	98	GapExp	0	124	2	1	1	target	1	454	773	103526	13.328	13.308	13.347
DTProbeTrack03	4	ProbeTrackDT	1.1	SCS215a	20101101.090319	20101101.091608	dt-shadow	8	0.013328	60	10	60-180	60	137	GapExp	0	125	2	1	0	distractor	1	560	720	104246	13.328	12.952	13.704
DTProbeTrack03	4	ProbeTrackDT	1.1	SCS215a	20101101.090319	20101101.091614	dt-shadow	8	0.013328	60	10	60-180	60	167	GapExp	0	126	2	9	0	distractor	1	600	700	104946	13.328	12.855	13.808
DTProbeTrack03	4	ProbeTrackDT	1.1	SCS215a	20101101.090319	20101101.091620	dt-shadow	8	0.013328	60	10	60-180	60	179	GapExp	0	127	2	3	1	target	1	440	780	105726	13.328	12.944	13.711
DTProbeTrack03	4	ProbeTrackDT	1.1	SCS215a	20101101.090319	20101101.091626	dt-shadow	8	0.013328	60	10	60-180	60	135	GapExp	0	128	2	45	0	distractor	1	707	647	106373	13.328	12.950	13.706
DTProbeTrack03	4	ProbeTrackDT	1.1	SCS215a	20101101.090319	20101101.091633	dt-shadow	8	0.013328	60	10	60-180	60	63	GapExp	0	129	2	6	1	target	1	494	753	107126	13.328	12.903	13.742
DTProbeTrack03	4	ProbeTrackDT	1.1	SCS215a	20101101.090319	20101101.091638	dt-shadow	8	0.013328	60	10	60-180	60	169	GapExp	0	130	2	1	1	target	1	414	793	107919	13.328	13.117	13.555
DTProbeTrack03	4	ProbeTrackDT	1.1	SCS215a	20101101.090319	20101101.091644	dt-shadow	8	0.013328	60	10	60-180	60	69	GapExp	0	131	2	9	1	distractor	0	653	-1000	106919	13.328	13.298	13.346
DTProbeTrack03	4	ProbeTrackDT	1.1	SCS215a	20101101.090319	20101101.091649	dt-shadow	8	0.013328	60	10	60-180	60	166	GapExp	0	132	2	1	0	target	0	880	-1000	105919	13.328	13.226	13.424
DTProbeTrack03	4	ProbeTrackDT	1.1	SCS215a	20101101.090319	20101101.091655	dt-shadow	8	0.013328	60	10	60-180	60	88	GapExp	0	133	2	1	0	target	0	547	-1000	104919	13.327	12.853	13.802
DTProbeTrack03	4	ProbeTrackDT	1.1	SCS215a	20101101.090319	20101101.091700	dt-shadow	8	0.013328	60	10	60-180	60	70	GapExp	0	134	2	45	0	distractor	1	747	627	105546	13.328	12.967	13.690
DTProbeTrack03	4	ProbeTrackDT	1.1	SCS215a	20101101.090319	20101101.091706	dt-shadow	8	0.013328	60	10	60-180	60	76	GapExp	0	135	2	1	0	distractor	1	574	713	106259	13.328	12.880	13.782
DTProbeTrack03	4	ProbeTrackDT	1.1	SCS215a	20101101.090319	20101101.091711	dt-shadow	8	0.013328	60	10	60-180	60	117	GapExp	0	136	2	6	0	target	0	640	-1000	105259	13.328	13.291	13.373
DTProbeTrack03	4	ProbeTrackDT	1.1	SCS215a	20101101.090319	20101101.091717	dt-shadow	8	0.013328	60	10	60-180	60	149	GapExp	0	137	2	9	0	distractor	1	480	760	106019	13.328	12.857	13.805
DTProbeTrack03	4	ProbeTrackDT	1.1	SCS215a	20101101.090319	20101101.091723	dt-shadow	8	0.013328	60	10	60-180	60	94	GapExp	0	138	2	6	1	target	1	534	733	106752	13.328	12.849	13.804
DTProbeTrack03	4	ProbeTrackDT	1.1	SCS215a	20101101.090319	20101101.091728	dt-shadow	8	0.013328	60	10	60-180	60	86	GapExp	0	139	2	9	1	target	1	574	713	107465	13.328	12.902	13.767
DTProbeTrack03	4	ProbeTrackDT	1.1	SCS215a	20101101.090319	20101101.091733	dt-shadow	8	0.013328	60	10	60-180	60	92	GapExp	0	140	2	45	0	target	0	520	-1000	106465	13.328	13.308	13.348
DTProbeTrack03	4	ProbeTrackDT	1.1	SCS215a	20101101.090319	20101101.091739	dt-shadow	8	0.013328	60	10	60-180	60	122	GapExp	0	141	2	3	1	target	1	534	733	107198	13.328	13.308	13.347
DTProbeTrack03	4	ProbeTrackDT	1.1	SCS215a	20101101.090319	20101101.091744	dt-shadow	8	0.013328	60	10	60-180	60	157	GapExp	0	142	2	3	1	target	1	374	813	108011	13.328	13.295	13.354
DTProbeTrack03	4	ProbeTrackDT	1.1	SCS215a	20101101.090319	20101101.091750	dt-shadow	8	0.013328	60	10	60-180	60	109	GapExp	0	143	2	6	1	target	1	387	807	108818	13.328	13.094	13.559
DTProbeTrack03	4	ProbeTrackDT	1.1	SCS215a	20101101.090319	20101101.091756	dt-shadow	8	0.013328	60	10	60-180	60	173	GapExp	0	144	2	6	1	target	1	560	720	109538	13.328	12.878	13.771
DTProbeTrack03	4	ProbeTrackDT	1.1	SCS215a	20101101.090319	20101101.091802	dt-shadow	8	0.013328	60	10	60-180	60	74	GapExp	0	145	2	3	1	target	1	627	687	110225	13.328	12.913	13.741
DTProbeTrack03	4	ProbeTrackDT	1.1	SCS215a	20101101.090319	20101101.091807	dt-shadow	8	0.013328	60	10	60-180	60	76	GapExp	0	146	2	45	0	distractor	1	587	707	110932	13.328	13.087	13.550
DTProbeTrack03	4	ProbeTrackDT	1.1	SCS215a	20101101.090319	20101101.091813	dt-shadow	8	0.013328	60	10	60-180	60	88	GapExp	0	147	2	6	0	distractor	1	1120	440	111372	13.328	12.863	13.784
DTProbeTrack03	4	ProbeTrackDT	1.1	SCS215a	20101101.090319	20101101.091818	dt-shadow	8	0.013328	60	10	60-180	60	113	GapExp	0	148	2	1	0	target	0	613	-1000	110372	13.328	12.972	13.698
DTProbeTrack03	4	ProbeTrackDT	1.1	SCS215a	20101101.090319	20101101.091824	dt-shadow	8	0.013328	60	10	60-180	60	175	GapExp	0	149	2	3	1	target	1	547	727	111099	13.328	12.928	13.714
DTProbeTrack03	4	ProbeTrackDT	1.1	SCS215a	20101101.090319	20101101.091830	dt-shadow	8	0.013328	60	10	60-180	60	174	GapExp	0	150	2	45	1	target	1	534	733	111832	13.328	13.099	13.550
DTProbeTrack03	4	ProbeTrackDT	1.1	SCS215a	20101101.090319	20101101.091854	dt-shadow	8	0.013328	60	10	60-180	60	138	GapExp	0	151	2	45	0	target	0	587	-1000	110832	13.328	13.085	13.569
DTProbeTrack03	4	ProbeTrackDT	1.1	SCS215a	20101101.090319	20101101.091900	dt-shadow	8	0.013328	60	10	60-180	60	103	GapExp	0	152	2	9	1	target	1	440	780	111612	13.328	12.866	13.790
DTProbeTrack03	4	ProbeTrackDT	1.1	SCS215a	20101101.090319	20101101.091905	dt-shadow	8	0.013328	60	10	60-180	60	149	GapExp	0	153	2	45	0	distractor	1	747	627	112239	13.328	12.950	13.712
DTProbeTrack03	4	ProbeTrackDT	1.1	SCS215a	20101101.090319	20101101.091912	dt-shadow	8	0.013328	60	10	60-180	60	180	GapExp	0	154	2	1	1	target	1	534	733	112972	13.328	12.881	13.360
DTProbeTrack03	4	ProbeTrackDT	1.1	SCS215a	20101101.090319	20101101.091919	dt-shadow	8	0.013328	60	10	60-180	60	168	GapExp	0	155	2	9	1	target	1	600	700	113672	13.328	13.092	13.566
DTProbeTrack03	4	ProbeTrackDT	1.1	SCS215a	20101101.090319	20101101.091925	dt-shadow	8	0.013328	60	10	60-180	60	108	GapExp	0	156	2	1	1	target	1	400	800	114472	13.328	13.309	13.349
DTProbeTrack03	4	ProbeTrackDT	1.1	SCS215a	20101101.090319	20101101.091930	dt-shadow	8	0.013328	60	10	60-180	60	88	GapExp	0	157	2	9	0	distractor	1	454	773	115245	13.328	13.306	13.346
DTProbeTrack03	4	ProbeTrackDT	1.1	SCS215a	20101101.090319	20101101.091935	dt-shadow	8	0.013328	60	10	60-180	60	83	GapExp	0	158	2	3	0	target	0	627	-1000	114245	13.328	13.091	13.557
DTProbeTrack03	4	ProbeTrackDT	1.1	SCS215a	20101101.090319	20101101.091940	dt-shadow	8	0.013328	60	10	60-180	60	174	GapExp	0	159	2	45	1	target	1	613	694	114939	13.328	13.101	13.542
DTProbeTrack03	4	ProbeTrackDT	1.1	SCS215a	20101101.090319	20101101.091947	dt-shadow	8	0.013328	60	10	60-180	60	142	GapExp	0	160	2	45	1	target	1	627	687	115626	13.328	12.834	13.809
DTProbeTrack03	4	ProbeTrackDT	1.1	SCS215a	20101101.090319	20101101.091954	dt-shadow	8	0.013328	60	10	60-180	60	91	GapExp	0	161	2	9	0	distractor	1	667	667	116293	13.328	12.855	13.797
DTProbeTrack03	4	ProbeTrackDT	1.1	SCS215a	20101101.090319	20101101.091959	dt-shadow	8	0.013328	60	10	60-180	60	82	GapExp	0	162	2	6	0	distractor	1	627	687	116980	13.328	12.864	13.793
DTProbeTrack03	4	ProbeTrackDT	1.1	SCS215a	20101101.090319	20101101.092004	dt-shadow	8	0.013328	60	10	60-180	60	130	GapExp	0	163	2	1	1	target	1	414	793	117773	13.328	13.308	13.345
DTProbeTrack03	4	ProbeTrackDT	1.1	SCS215a	20101101.090319	20101101.092010	dt-shadow	8	0.013328	60	10	60-180	60	129	GapExp	0	164	2	3	1	target	1	560	720	118493	13.328	13.080	13.568
DTProbeTrack03	4	ProbeTrackDT	1.1	SCS215a	20101101.090319	20101101.092016	dt-shadow	8	0.013328	60	10	60-180	60	132	GapExp	0	165	2	1	1	target	1	520	740	119233	13.328	12.903	13.747
DTProbeTrack03	4	ProbeTrackDT	1.1	SCS215a	20101101.090319	20101101.092021	dt-shadow	8	0.013328	60	10	60-180	60	116	GapExp	0	166	2	1	0	distractor	1	547	727	119960	13.328	12.945	13.716
DTProbeTrack03	4	ProbeTrackDT	1.1	SCS215a	20101101.090319	20101101.092027	dt-shadow	8	0.013328	60	10	60-180	60	131	GapExp	0	167	2	45	1	target	1	494	753	120713	13.328	12.962	13.692
DTProbeTrack03	4	ProbeTrackDT	1.1	SCS215a	20101101.090319	20101101.092033	dt-shadow	8	0.013328	60	10	60-180	60	98	GapExp	0	168	2	45	0	distractor	1	640	680	121393	13.328	13.307	13.348
DTProbeTrack03	4	ProbeTrackDT	1.1	SCS215a	20101101.090319	20101101.092039	dt-shadow	8	0.013328	60	10	60-180	60	163	GapExp	0	169	2	3	0	distractor	1	520	740	122133	13.328	13.089	13.564
DTProbeTrack03	4	ProbeTrackDT	1.1	SCS215a	20101101.090319	20101101.092045	dt-shadow	8	0.013328	60	10	60-180	60	76	GapExp	0	170	2	9	1	target	1	440	780	122913	13.328	12.947	13.708
DTProbeTrack03	4	ProbeTrackDT	1.1	SCS215a	20101101.090319	20101101.092050	dt-shadow	8	0.013328	60	10	60-180	60	124	GapExp	0	171	2	6	0	distractor	1	440	780	123693	13.328	13.014	13.655
DTProbeTrack03	4	ProbeTrackDT	1.1	SCS215a	20101101.090319	20101101.092056	dt-shadow	8	0.013328	60	10	60-180	60	70	GapExp	0	172	2	3	1	target	1	574	713	124406	13.328	12.837	13.801
DTProbeTrack03	4	ProbeTrackDT	1.1	SCS215a	20101101.090319	20101101.092101	dt-shadow	8	0.013328	60	10	60-180	60	99	GapExp	0	173	2	3	0	distractor	1	547	727	125133	13.328	13.250	13.397
DTProbeTrack03	4	ProbeTrackDT	1.1	SCS215a	20101101.090319	20101101.092106	dt-shadow	8	0.013328	60	10	60-180	60	119	GapExp	0	174	2	6	0	distractor	1	587	707	125840	13.328	13.100	13.556
DTProbeTrack03	4	ProbeTrackDT	1.1	SCS215a	20101101.090319	20101101.092112	dt-shadow	8	0.013328	60	10	60-180	60	61	GapExp	0	175	2	6	0	distractor	1	547	727	126567	13.328	12.913	13.743
DTProbeTrack03	4	ProbeTrackDT	1.1	SCS215a	20101101.090319	20101101.092116	dt-shadow	8	0.013328	60	10	60-180	60	85	GapExp	0	176	2	1	1	target	1	400	800	127367	13.393	13.309	26.635
DTProbeTrack03	4	ProbeTrackDT	1.1	SCS215a	20101101.090319	20101101.092121	dt-shadow	8	0.013328	60	10	60-180	60	89	GapExp	0	177	2	9	0	distractor	1	494	753	128120	13.327	13.296	13.350
DTProbeTrack03	4	ProbeTrackDT	1.1	SCS215a	20101101.090319	20101101.092127	dt-shadow	8	0.013328	60	10	60-180	60	162	GapExp	0	178	2	1	0	distractor	1	534	733	128853	13.328	13.154	13.509
DTProbeTrack03	4	ProbeTrackDT	1.1	SCS215a	20101101.090319	20101101.092133	dt-shadow	8	0.013328	60	10	60-180	60	96	GapExp	0	179	2	6	0	distractor	1	294	853	129706	13.328	13.114	13.552
DTProbeTrack03	4	ProbeTrackDT	1.1	SCS215a	20101101.090319	20101101.092138	dt-shadow	8	0.013328	60	10	60-180	60	156	GapExp	0	180	2	1	0	distractor	1	507	747	130453	13.328	13.312	13.353
DTProbeTrack03	4	ProbeTrackDT	1.1	SCS215a	20101101.090319	20101101.092144	dt-shadow	8	0.013328	60	10	60-180	60	134	GapExp	0	181	2	45	1	target	1	547	727	131180	13.328	13.305	13.353
DTProbeTrack03	4	ProbeTrackDT	1.1	SCS215a	20101101.090319	20101101.092150	dt-shadow	8	0.013328	60	10	60-180	60	133	GapExp	0	182	2	3	1	target	1	494	753	131933	13.328	12.951	13.692
DTProbeTrack03	4	ProbeTrackDT	1.1	SCS215a	20101101.090319	20101101.092156	dt-shadow	8	0.013328	60	10	60-180	60	160	GapExp	0	183	2	45	1	target	1	494	753	132686	13.328	12.861	13.788
DTProbeTrack03	4	ProbeTrackDT	1.1	SCS215a	20101101.090319	20101101.092202	dt-shadow	8	0.013328	60	10	60-180	60	99	GapExp	0	184	2	45	1	target	1	960	520	133206	13.328	12.918	13.737
DTProbeTrack03	4	ProbeTrackDT	1.1	SCS215a	20101101.090319	20101101.092209	dt-shadow	8	0.013328	60	10	60-180	60	138	GapExp	0	185	2	6	1	target	1	640	680	133886	13.328	13.106	13.562
DTProbeTrack03	4	ProbeTrackDT	1.1	SCS215a	20101101.090319	20101101.092215	dt-shadow	8	0.013328	60	10	60-180	60	122	GapExp	0	186	2	3	0	distractor	1	520	740	134626	13.328	13.083	13.566
DTProbeTrack03	4	ProbeTrackDT	1.1	SCS215a	20101101.090319	20101101.092220	dt-shadow	8	0.013328	60	10	60-180	60	77	GapExp	0	187	2	9	0	distractor	1	480	760	135386	13.328	12.951	13.698
DTProbeTrack03	4	ProbeTrackDT	1.1	SCS215a	20101101.090319	20101101.092225	dt-shadow	8	0.013328	60	10	60-180	60	92	GapExp	0	188	2	3	1	target	1	534	733	136119	13.328	13.309	13.354
DTProbeTrack03	4	ProbeTrackDT	1.1	SCS215a	20101101.090319	20101101.092230	dt-shadow	8	0.013328	60	10	60-180	60	158	GapExp	0	189	2	9	0	distractor	1	467	767	136886	13.328	12.944	13.726
DTProbeTrack03	4	ProbeTrackDT	1.1	SCS215a	20101101.090319	20101101.092236	dt-shadow	8	0.013328	60	10	60-180	60	130	GapExp	0	190	2	9	0	distractor	1	720	640	137526	13.328	13.305	13.347
DTProbeTrack03	4	ProbeTrackDT	1.1	SCS215a	20101101.090319	20101101.092242	dt-shadow	8	0.013328	60	10	60-180	60	147	GapExp	0	191	2	45	1	target	1	374	813	138339	13.328	13.106	13.558
DTProbeTrack03	4	ProbeTrackDT	1.1	SCS215a	20101101.090319	20101101.092249	dt-shadow	8	0.013328	60	10	60-180	60	68	GapExp	0	192	2	1	1	target	1	547	727	139066	13.328	13.310	13.347
DTProbeTrack03	4	ProbeTrackDT	1.1	SCS215a	20101101.090319	20101101.092254	dt-shadow	8	0.013328	60	10	60-180	60	109	GapExp	0	193	2	45	0	distractor	1	534	733	139799	13.328	13.307	13.349
DTProbeTrack03	4	ProbeTrackDT	1.1	SCS215a	20101101.090319	20101101.092300	dt-shadow	8	0.013328	60	10	60-180	60	147	GapExp	0	194	2	1	0	distractor	1	507	747	140546	13.328	13.005	13.653
DTProbeTrack03	4	ProbeTrackDT	1.1	SCS215a	20101101.090319	20101101.092305	dt-shadow	8	0.013328	60	10	60-180	60	172	GapExp	0	195	2	6	1	target	1	480	760	141306	13.328	12.876	13.774
DTProbeTrack03	4	ProbeTrackDT	1.1	SCS215a	20101101.090319	20101101.092312	dt-shadow	8	0.013328	60	10	60-180	60	173	GapExp	0	196	2	1	1	target	1	307	847	142153	13.328	12.963	13.826
DTProbeTrack03	4	ProbeTrackDT	1.1	SCS215a	20101101.090319	20101101.092318	dt-shadow	8	0.013328	60	10	60-180	60	174	GapExp	0	197	2	6	0	distractor	1	600	700	142853	13.328	13.088	13.569
DTProbeTrack03	4	ProbeTrackDT	1.1	SCS215a	20101101.090319	20101101.092324	dt-shadow	8	0.013328	60	10	60-180	60	122	GapExp	0	198	2	1	1	target	1	440	780	143633	13.328	13.100	13.554
DTProbeTrack03	4	ProbeTrackDT	1.1	SCS215a	20101101.090319	20101101.092330	dt-shadow	8	0.013328	60	10	60-180	60	179	GapExp	0	199	2	45	0	distractor	1	494	753	144386	13.328	12.906	13.744
DTProbeTrack03	4	ProbeTrackDT	1.1	SCS215a	20101101.090319	20101101.092336	dt-shadow	8	0.013328	60	10	60-180	60	130	GapExp	0	200	2	1	1	target	1	534	733	145119	13.328	13.307	13.351
DTProbeTrack03	4	ProbeTrackDT	1.1	SCS215a	20101101.090319	20101101.092403	dt-shadow	8	0.013328	60	10	60-180	60	115	GapExp	0	201	2	6	1	target	1	440	780	145899	13.328	13.178	13.486
DTProbeTrack03	4	ProbeTrackDT	1.1	SCS215a	20101101.090319	20101101.092408	dt-shadow	8	0.013328	60	10	60-180	60	86	GapExp	0	202	2	45	0	distractor	1	480	760	146659	13.328	13.096	13.566
DTProbeTrack03	4	ProbeTrackDT	1.1	SCS215a	20101101.090319	20101101.092414	dt-shadow	8	0.013328	60	10	60-180	60	72	GapExp	0	203	2	6	1	target	1	414	793	147452	13.328	13.305	13.346
DTProbeTrack03	4	ProbeTrackDT	1.1	SCS215a	20101101.090319	20101101.092419	dt-shadow	8	0.013328	60	10	60-180	60	172	GapExp	0	204	2	1	0	distractor	1	574	713	148165	13.328	13.308	13.349
DTProbeTrack03	4	ProbeTrackDT	1.1	SCS215a	20101101.090319	20101101.092425	dt-shadow	8	0.013328	60	10	60-180	60	77	GapExp	0	205	2	9	1	target	1	547	727	148892	13.328	12.907	13.741
DTProbeTrack03	4	ProbeTrackDT	1.1	SCS215a	20101101.092726	20101101.092731	dt-generate	8	0.013328	60	10	60-180	60	77	GapPrac	1	1	2	1	0	target	0	1826	-1000	147892	13.328	13.103	13.553
DTProbeTrack03	4	ProbeTrackDT	1.1	SCS215a	20101101.092726	20101101.092738	dt-generate	8	0.013328	60	10	60-180	60	144	GapPrac	1	2	2	9	1	distractor	0	1107	-1000	146892	13.328	13.107	13.563
DTProbeTrack03	4	ProbeTrackDT	1.1	SCS215a	20101101.092726	20101101.092744	dt-generate	8	0.013328	60	10	60-180	60	94	GapPrac	1	3	2	1	1	target	1	587	707	147599	13.328	12.878	13.773
DTProbeTrack03	4	ProbeTrackDT	1.1	SCS215a	20101101.092726	20101101.092749	dt-generate	8	0.013328	60	10	60-180	60	69	GapPrac	1	4	2	6	0	target	0	547	-1000	146599	13.328	12.938	13.713
DTProbeTrack03	4	ProbeTrackDT	1.1	SCS215a	20101101.092726	20101101.092754	dt-generate	8	0.013328	60	10	60-180	60	64	GapPrac	1	5	2	3	1	distractor	0	840	-1000	145599	13.328	12.885	13.765
DTProbeTrack03	4	ProbeTrackDT	1.1	SCS215a	20101101.092726	20101101.092800	dt-generate	8	0.013328	60	10	60-180	60	101	GapPrac	1	6	2	6	1	target	1	613	694	146293	13.328	13.098	13.550
DTProbeTrack03	4	ProbeTrackDT	1.1	SCS215a	20101101.092726	20101101.092805	dt-generate	8	0.013328	60	10	60-180	60	103	GapPrac	1	7	2	6	1	target	1	813	594	146887	13.328	13.100	13.555
DTProbeTrack03	4	ProbeTrackDT	1.1	SCS215a	20101101.092726	20101101.092811	dt-generate	8	0.013328	60	10	60-180	60	98	GapPrac	1	8	2	6	0	target	0	1013	-1000	145887	13.328	13.307	13.349
DTProbeTrack03	4	ProbeTrackDT	1.1	SCS215a	20101101.092726	20101101.092816	dt-generate	8	0.013328	60	10	60-180	60	174	GapPrac	1	9	2	9	1	target	1	6624	0	145887	13.328	12.846	13.821
DTProbeTrack03	4	ProbeTrackDT	1.1	SCS215a	20101101.092726	20101101.092829	dt-generate	8	0.013328	60	10	60-180	60	113	GapPrac	1	10	2	3	0	target	0	454	-1000	144887	13.328	13.302	13.347
DTProbeTrack03	4	ProbeTrackDT	1.1	SCS215a	20101101.092726	20101101.092834	dt-generate	8	0.013328	60	10	60-180	60	77	GapPrac	1	11	2	1	0	distractor	1	534	733	145620	13.328	12.850	13.756
DTProbeTrack03	4	ProbeTrackDT	1.1	SCS215a	20101101.092726	20101101.092839	dt-generate	8	0.013328	60	10	60-180	60	91	GapPrac	1	12	2	45	1	target	1	733	634	146254	13.328	12.882	13.801
DTProbeTrack03	4	ProbeTrackDT	1.1	SCS215a	20101101.092726	20101101.092845	dt-generate	8	0.013328	60	10	60-180	60	171	GapPrac	1	13	2	9	0	target	0	880	-1000	145254	13.328	12.835	13.821
DTProbeTrack03	4	ProbeTrackDT	1.1	SCS215a	20101101.092726	20101101.092852	dt-generate	8	0.013328	60	10	60-180	60	75	GapPrac	1	14	2	1	1	distractor	0	5132	-1000	144254	13.328	12.882	13.772
DTProbeTrack03	4	ProbeTrackDT	1.1	SCS215a	20101101.092726	20101101.092901	dt-generate	8	0.013328	60	10	60-180	60	93	GapPrac	1	15	2	3	0	target	0	600	-1000	143254	13.386	12.902	27.078
DTProbeTrack03	4	ProbeTrackDT	1.1	SCS215a	20101101.092726	20101101.092907	dt-generate	8	0.013328	60	10	60-180	60	164	GapPrac	1	16	2	45	1	target	1	360	820	144074	13.328	12.858	13.803
DTProbeTrack03	4	ProbeTrackDT	1.1	SCS215a	20101101.092726	20101101.092913	dt-generate	8	0.013328	60	10	60-180	60	162	GapPrac	1	17	2	3	1	target	1	507	747	144821	13.328	13.237	13.428
DTProbeTrack03	4	ProbeTrackDT	1.1	SCS215a	20101101.092726	20101101.092919	dt-generate	8	0.013328	60	10	60-180	60	159	GapPrac	1	18	2	45	0	target	0	1213	-1000	143821	13.328	12.893	13.768
DTProbeTrack03	4	ProbeTrackDT	1.1	SCS215a	20101101.092726	20101101.092927	dt-generate	8	0.013328	60	10	60-180	60	138	GapPrac	1	19	2	9	0	distractor	1	520	740	144561	13.328	13.300	13.359
DTProbeTrack03	4	ProbeTrackDT	1.1	SCS215a	20101101.092726	20101101.092933	dt-generate	8	0.013328	60	10	60-180	60	73	GapPrac	1	20	2	45	0	distractor	1	733	634	145195	13.328	13.282	13.365
DTProbeTrack03	4	ProbeTrackDT	1.1	SCS215a	20101101.093015	20101101.093021	dt-generate	8	0.013328	60	10	60-180	60	126	GapExp	1	1	2	45	1	target	1	520	740	145935	13.328	13.308	13.345
DTProbeTrack03	4	ProbeTrackDT	1.1	SCS215a	20101101.093015	20101101.093027	dt-generate	8	0.013328	60	10	60-180	60	149	GapExp	1	2	2	45	0	distractor	1	614	693	146628	13.328	13.006	13.655
DTProbeTrack03	4	ProbeTrackDT	1.1	SCS215a	20101101.093015	20101101.093034	dt-generate	8	0.013328	60	10	60-180	60	90	GapExp	1	3	2	1	1	target	1	853	574	147202	13.328	12.857	13.800
DTProbeTrack03	4	ProbeTrackDT	1.1	SCS215a	20101101.093015	20101101.093039	dt-generate	8	0.013328	60	10	60-180	60	67	GapExp	1	4	2	3	0	target	0	1880	-1000	146202	13.390	12.870	26.722
DTProbeTrack03	4	ProbeTrackDT	1.1	SCS215a	20101101.093015	20101101.093045	dt-generate	8	0.013328	60	10	60-180	60	68	GapExp	1	5	2	6	0	distractor	1	640	680	146882	13.329	13.034	13.622
DTProbeTrack03	4	ProbeTrackDT	1.1	SCS215a	20101101.093015	20101101.093050	dt-generate	8	0.013328	60	10	60-180	60	72	GapExp	0	6	2	1	0	distractor	1	653	674	147556	13.328	12.943	13.700
DTProbeTrack03	4	ProbeTrackDT	1.1	SCS215a	20101101.093015	20101101.093055	dt-generate	8	0.013328	60	10	60-180	60	163	GapExp	0	7	2	9	0	distractor	1	520	740	148296	13.328	13.306	13.348
DTProbeTrack03	4	ProbeTrackDT	1.1	SCS215a	20101101.093015	20101101.093102	dt-generate	8	0.013328	60	10	60-180	60	78	GapExp	0	8	2	45	0	target	0	867	-1000	147296	13.328	13.038	13.618
DTProbeTrack03	4	ProbeTrackDT	1.1	SCS215a	20101101.093015	20101101.093108	dt-generate	8	0.013328	60	10	60-180	60	165	GapExp	0	9	2	9	0	target	0	800	-1000	146296	13.328	12.913	13.732
DTProbeTrack03	4	ProbeTrackDT	1.1	SCS215a	20101101.093015	20101101.093114	dt-generate	8	0.013328	60	10	60-180	60	136	GapExp	0	10	2	6	0	target	0	867	-1000	145296	13.328	12.980	13.701
DTProbeTrack03	4	ProbeTrackDT	1.1	SCS215a	20101101.093015	20101101.093120	dt-generate	8	0.013328	60	10	60-180	60	134	GapExp	0	11	2	9	0	distractor	1	587	707	146003	13.328	12.891	13.773
DTProbeTrack03	4	ProbeTrackDT	1.1	SCS215a	20101101.093015	20101101.093126	dt-generate	8	0.013328	60	10	60-180	60	173	GapExp	0	12	2	9	1	target	1	494	753	146756	13.328	12.850	13.788
DTProbeTrack03	4	ProbeTrackDT	1.1	SCS215a	20101101.093015	20101101.093132	dt-generate	8	0.013328	60	10	60-180	60	108	GapExp	0	13	2	45	1	distractor	0	720	-1000	145756	13.328	12.883	13.785
DTProbeTrack03	4	ProbeTrackDT	1.1	SCS215a	20101101.093015	20101101.093138	dt-generate	8	0.013328	60	10	60-180	60	79	GapExp	0	14	2	3	0	target	0	547	-1000	144756	13.328	13.255	13.404
DTProbeTrack03	4	ProbeTrackDT	1.1	SCS215a	20101101.093015	20101101.093143	dt-generate	8	0.013328	60	10	60-180	60	110	GapExp	0	15	2	45	1	target	1	520	740	145496	13.328	12.857	13.806
DTProbeTrack03	4	ProbeTrackDT	1.1	SCS215a	20101101.093015	20101101.093149	dt-generate	8	0.013328	60	10	60-180	60	91	GapExp	0	16	2	1	1	target	1	600	700	146196	13.328	12.880	13.790
DTProbeTrack03	4	ProbeTrackDT	1.1	SCS215a	20101101.093015	20101101.093155	dt-generate	8	0.013328	60	10	60-180	60	124	GapExp	0	17	2	6	1	target	1	560	720	146916	13.328	13.038	13.610
DTProbeTrack03	4	ProbeTrackDT	1.1	SCS215a	20101101.093015	20101101.093200	dt-generate	8	0.013328	60	10	60-180	60	65	GapExp	0	18	2	3	1	target	1	587	707	147623	13.328	13.308	13.353
DTProbeTrack03	4	ProbeTrackDT	1.1	SCS215a	20101101.093015	20101101.093205	dt-generate	8	0.013328	60	10	60-180	60	108	GapExp	0	19	2	3	1	target	1	853	574	148197	13.328	13.104	13.558
DTProbeTrack03	4	ProbeTrackDT	1.1	SCS215a	20101101.093015	20101101.093211	dt-generate	8	0.013328	60	10	60-180	60	96	GapExp	0	20	2	3	1	target	1	507	747	148944	13.328	12.952	13.713
DTProbeTrack03	4	ProbeTrackDT	1.1	SCS215a	20101101.093015	20101101.093216	dt-generate	8	0.013328	60	10	60-180	60	107	GapExp	0	21	2	1	1	target	1	667	667	149611	13.329	12.886	13.770
DTProbeTrack03	4	ProbeTrackDT	1.1	SCS215a	20101101.093015	20101101.093221	dt-generate	8	0.013328	60	10	60-180	60	165	GapExp	0	22	2	3	0	target	0	427	-1000	148611	13.328	13.056	13.604
DTProbeTrack03	4	ProbeTrackDT	1.1	SCS215a	20101101.093015	20101101.093228	dt-generate	8	0.013328	60	10	60-180	60	68	GapExp	0	23	2	1	1	distractor	0	907	-1000	147611	13.328	12.875	13.785
DTProbeTrack03	4	ProbeTrackDT	1.1	SCS215a	20101101.093015	20101101.093233	dt-generate	8	0.013328	60	10	60-180	60	77	GapExp	0	24	2	45	1	target	1	693	654	148265	13.328	12.915	13.741
DTProbeTrack03	4	ProbeTrackDT	1.1	SCS215a	20101101.093015	20101101.093238	dt-generate	8	0.013328	60	10	60-180	60	164	GapExp	0	25	2	9	0	target	0	534	-1000	147265	13.328	12.871	13.791
DTProbeTrack03	4	ProbeTrackDT	1.1	SCS215a	20101101.093015	20101101.093245	dt-generate	8	0.013328	60	10	60-180	60	145	GapExp	0	26	2	1	1	target	1	507	747	148012	13.328	12.987	13.668
DTProbeTrack03	4	ProbeTrackDT	1.1	SCS215a	20101101.093015	20101101.093251	dt-generate	8	0.013328	60	10	60-180	60	131	GapExp	0	27	2	9	1	target	1	307	847	148859	13.328	13.309	13.348
DTProbeTrack03	4	ProbeTrackDT	1.1	SCS215a	20101101.093015	20101101.093256	dt-generate	8	0.013328	60	10	60-180	60	64	GapExp	0	28	2	3	0	distractor	1	520	740	149599	13.328	12.922	13.734
DTProbeTrack03	4	ProbeTrackDT	1.1	SCS215a	20101101.093015	20101101.093301	dt-generate	8	0.013328	60	10	60-180	60	157	GapExp	0	29	2	9	1	target	1	733	634	150233	13.328	13.100	13.557
DTProbeTrack03	4	ProbeTrackDT	1.1	SCS215a	20101101.093015	20101101.093307	dt-generate	8	0.013328	60	10	60-180	60	159	GapExp	0	30	2	1	1	target	1	693	654	150887	13.328	12.873	13.740
DTProbeTrack03	4	ProbeTrackDT	1.1	SCS215a	20101101.093015	20101101.093313	dt-generate	8	0.013328	60	10	60-180	60	98	GapExp	0	31	2	1	1	target	1	2453	0	150887	13.328	13.030	13.639
DTProbeTrack03	4	ProbeTrackDT	1.1	SCS215a	20101101.093015	20101101.093321	dt-generate	8	0.013328	60	10	60-180	60	143	GapExp	0	32	2	1	0	target	0	667	-1000	149887	13.328	13.114	13.548
DTProbeTrack03	4	ProbeTrackDT	1.1	SCS215a	20101101.093015	20101101.093327	dt-generate	8	0.013328	60	10	60-180	60	103	GapExp	0	33	2	6	0	distractor	1	507	747	150634	13.328	12.933	13.728
DTProbeTrack03	4	ProbeTrackDT	1.1	SCS215a	20101101.093015	20101101.093332	dt-generate	8	0.013328	60	10	60-180	60	104	GapExp	0	34	2	3	0	target	0	747	-1000	149634	13.328	12.983	13.661
DTProbeTrack03	4	ProbeTrackDT	1.1	SCS215a	20101101.093015	20101101.093337	dt-generate	8	0.013328	60	10	60-180	60	110	GapExp	0	35	2	3	0	distractor	1	693	654	150288	13.328	13.307	13.345
DTProbeTrack03	4	ProbeTrackDT	1.1	SCS215a	20101101.093015	20101101.093343	dt-generate	8	0.013328	60	10	60-180	60	112	GapExp	0	36	2	6	0	target	0	707	-1000	149288	13.328	13.306	13.347
DTProbeTrack03	4	ProbeTrackDT	1.1	SCS215a	20101101.093015	20101101.093349	dt-generate	8	0.013328	60	10	60-180	60	130	GapExp	0	37	2	9	0	distractor	1	520	740	150028	13.328	12.903	13.753
DTProbeTrack03	4	ProbeTrackDT	1.1	SCS215a	20101101.093015	20101101.093355	dt-generate	8	0.013328	60	10	60-180	60	170	GapExp	0	38	2	45	0	distractor	1	467	767	150795	13.328	13.092	13.555
DTProbeTrack03	4	ProbeTrackDT	1.1	SCS215a	20101101.093015	20101101.093401	dt-generate	8	0.013328	60	10	60-180	60	121	GapExp	0	39	2	45	0	distractor	1	507	747	151542	13.328	13.086	13.559
DTProbeTrack03	4	ProbeTrackDT	1.1	SCS215a	20101101.093015	20101101.093407	dt-generate	8	0.013328	60	10	60-180	60	64	GapExp	0	40	2	9	1	target	1	1520	240	151782	13.328	13.304	13.355
DTProbeTrack03	4	ProbeTrackDT	1.1	SCS215a	20101101.093015	20101101.093413	dt-generate	8	0.013328	60	10	60-180	60	111	GapExp	0	41	2	1	0	target	0	693	-1000	150782	13.381	13.040	26.619
DTProbeTrack03	4	ProbeTrackDT	1.1	SCS215a	20101101.093015	20101101.093419	dt-generate	8	0.013328	60	10	60-180	60	144	GapExp	0	42	2	6	1	distractor	0	1027	-1000	149782	13.328	13.297	13.356
DTProbeTrack03	4	ProbeTrackDT	1.1	SCS215a	20101101.093015	20101101.093425	dt-generate	8	0.013328	60	10	60-180	60	171	GapExp	0	43	2	3	0	target	0	480	-1000	148782	13.328	13.120	13.535
DTProbeTrack03	4	ProbeTrackDT	1.1	SCS215a	20101101.093015	20101101.093432	dt-generate	8	0.013328	60	10	60-180	60	152	GapExp	0	44	2	45	0	distractor	1	947	527	149309	13.328	12.862	13.802
DTProbeTrack03	4	ProbeTrackDT	1.1	SCS215a	20101101.093015	20101101.093439	dt-generate	8	0.013328	60	10	60-180	60	162	GapExp	0	45	2	6	1	target	1	600	700	150009	13.328	12.918	13.732
DTProbeTrack03	4	ProbeTrackDT	1.1	SCS215a	20101101.093015	20101101.093445	dt-generate	8	0.013328	60	10	60-180	60	67	GapExp	0	46	2	1	0	target	0	853	-1000	149009	13.328	13.011	13.638
DTProbeTrack03	4	ProbeTrackDT	1.1	SCS215a	20101101.093015	20101101.093450	dt-generate	8	0.013328	60	10	60-180	60	117	GapExp	0	47	2	1	1	13	-3	627	-1000	148009	13.328	12.934	13.702
DTProbeTrack03	4	ProbeTrackDT	1.1	SCS215a	20101101.093015	20101101.093456	dt-generate	8	0.013328	60	10	60-180	60	150	GapExp	0	48	2	6	0	target	0	720	-1000	147009	13.328	13.026	13.628
DTProbeTrack03	4	ProbeTrackDT	1.1	SCS215a	20101101.093015	20101101.093502	dt-generate	8	0.013328	60	10	60-180	60	176	GapExp	0	49	2	6	0	target	0	760	-1000	146009	13.328	13.308	13.356
DTProbeTrack03	4	ProbeTrackDT	1.1	SCS215a	20101101.093015	20101101.093508	dt-generate	8	0.013328	60	10	60-180	60	130	GapExp	0	50	2	6	0	target	0	693	-1000	145009	13.328	12.918	13.744
DTProbeTrack03	4	ProbeTrackDT	1.1	SCS215a	20101101.093015	20101101.093541	dt-generate	8	0.013328	60	10	60-180	60	102	GapExp	0	51	2	9	1	target	1	534	733	145742	13.328	12.889	13.767
DTProbeTrack03	4	ProbeTrackDT	1.1	SCS215a	20101101.093015	20101101.093546	dt-generate	8	0.013328	60	10	60-180	60	80	GapExp	0	52	2	6	0	distractor	1	1400	300	146042	13.328	13.302	13.353
DTProbeTrack03	4	ProbeTrackDT	1.1	SCS215a	20101101.093015	20101101.093552	dt-generate	8	0.013328	60	10	60-180	60	101	GapExp	0	53	2	3	0	distractor	1	667	667	146709	13.328	13.292	13.361
DTProbeTrack03	4	ProbeTrackDT	1.1	SCS215a	20101101.093015	20101101.093557	dt-generate	8	0.013328	60	10	60-180	60	156	GapExp	0	54	2	45	1	target	1	640	680	147389	13.328	12.911	13.734
DTProbeTrack03	4	ProbeTrackDT	1.1	SCS215a	20101101.093015	20101101.093604	dt-generate	8	0.013328	60	10	60-180	60	113	GapExp	0	55	2	6	0	distractor	1	693	654	148043	13.328	12.913	13.752
DTProbeTrack03	4	ProbeTrackDT	1.1	SCS215a	20101101.093015	20101101.093610	dt-generate	8	0.013328	60	10	60-180	60	71	GapExp	0	56	2	6	0	distractor	1	574	713	148756	13.328	12.889	13.563
DTProbeTrack03	4	ProbeTrackDT	1.1	SCS215a	20101101.093015	20101101.093615	dt-generate	8	0.013328	60	10	60-180	60	161	GapExp	0	57	2	3	1	distractor	0	280	-1000	147756	13.328	12.943	13.728
DTProbeTrack03	4	ProbeTrackDT	1.1	SCS215a	20101101.093015	20101101.093621	dt-generate	8	0.013328	60	10	60-180	60	114	GapExp	0	58	2	3	0	target	0	627	-1000	146756	13.328	13.119	13.540
DTProbeTrack03	4	ProbeTrackDT	1.1	SCS215a	20101101.093015	20101101.093626	dt-generate	8	0.013328	60	10	60-180	60	161	GapExp	0	59	2	9	0	distractor	1	494	753	147509	13.328	12.878	13.766
DTProbeTrack03	4	ProbeTrackDT	1.1	SCS215a	20101101.093015	20101101.093632	dt-generate	8	0.013328	60	10	60-180	60	170	GapExp	0	60	2	3	0	target	0	720	-1000	146509	13.328	12.935	13.712
DTProbeTrack03	4	ProbeTrackDT	1.1	SCS215a	20101101.093015	20101101.093639	dt-generate	8	0.013328	60	10	60-180	60	103	GapExp	0	61	2	3	1	target	1	720	640	147149	13.328	13.134	13.523
DTProbeTrack03	4	ProbeTrackDT	1.1	SCS215a	20101101.093015	20101101.093644	dt-generate	8	0.013328	60	10	60-180	60	150	GapExp	0	62	2	9	1	target	1	853	574	147723	13.328	13.092	13.564
DTProbeTrack03	4	ProbeTrackDT	1.1	SCS215a	20101101.093015	20101101.093651	dt-generate	8	0.013328	60	10	60-180	60	84	GapExp	0	63	2	9	1	target	1	707	647	148370	13.328	13.084	13.571
DTProbeTrack03	4	ProbeTrackDT	1.1	SCS215a	20101101.093015	20101101.093656	dt-generate	8	0.013328	60	10	60-180	60	147	GapExp	0	64	2	45	1	target	1	467	767	149137	13.328	13.107	13.542
DTProbeTrack03	4	ProbeTrackDT	1.1	SCS215a	20101101.093015	20101101.093702	dt-generate	8	0.013328	60	10	60-180	60	83	GapExp	0	65	2	3	1	target	1	1053	474	149611	13.328	12.869	13.799
DTProbeTrack03	4	ProbeTrackDT	1.1	SCS215a	20101101.093015	20101101.093708	dt-generate	8	0.013328	60	10	60-180	60	162	GapExp	0	66	2	1	1	target	1	920	540	150151	13.328	13.067	13.596
DTProbeTrack03	4	ProbeTrackDT	1.1	SCS215a	20101101.093015	20101101.093715	dt-generate	8	0.013328	60	10	60-180	60	90	GapExp	0	67	2	9	0	target	0	5798	-1000	149151	13.328	13.312	13.347
DTProbeTrack03	4	ProbeTrackDT	1.1	SCS215a	20101101.093015	20101101.093725	dt-generate	8	0.013328	60	10	60-180	60	71	GapExp	0	68	2	1	0	target	0	1960	-1000	148151	13.328	13.037	13.619
DTProbeTrack03	4	ProbeTrackDT	1.1	SCS215a	20101101.093015	20101101.093731	dt-generate	8	0.013328	60	10	60-180	60	97	GapExp	0	69	2	45	0	target	0	1013	-1000	147151	13.328	12.893	13.762
DTProbeTrack03	4	ProbeTrackDT	1.1	SCS215a	20101101.093015	20101101.093738	dt-generate	8	0.013328	60	10	60-180	60	154	GapExp	0	70	2	45	1	target	1	1560	220	147371	13.328	12.847	13.795
DTProbeTrack03	4	ProbeTrackDT	1.1	SCS215a	20101101.093015	20101101.093745	dt-generate	8	0.013328	60	10	60-180	60	67	GapExp	0	71	2	45	0	target	0	853	-1000	146371	13.328	12.899	13.771
DTProbeTrack03	4	ProbeTrackDT	1.1	SCS215a	20101101.093015	20101101.093751	dt-generate	8	0.013328	60	10	60-180	60	100	GapExp	0	72	2	45	1	target	1	827	587	146958	13.328	12.864	13.773
DTProbeTrack03	4	ProbeTrackDT	1.1	SCS215a	20101101.093015	20101101.093757	dt-generate	8	0.013328	60	10	60-180	60	165	GapExp	0	73	2	9	0	distractor	1	1253	374	147332	13.369	12.885	26.587
DTProbeTrack03	4	ProbeTrackDT	1.1	SCS215a	20101101.093015	20101101.093804	dt-generate	8	0.013328	60	10	60-180	60	80	GapExp	0	74	2	6	1	target	1	1666	167	147499	13.385	12.946	26.511
DTProbeTrack03	4	ProbeTrackDT	1.1	SCS215a	20101101.093015	20101101.093810	dt-generate	8	0.013328	60	10	60-180	60	85	GapExp	0	75	2	6	1	target	1	480	760	148259	13.328	13.310	13.348
DTProbeTrack03	4	ProbeTrackDT	1.1	SCS215a	20101101.093015	20101101.093815	dt-generate	8	0.013328	60	10	60-180	60	102	GapExp	0	76	2	1	1	target	1	427	787	149046	13.328	12.938	13.717
DTProbeTrack03	4	ProbeTrackDT	1.1	SCS215a	20101101.093015	20101101.093820	dt-generate	8	0.013328	60	10	60-180	60	178	GapExp	0	77	2	3	0	distractor	1	574	713	149759	13.413	13.093	26.547
DTProbeTrack03	4	ProbeTrackDT	1.1	SCS215a	20101101.093015	20101101.093827	dt-generate	8	0.013328	60	10	60-180	60	153	GapExp	0	78	2	1	1	target	1	467	767	150526	13.424	13.085	26.519
DTProbeTrack03	4	ProbeTrackDT	1.1	SCS215a	20101101.093015	20101101.093833	dt-generate	8	0.013328	60	10	60-180	60	119	GapExp	0	79	2	6	0	target	0	640	-1000	149526	13.328	12.845	13.680
DTProbeTrack03	4	ProbeTrackDT	1.1	SCS215a	20101101.093015	20101101.093838	dt-generate	8	0.013328	60	10	60-180	60	75	GapExp	0	80	2	3	1	target	1	973	514	150040	13.328	12.897	13.751
DTProbeTrack03	4	ProbeTrackDT	1.1	SCS215a	20101101.093015	20101101.093844	dt-generate	8	0.013328	60	10	60-180	60	100	GapExp	0	81	2	6	1	target	1	3226	0	150040	13.434	12.929	26.694
DTProbeTrack03	4	ProbeTrackDT	1.1	SCS215a	20101101.093015	20101101.093852	dt-generate	8	0.013328	60	10	60-180	60	128	GapExp	0	82	2	1	1	distractor	0	1506	-1000	149040	13.328	12.870	13.781
DTProbeTrack03	4	ProbeTrackDT	1.1	SCS215a	20101101.093015	20101101.093859	dt-generate	8	0.013328	60	10	60-180	60	74	GapExp	0	83	2	3	0	target	0	560	-1000	148040	13.328	12.862	13.788
DTProbeTrack03	4	ProbeTrackDT	1.1	SCS215a	20101101.093015	20101101.093903	dt-generate	8	0.013328	60	10	60-180	60	71	GapExp	0	84	2	6	1	target	1	1440	280	148320	13.328	12.942	13.708
DTProbeTrack03	4	ProbeTrackDT	1.1	SCS215a	20101101.093015	20101101.093909	dt-generate	8	0.013328	60	10	60-180	60	92	GapExp	0	85	2	9	1	target	1	613	694	149014	13.442	13.297	26.557
DTProbeTrack03	4	ProbeTrackDT	1.1	SCS215a	20101101.093015	20101101.093915	dt-generate	8	0.013328	60	10	60-180	60	78	GapExp	0	86	2	1	1	target	1	640	680	149694	13.453	12.868	39.820
DTProbeTrack03	4	ProbeTrackDT	1.1	SCS215a	20101101.093015	20101101.093920	dt-generate	8	0.013328	60	10	60-180	60	133	GapExp	0	87	2	9	0	target	0	1067	-1000	148694	13.328	13.310	13.353
DTProbeTrack03	4	ProbeTrackDT	1.1	SCS215a	20101101.093015	20101101.093926	dt-generate	8	0.013328	60	10	60-180	60	69	GapExp	0	88	2	6	0	distractor	1	853	574	149268	13.388	12.933	26.700
DTProbeTrack03	4	ProbeTrackDT	1.1	SCS215a	20101101.093015	20101101.093931	dt-generate	8	0.013328	60	10	60-180	60	61	GapExp	0	89	2	6	0	target	0	560	-1000	148268	13.328	13.099	13.545
DTProbeTrack03	4	ProbeTrackDT	1.1	SCS215a	20101101.093015	20101101.093936	dt-generate	8	0.013328	60	10	60-180	60	149	GapExp	0	90	2	6	1	target	1	627	687	148955	13.328	12.964	13.688
DTProbeTrack03	4	ProbeTrackDT	1.1	SCS215a	20101101.093015	20101101.093942	dt-generate	8	0.013328	60	10	60-180	60	75	GapExp	0	91	2	3	1	target	1	813	594	149549	13.328	13.303	13.346
DTProbeTrack03	4	ProbeTrackDT	1.1	SCS215a	20101101.093015	20101101.093947	dt-generate	8	0.013328	60	10	60-180	60	170	GapExp	0	92	2	1	1	target	1	694	653	150202	13.328	13.035	13.609
DTProbeTrack03	4	ProbeTrackDT	1.1	SCS215a	20101101.093015	20101101.093954	dt-generate	8	0.013328	60	10	60-180	60	111	GapExp	0	93	2	9	0	target	0	840	-1000	149202	13.328	12.896	13.747
DTProbeTrack03	4	ProbeTrackDT	1.1	SCS215a	20101101.093015	20101101.094000	dt-generate	8	0.013328	60	10	60-180	60	119	GapExp	0	94	2	45	1	target	1	693	654	149856	13.328	13.084	13.562
DTProbeTrack03	4	ProbeTrackDT	1.1	SCS215a	20101101.093015	20101101.094006	dt-generate	8	0.013328	60	10	60-180	60	66	GapExp	0	95	2	1	0	target	0	1786	-1000	148856	13.328	12.899	13.764
DTProbeTrack03	4	ProbeTrackDT	1.1	SCS215a	20101101.093015	20101101.094012	dt-generate	8	0.013328	60	10	60-180	60	153	GapExp	0	96	2	45	0	target	0	1147	-1000	147856	13.405	13.038	26.678
DTProbeTrack03	4	ProbeTrackDT	1.1	SCS215a	20101101.093015	20101101.094019	dt-generate	8	0.013328	60	10	60-180	60	118	GapExp	0	97	2	45	0	distractor	1	680	660	148516	13.328	12.876	13.781
DTProbeTrack03	4	ProbeTrackDT	1.1	SCS215a	20101101.093015	20101101.094025	dt-generate	8	0.013328	60	10	60-180	60	98	GapExp	0	98	2	45	1	target	1	440	780	149296	13.328	12.945	13.707
DTProbeTrack03	4	ProbeTrackDT	1.1	SCS215a	20101101.093015	20101101.094031	dt-generate	8	0.013328	60	10	60-180	60	153	GapExp	0	99	2	9	1	target	1	547	727	150023	13.328	12.927	13.724
DTProbeTrack03	4	ProbeTrackDT	1.1	SCS215a	20101101.093015	20101101.094037	dt-generate	8	0.013328	60	10	60-180	60	110	GapExp	0	100	2	3	1	target	1	347	827	150850	13.328	12.865	13.797
DTProbeTrack03	4	ProbeTrackDT	1.1	SCS215a	20101101.093015	20101101.094115	dt-generate	8	0.013328	60	10	60-180	60	145	GapExp	0	101	2	3	1	target	1	680	660	151510	13.422	13.030	39.942
DTProbeTrack03	4	ProbeTrackDT	1.1	SCS215a	20101101.093015	20101101.094121	dt-generate	8	0.013328	60	10	60-180	60	166	GapExp	0	102	2	9	0	distractor	1	560	720	152230	13.328	13.034	13.635
DTProbeTrack03	4	ProbeTrackDT	1.1	SCS215a	20101101.093015	20101101.094127	dt-generate	8	0.013328	60	10	60-180	60	90	GapExp	0	103	2	1	1	target	1	427	787	153017	13.328	12.935	13.723
DTProbeTrack03	4	ProbeTrackDT	1.1	SCS215a	20101101.093015	20101101.094132	dt-generate	8	0.013328	60	10	60-180	60	63	GapExp	0	104	2	9	0	distractor	1	987	507	153524	13.389	13.306	26.355
DTProbeTrack03	4	ProbeTrackDT	1.1	SCS215a	20101101.093015	20101101.094138	dt-generate	8	0.013328	60	10	60-180	60	89	GapExp	0	105	2	45	0	target	0	1080	-1000	152524	13.375	12.852	26.686
DTProbeTrack03	4	ProbeTrackDT	1.1	SCS215a	20101101.093015	20101101.094144	dt-generate	8	0.013328	60	10	60-180	60	95	GapExp	0	106	2	3	1	target	1	3026	0	152524	13.492	13.097	53.231
DTProbeTrack03	4	ProbeTrackDT	1.1	SCS215a	20101101.093015	20101101.094152	dt-generate	8	0.013328	60	10	60-180	60	128	GapExp	0	107	2	3	1	target	1	733	634	153158	13.329	12.933	13.708
DTProbeTrack03	4	ProbeTrackDT	1.1	SCS215a	20101101.093015	20101101.094157	dt-generate	8	0.013328	60	10	60-180	60	165	GapExp	0	108	2	1	0	target	0	867	-1000	152158	13.371	12.890	26.158
DTProbeTrack03	4	ProbeTrackDT	1.1	SCS215a	20101101.093015	20101101.094204	dt-generate	8	0.013328	60	10	60-180	60	114	GapExp	0	109	2	45	0	target	0	640	-1000	151158	13.328	12.904	13.747
DTProbeTrack03	4	ProbeTrackDT	1.1	SCS215a	20101101.093015	20101101.094210	dt-generate	8	0.013328	60	10	60-180	60	91	GapExp	0	110	2	3	0	distractor	1	414	793	151951	13.328	12.906	13.744
DTProbeTrack03	4	ProbeTrackDT	1.1	SCS215a	20101101.093015	20101101.094215	dt-generate	8	0.013328	60	10	60-180	60	172	GapExp	0	111	2	1	0	distractor	1	480	760	152711	13.328	13.127	13.534
DTProbeTrack03	4	ProbeTrackDT	1.1	SCS215a	20101101.093015	20101101.094221	dt-generate	8	0.013328	60	10	60-180	60	165	GapExp	0	112	2	9	1	target	1	627	687	153398	13.328	12.956	13.695
DTProbeTrack03	4	ProbeTrackDT	1.1	SCS215a	20101101.093015	20101101.094228	dt-generate	8	0.013328	60	10	60-180	60	161	GapExp	0	113	2	6	0	target	0	827	-1000	152398	13.328	13.093	13.549
DTProbeTrack03	4	ProbeTrackDT	1.1	SCS215a	20101101.093015	20101101.094234	dt-generate	8	0.013328	60	10	60-180	60	158	GapExp	0	114	2	6	1	target	1	480	760	153158	13.374	12.945	26.386
DTProbeTrack03	4	ProbeTrackDT	1.1	SCS215a	20101101.093015	20101101.094240	dt-generate	8	0.013328	60	10	60-180	60	167	GapExp	0	115	2	6	1	target	1	427	787	153945	13.373	12.908	26.594
DTProbeTrack03	4	ProbeTrackDT	1.1	SCS215a	20101101.093015	20101101.094246	dt-generate	8	0.013328	60	10	60-180	60	72	GapExp	0	116	2	6	1	target	1	414	793	154738	13.328	13.103	13.554
DTProbeTrack03	4	ProbeTrackDT	1.1	SCS215a	20101101.093015	20101101.094251	dt-generate	8	0.013328	60	10	60-180	60	140	GapExp	0	117	2	45	0	distractor	1	680	660	155398	13.369	12.916	26.745
DTProbeTrack03	4	ProbeTrackDT	1.1	SCS215a	20101101.093015	20101101.094258	dt-generate	8	0.013328	60	10	60-180	60	150	GapExp	0	118	2	6	0	distractor	1	547	727	156125	13.609	12.867	39.887
DTProbeTrack03	4	ProbeTrackDT	1.1	SCS215a	20101101.093015	20101101.094304	dt-generate	8	0.013328	60	10	60-180	60	137	GapExp	0	119	2	9	0	distractor	1	547	727	156852	13.376	12.856	26.444
DTProbeTrack03	4	ProbeTrackDT	1.1	SCS215a	20101101.093015	20101101.094310	dt-generate	8	0.013328	60	10	60-180	60	82	GapExp	0	120	2	9	0	target	0	640	-1000	155852	13.328	13.083	13.571
DTProbeTrack03	4	ProbeTrackDT	1.1	SCS215a	20101101.093015	20101101.094315	dt-generate	8	0.013328	60	10	60-180	60	171	GapExp	0	121	2	45	1	distractor	0	547	-1000	154852	13.328	13.101	13.555
DTProbeTrack03	4	ProbeTrackDT	1.1	SCS215a	20101101.093015	20101101.094322	dt-generate	8	0.013328	60	10	60-180	60	86	GapExp	0	122	2	1	0	target	0	427	-1000	153852	13.328	12.970	13.714
DTProbeTrack03	4	ProbeTrackDT	1.1	SCS215a	20101101.093015	20101101.094327	dt-generate	8	0.013328	60	10	60-180	60	95	GapExp	0	123	2	45	0	distractor	1	520	740	154592	13.328	12.864	13.814
DTProbeTrack03	4	ProbeTrackDT	1.1	SCS215a	20101101.093015	20101101.094333	dt-generate	8	0.013328	60	10	60-180	60	131	GapExp	0	124	2	9	0	target	0	347	-1000	153592	13.380	13.009	26.836
DTProbeTrack03	4	ProbeTrackDT	1.1	SCS215a	20101101.093015	20101101.094338	dt-generate	8	0.013328	60	10	60-180	60	160	GapExp	0	125	2	9	1	target	1	813	594	154186	13.370	13.110	26.319
DTProbeTrack03	4	ProbeTrackDT	1.1	SCS215a	20101101.093015	20101101.094345	dt-generate	8	0.013328	60	10	60-180	60	151	GapExp	0	126	2	3	1	target	1	693	654	154840	13.328	12.973	13.696
DTProbeTrack03	4	ProbeTrackDT	1.1	SCS215a	20101101.093015	20101101.094351	dt-generate	8	0.013328	60	10	60-180	60	166	GapExp	0	127	2	3	1	target	1	387	807	155647	13.421	13.037	26.762
DTProbeTrack03	4	ProbeTrackDT	1.1	SCS215a	20101101.093015	20101101.094357	dt-generate	8	0.013328	60	10	60-180	60	87	GapExp	0	128	2	6	1	target	1	1067	467	156114	13.328	13.119	13.543
DTProbeTrack03	4	ProbeTrackDT	1.1	SCS215a	20101101.093015	20101101.094402	dt-generate	8	0.013328	60	10	60-180	60	154	GapExp	0	129	2	1	0	target	0	627	-1000	155114	13.328	12.936	13.710
DTProbeTrack03	4	ProbeTrackDT	1.1	SCS215a	20101101.093015	20101101.094409	dt-generate	8	0.013328	60	10	60-180	60	131	GapExp	0	130	2	1	1	target	1	507	747	155861	13.380	13.080	26.440
DTProbeTrack03	4	ProbeTrackDT	1.1	SCS215a	20101101.093015	20101101.094414	dt-generate	8	0.013328	60	10	60-180	60	73	GapExp	0	131	2	1	0	target	0	773	-1000	154861	13.389	12.984	26.523
DTProbeTrack03	4	ProbeTrackDT	1.1	SCS215a	20101101.093015	20101101.094419	dt-generate	8	0.013328	60	10	60-180	60	80	GapExp	0	132	2	45	0	distractor	1	693	654	155515	13.328	13.105	13.558
DTProbeTrack03	4	ProbeTrackDT	1.1	SCS215a	20101101.093015	20101101.094425	dt-generate	8	0.013328	60	10	60-180	60	132	GapExp	0	133	2	45	0	distractor	1	467	767	156282	13.328	13.108	13.542
DTProbeTrack03	4	ProbeTrackDT	1.1	SCS215a	20101101.093015	20101101.094431	dt-generate	8	0.013328	60	10	60-180	60	133	GapExp	0	134	2	6	0	distractor	1	440	780	157062	13.328	12.937	13.718
DTProbeTrack03	4	ProbeTrackDT	1.1	SCS215a	20101101.093015	20101101.094437	dt-generate	8	0.013328	60	10	60-180	60	95	GapExp	0	135	2	3	1	distractor	0	627	-1000	156062	13.328	13.305	13.346
DTProbeTrack03	4	ProbeTrackDT	1.1	SCS215a	20101101.093015	20101101.094442	dt-generate	8	0.013328	60	10	60-180	60	71	GapExp	0	136	2	45	1	target	1	520	740	156802	13.328	13.308	13.346
DTProbeTrack03	4	ProbeTrackDT	1.1	SCS215a	20101101.093015	20101101.094448	dt-generate	8	0.013328	60	10	60-180	60	106	GapExp	0	137	2	1	0	distractor	1	760	620	157422	13.328	13.304	13.353
DTProbeTrack03	4	ProbeTrackDT	1.1	SCS215a	20101101.093015	20101101.094453	dt-generate	8	0.013328	60	10	60-180	60	124	GapExp	0	138	2	45	1	target	1	480	760	158182	13.328	13.085	13.555
DTProbeTrack03	4	ProbeTrackDT	1.1	SCS215a	20101101.093015	20101101.094459	dt-generate	8	0.013328	60	10	60-180	60	97	GapExp	0	139	2	1	0	distractor	1	467	767	158949	13.328	13.114	13.548
DTProbeTrack03	4	ProbeTrackDT	1.1	SCS215a	20101101.093015	20101101.094505	dt-generate	8	0.013328	60	10	60-180	60	119	GapExp	0	140	2	45	1	target	1	600	700	159649	13.373	13.021	26.741
DTProbeTrack03	4	ProbeTrackDT	1.1	SCS215a	20101101.093015	20101101.094511	dt-generate	8	0.013328	60	10	60-180	60	97	GapExp	0	141	2	45	1	target	1	427	787	160436	13.328	13.142	13.514
DTProbeTrack03	4	ProbeTrackDT	1.1	SCS215a	20101101.093015	20101101.094516	dt-generate	8	0.013328	60	10	60-180	60	72	GapExp	0	142	2	45	0	target	0	1120	-1000	159436	13.328	12.850	13.802
DTProbeTrack03	4	ProbeTrackDT	1.1	SCS215a	20101101.093015	20101101.094522	dt-generate	8	0.013328	60	10	60-180	60	74	GapExp	0	143	2	1	0	target	0	1493	-1000	158436	13.328	13.097	13.559
DTProbeTrack03	4	ProbeTrackDT	1.1	SCS215a	20101101.093015	20101101.094528	dt-generate	8	0.013328	60	10	60-180	60	71	GapExp	0	144	2	1	1	target	1	760	620	159056	13.328	13.099	13.562
DTProbeTrack03	4	ProbeTrackDT	1.1	SCS215a	20101101.093015	20101101.094533	dt-generate	8	0.013328	60	10	60-180	60	143	GapExp	0	145	2	3	1	target	1	494	753	159809	13.328	13.308	13.348
DTProbeTrack03	4	ProbeTrackDT	1.1	SCS215a	20101101.093015	20101101.094539	dt-generate	8	0.013328	60	10	60-180	60	86	GapExp	0	146	2	9	1	distractor	0	680	-1000	158809	13.328	13.310	13.345
DTProbeTrack03	4	ProbeTrackDT	1.1	SCS215a	20101101.093015	20101101.094545	dt-generate	8	0.013328	60	10	60-180	60	115	GapExp	0	147	2	6	0	target	0	960	-1000	157809	13.328	12.923	13.746
DTProbeTrack03	4	ProbeTrackDT	1.1	SCS215a	20101101.093015	20101101.094550	dt-generate	8	0.013328	60	10	60-180	60	175	GapExp	0	148	2	3	0	distractor	1	560	720	158529	13.328	13.308	13.347
DTProbeTrack03	4	ProbeTrackDT	1.1	SCS215a	20101101.093015	20101101.094557	dt-generate	8	0.013328	60	10	60-180	60	98	GapExp	0	149	2	3	0	target	0	320	-1000	157529	13.328	12.954	13.718
DTProbeTrack03	4	ProbeTrackDT	1.1	SCS215a	20101101.093015	20101101.094602	dt-generate	8	0.013328	60	10	60-180	60	163	GapExp	0	150	2	3	0	distractor	1	1307	347	157876	13.328	13.105	13.555
DTProbeTrack03	4	ProbeTrackDT	1.1	SCS215a	20101101.093015	20101101.094621	dt-generate	8	0.013328	60	10	60-180	60	73	GapExp	0	151	2	45	0	target	0	534	-1000	156876	13.382	13.000	26.577
DTProbeTrack03	4	ProbeTrackDT	1.1	SCS215a	20101101.093015	20101101.094627	dt-generate	8	0.013328	60	10	60-180	60	120	GapExp	0	152	2	6	0	target	0	800	-1000	155876	13.377	13.045	26.760
DTProbeTrack03	4	ProbeTrackDT	1.1	SCS215a	20101101.093015	20101101.094633	dt-generate	8	0.013328	60	10	60-180	60	129	GapExp	0	153	2	9	1	target	1	973	514	156390	13.328	12.878	13.779
DTProbeTrack03	4	ProbeTrackDT	1.1	SCS215a	20101101.093015	20101101.094639	dt-generate	8	0.013328	60	10	60-180	60	115	GapExp	0	154	2	45	0	distractor	1	1053	474	156864	13.328	13.099	13.563
DTProbeTrack03	4	ProbeTrackDT	1.1	SCS215a	20101101.093015	20101101.094645	dt-generate	8	0.013328	60	10	60-180	60	121	GapExp	0	155	2	1	1	target	1	1453	274	157138	13.427	13.022	39.984
DTProbeTrack03	4	ProbeTrackDT	1.1	SCS215a	20101101.093015	20101101.094652	dt-generate	8	0.013328	60	10	60-180	60	152	GapExp	0	156	2	1	0	target	0	733	-1000	156138	13.328	13.094	13.549
DTProbeTrack03	4	ProbeTrackDT	1.1	SCS215a	20101101.093015	20101101.094658	dt-generate	8	0.013328	60	10	60-180	60	63	GapExp	0	157	2	45	1	target	1	747	627	156765	13.328	13.308	13.347
DTProbeTrack03	4	ProbeTrackDT	1.1	SCS215a	20101101.093015	20101101.094703	dt-generate	8	0.013328	60	10	60-180	60	75	GapExp	0	158	2	6	0	distractor	1	2519	0	156765	13.328	12.936	13.805
DTProbeTrack03	4	ProbeTrackDT	1.1	SCS215a	20101101.093015	20101101.094710	dt-generate	8	0.013328	60	10	60-180	60	141	GapExp	0	159	2	45	0	target	0	667	-1000	155765	13.328	13.309	13.344
DTProbeTrack03	4	ProbeTrackDT	1.1	SCS215a	20101101.093015	20101101.094717	dt-generate	8	0.013328	60	10	60-180	60	68	GapExp	0	160	2	3	0	distractor	1	560	720	156485	13.328	12.899	13.764
DTProbeTrack03	4	ProbeTrackDT	1.1	SCS215a	20101101.093015	20101101.094722	dt-generate	8	0.013328	60	10	60-180	60	167	GapExp	0	161	2	1	0	distractor	1	520	740	157225	13.328	13.107	13.558
DTProbeTrack03	4	ProbeTrackDT	1.1	SCS215a	20101101.093015	20101101.094728	dt-generate	8	0.013328	60	10	60-180	60	67	GapExp	0	162	2	9	0	distractor	1	707	647	157872	13.328	12.849	13.805
DTProbeTrack03	4	ProbeTrackDT	1.1	SCS215a	20101101.093015	20101101.094733	dt-generate	8	0.013328	60	10	60-180	60	128	GapExp	0	163	2	45	1	target	1	440	780	158652	13.328	13.099	13.551
DTProbeTrack03	4	ProbeTrackDT	1.1	SCS215a	20101101.093015	20101101.094739	dt-generate	8	0.013328	60	10	60-180	60	75	GapExp	0	164	2	6	1	target	1	1880	60	158712	13.328	13.310	13.347
DTProbeTrack03	4	ProbeTrackDT	1.1	SCS215a	20101101.093015	20101101.094745	dt-generate	8	0.013328	60	10	60-180	60	108	GapExp	0	165	2	3	1	distractor	0	627	-1000	157712	13.329	13.307	13.746
DTProbeTrack03	4	ProbeTrackDT	1.1	SCS215a	20101101.093015	20101101.094751	dt-generate	8	0.013328	60	10	60-180	60	67	GapExp	0	166	2	9	0	distractor	1	693	654	158366	13.328	13.145	13.509
DTProbeTrack03	4	ProbeTrackDT	1.1	SCS215a	20101101.093015	20101101.094756	dt-generate	8	0.013328	60	10	60-180	60	118	GapExp	0	167	2	1	0	distractor	1	534	733	159099	13.328	13.105	13.550
DTProbeTrack03	4	ProbeTrackDT	1.1	SCS215a	20101101.093015	20101101.094802	dt-generate	8	0.013328	60	10	60-180	60	72	GapExp	0	168	2	3	0	target	0	1320	-1000	158099	13.328	12.922	13.731
DTProbeTrack03	4	ProbeTrackDT	1.1	SCS215a	20101101.093015	20101101.094807	dt-generate	8	0.013328	60	10	60-180	60	80	GapExp	0	169	2	45	0	distractor	1	574	713	158812	13.328	12.872	13.781
DTProbeTrack03	4	ProbeTrackDT	1.1	SCS215a	20101101.093015	20101101.094813	dt-generate	8	0.013328	60	10	60-180	60	103	GapExp	0	170	2	45	1	target	1	560	720	159532	13.328	12.885	13.764
DTProbeTrack03	4	ProbeTrackDT	1.1	SCS215a	20101101.093015	20101101.094819	dt-generate	8	0.013328	60	10	60-180	60	154	GapExp	0	171	2	1	1	target	1	240	880	160412	13.328	12.961	13.695
DTProbeTrack03	4	ProbeTrackDT	1.1	SCS215a	20101101.093015	20101101.094825	dt-generate	8	0.013328	60	10	60-180	60	78	GapExp	0	172	2	9	0	distractor	1	3012	0	160412	13.328	13.100	13.549
DTProbeTrack03	4	ProbeTrackDT	1.1	SCS215a	20101101.093015	20101101.094832	dt-generate	8	0.013328	60	10	60-180	60	177	GapExp	0	173	2	45	1	target	1	2199	0	160412	13.328	13.293	13.352
DTProbeTrack03	4	ProbeTrackDT	1.1	SCS215a	20101101.093015	20101101.094841	dt-generate	8	0.013328	60	10	60-180	60	165	GapExp	0	174	2	9	1	target	1	840	580	160992	13.328	13.305	13.350
DTProbeTrack03	4	ProbeTrackDT	1.1	SCS215a	20101101.093015	20101101.094847	dt-generate	8	0.013328	60	10	60-180	60	178	GapExp	0	175	2	45	1	distractor	0	560	-1000	159992	13.328	13.307	13.348
DTProbeTrack03	4	ProbeTrackDT	1.1	SCS215a	20101101.093015	20101101.094854	dt-generate	8	0.013328	60	10	60-180	60	155	GapExp	0	176	2	3	0	target	0	733	-1000	158992	13.328	13.298	13.346
DTProbeTrack03	4	ProbeTrackDT	1.1	SCS215a	20101101.093015	20101101.094901	dt-generate	8	0.013328	60	10	60-180	60	120	GapExp	0	177	2	6	1	target	1	534	733	159725	13.328	13.308	13.348
DTProbeTrack03	4	ProbeTrackDT	1.1	SCS215a	20101101.093015	20101101.094906	dt-generate	8	0.013328	60	10	60-180	60	70	GapExp	0	178	2	3	0	distractor	1	574	713	160438	13.328	13.098	13.552
DTProbeTrack03	4	ProbeTrackDT	1.1	SCS215a	20101101.093015	20101101.094911	dt-generate	8	0.013328	60	10	60-180	60	176	GapExp	0	179	2	3	1	target	1	827	587	161025	13.328	13.259	13.405
DTProbeTrack03	4	ProbeTrackDT	1.1	SCS215a	20101101.093015	20101101.094918	dt-generate	8	0.013328	60	10	60-180	60	120	GapExp	0	180	2	6	0	distractor	1	520	740	161765	13.328	13.105	13.552
DTProbeTrack03	4	ProbeTrackDT	1.1	SCS215a	20101101.093015	20101101.094923	dt-generate	8	0.013328	60	10	60-180	60	144	GapExp	0	181	2	6	1	distractor	0	573	-1000	160765	13.328	13.049	13.614
DTProbeTrack03	4	ProbeTrackDT	1.1	SCS215a	20101101.093015	20101101.094929	dt-generate	8	0.013328	60	10	60-180	60	170	GapExp	0	182	2	6	1	target	1	654	673	161438	13.328	13.170	13.480
DTProbeTrack03	4	ProbeTrackDT	1.1	SCS215a	20101101.093015	20101101.094936	dt-generate	8	0.013328	60	10	60-180	60	118	GapExp	0	183	2	9	1	target	1	667	667	162105	13.328	13.311	13.346
DTProbeTrack03	4	ProbeTrackDT	1.1	SCS215a	20101101.093015	20101101.094941	dt-generate	8	0.013328	60	10	60-180	60	148	GapExp	0	184	2	3	1	target	1	787	607	162712	13.328	12.889	13.762
DTProbeTrack03	4	ProbeTrackDT	1.1	SCS215a	20101101.093015	20101101.094947	dt-generate	8	0.013328	60	10	60-180	60	69	GapExp	0	185	2	9	0	target	0	1586	-1000	161712	13.328	13.111	13.557
DTProbeTrack03	4	ProbeTrackDT	1.1	SCS215a	20101101.093015	20101101.094953	dt-generate	8	0.013328	60	10	60-180	60	173	GapExp	0	186	2	1	1	distractor	0	2440	-1000	160712	13.328	12.935	13.708
DTProbeTrack03	4	ProbeTrackDT	1.1	SCS215a	20101101.093015	20101101.095002	dt-generate	8	0.013328	60	10	60-180	60	120	GapExp	0	187	2	9	1	target	1	667	667	161379	13.328	13.102	13.556
DTProbeTrack03	4	ProbeTrackDT	1.1	SCS215a	20101101.093015	20101101.095007	dt-generate	8	0.013328	60	10	60-180	60	134	GapExp	0	188	2	6	0	target	0	1826	-1000	160379	13.328	13.105	13.555
DTProbeTrack03	4	ProbeTrackDT	1.1	SCS215a	20101101.093015	20101101.095015	dt-generate	8	0.013328	60	10	60-180	60	164	GapExp	0	189	2	6	1	target	1	933	534	160913	13.328	13.309	13.349
DTProbeTrack03	4	ProbeTrackDT	1.1	SCS215a	20101101.093015	20101101.095021	dt-generate	8	0.013328	60	10	60-180	60	102	GapExp	0	190	2	1	0	target	0	1693	-1000	159913	13.328	13.104	13.553
DTProbeTrack03	4	ProbeTrackDT	1.1	SCS215a	20101101.093015	20101101.095028	dt-generate	8	0.013328	60	10	60-180	60	133	GapExp	0	191	2	6	1	distractor	0	507	-1000	158913	13.328	13.109	13.543
DTProbeTrack03	4	ProbeTrackDT	1.1	SCS215a	20101101.093015	20101101.095033	dt-generate	8	0.013328	60	10	60-180	60	121	GapExp	0	192	2	9	1	target	1	507	747	159660	13.328	12.950	13.700
DTProbeTrack03	4	ProbeTrackDT	1.1	SCS215a	20101101.093015	20101101.095039	dt-generate	8	0.013328	60	10	60-180	60	68	GapExp	0	193	2	9	0	target	0	400	-1000	158660	13.328	13.303	13.349
DTProbeTrack03	4	ProbeTrackDT	1.1	SCS215a	20101101.093015	20101101.095044	dt-generate	8	0.013328	60	10	60-180	60	167	GapExp	0	194	2	3	0	target	0	547	-1000	157660	13.328	13.099	13.555
DTProbeTrack03	4	ProbeTrackDT	1.1	SCS215a	20101101.093015	20101101.095050	dt-generate	8	0.013328	60	10	60-180	60	97	GapExp	0	195	2	1	0	distractor	1	387	807	158467	13.328	13.304	13.345
DTProbeTrack03	4	ProbeTrackDT	1.1	SCS215a	20101101.093015	20101101.095055	dt-generate	8	0.013328	60	10	60-180	60	99	GapExp	0	196	2	9	1	target	1	387	807	159274	13.328	13.311	13.349
DTProbeTrack03	4	ProbeTrackDT	1.1	SCS215a	20101101.093015	20101101.095100	dt-generate	8	0.013328	60	10	60-180	60	169	GapExp	0	197	2	9	1	target	1	467	767	160041	13.372	13.002	26.389
DTProbeTrack03	4	ProbeTrackDT	1.1	SCS215a	20101101.093015	20101101.095106	dt-generate	8	0.013328	60	10	60-180	60	178	GapExp	0	198	2	3	1	target	1	507	747	160788	13.328	12.853	13.804
DTProbeTrack03	4	ProbeTrackDT	1.1	SCS215a	20101101.093015	20101101.095113	dt-generate	8	0.013328	60	10	60-180	60	88	GapExp	0	199	2	6	1	target	1	653	674	161462	13.328	13.091	13.562
DTProbeTrack03	4	ProbeTrackDT	1.1	SCS215a	20101101.093015	20101101.095118	dt-generate	8	0.013328	60	10	60-180	60	62	GapExp	0	200	2	6	1	target	1	387	807	162269	13.328	13.039	13.751
DTProbeTrack03	4	ProbeTrackDT	1.1	SCS215a	20101101.093015	20101101.095141	dt-generate	8	0.013328	60	10	60-180	60	62	GapExp	0	201	2	1	1	target	1	827	587	162856	13.328	13.098	13.552
DTProbeTrack03	4	ProbeTrackDT	1.1	SCS215a	20101101.093015	20101101.095146	dt-generate	8	0.013328	60	10	60-180	60	169	GapExp	0	202	2	45	1	target	1	347	827	163683	13.328	13.087	13.554
DTProbeTrack03	4	ProbeTrackDT	1.1	SCS215a	20101101.093015	20101101.095153	dt-generate	8	0.013328	60	10	60-180	60	105	GapExp	0	203	2	1	0	target	0	520	-1000	162683	13.328	13.100	13.558
DTProbeTrack03	4	ProbeTrackDT	1.1	SCS215a	20101101.093015	20101101.095158	dt-generate	8	0.013328	60	10	60-180	60	136	GapExp	0	204	2	45	0	distractor	1	534	733	163416	13.328	13.299	13.348
DTProbeTrack03	4	ProbeTrackDT	1.1	SCS215a	20101101.093015	20101101.095204	dt-generate	8	0.013328	60	10	60-180	60	174	GapExp	0	205	2	9	1	target	1	414	793	164209	13.328	13.309	13.349
DTProbeTrack03	4	ProbeTrackDT	1.1	SCS215a	20101101.095249	20101101.095253	single-task	8	0.013328	60	10	60-180	60	88	GapPrac	1	1	2	9	1	target	1	494	753	164962	13.328	13.306	13.347
DTProbeTrack03	4	ProbeTrackDT	1.1	SCS215a	20101101.095249	20101101.095258	single-task	8	0.013328	60	10	60-180	60	155	GapPrac	1	2	2	45	0	distractor	1	427	787	165749	13.327	12.999	13.657
DTProbeTrack03	4	ProbeTrackDT	1.1	SCS215a	20101101.095249	20101101.095305	single-task	8	0.013328	60	10	60-180	60	102	GapPrac	1	3	2	3	1	target	1	427	787	166536	13.328	13.303	13.353
DTProbeTrack03	4	ProbeTrackDT	1.1	SCS215a	20101101.095249	20101101.095310	single-task	8	0.013328	60	10	60-180	60	124	GapPrac	1	4	2	9	0	distractor	1	467	767	167303	13.328	13.085	13.556
DTProbeTrack03	4	ProbeTrackDT	1.1	SCS215a	20101101.095249	20101101.095316	single-task	8	0.013328	60	10	60-180	60	127	GapPrac	1	5	2	45	0	distractor	1	587	707	168010	13.328	13.115	13.546
DTProbeTrack03	4	ProbeTrackDT	1.1	SCS215a	20101101.095249	20101101.095322	single-task	8	0.013328	60	10	60-180	60	114	GapPrac	1	6	2	1	0	distractor	1	587	707	168717	13.328	13.307	13.348
DTProbeTrack03	4	ProbeTrackDT	1.1	SCS215a	20101101.095249	20101101.095327	single-task	8	0.013328	60	10	60-180	60	166	GapPrac	1	7	2	3	0	distractor	1	587	707	169424	13.328	12.919	13.722
DTProbeTrack03	4	ProbeTrackDT	1.1	SCS215a	20101101.095249	20101101.095334	single-task	8	0.013328	60	10	60-180	60	121	GapPrac	1	8	2	6	0	distractor	1	440	780	170204	13.328	13.285	13.372
DTProbeTrack03	4	ProbeTrackDT	1.1	SCS215a	20101101.095249	20101101.095339	single-task	8	0.013328	60	10	60-180	60	112	GapPrac	1	9	2	9	0	distractor	1	574	713	170917	13.328	13.309	13.344
DTProbeTrack03	4	ProbeTrackDT	1.1	SCS215a	20101101.095249	20101101.095345	single-task	8	0.013328	60	10	60-180	60	123	GapPrac	1	10	2	6	0	distractor	1	467	767	171684	13.328	13.100	13.559
DTProbeTrack03	4	ProbeTrackDT	1.1	SCS215a	20101101.095249	20101101.095350	single-task	8	0.013328	60	10	60-180	60	75	GapPrac	1	11	2	6	1	target	1	947	527	172211	13.328	13.084	13.570
DTProbeTrack03	4	ProbeTrackDT	1.1	SCS215a	20101101.095249	20101101.095356	single-task	8	0.013328	60	10	60-180	60	166	GapPrac	1	12	2	9	1	target	1	507	747	172958	13.328	12.946	13.724
DTProbeTrack03	4	ProbeTrackDT	1.1	SCS215a	20101101.095249	20101101.095402	single-task	8	0.013328	60	10	60-180	60	118	GapPrac	1	13	2	6	1	target	1	400	800	173758	13.328	12.890	13.763
DTProbeTrack03	4	ProbeTrackDT	1.1	SCS215a	20101101.095249	20101101.095407	single-task	8	0.013328	60	10	60-180	60	77	GapPrac	1	14	2	3	0	distractor	1	480	760	174518	13.328	13.084	13.565
DTProbeTrack03	4	ProbeTrackDT	1.1	SCS215a	20101101.095249	20101101.095412	single-task	8	0.013328	60	10	60-180	60	166	GapPrac	1	15	2	1	1	target	1	507	747	175265	13.328	12.900	13.752
DTProbeTrack03	4	ProbeTrackDT	1.1	SCS215a	20101101.095249	20101101.095418	single-task	8	0.013328	60	10	60-180	60	170	GapPrac	1	16	2	45	1	target	1	414	793	176058	13.328	13.106	13.549
DTProbeTrack03	4	ProbeTrackDT	1.1	SCS215a	20101101.095249	20101101.095425	single-task	8	0.013328	60	10	60-180	60	73	GapPrac	1	17	2	1	0	distractor	1	640	680	176738	13.328	12.855	13.795
DTProbeTrack03	4	ProbeTrackDT	1.1	SCS215a	20101101.095249	20101101.095430	single-task	8	0.013328	60	10	60-180	60	123	GapPrac	1	18	2	1	1	target	1	520	740	177478	13.328	13.307	13.347
DTProbeTrack03	4	ProbeTrackDT	1.1	SCS215a	20101101.095249	20101101.095436	single-task	8	0.013328	60	10	60-180	60	120	GapPrac	1	19	2	3	1	target	1	294	853	178331	13.328	13.107	13.537
DTProbeTrack03	4	ProbeTrackDT	1.1	SCS215a	20101101.095249	20101101.095441	single-task	8	0.013328	60	10	60-180	60	137	GapPrac	1	20	2	45	1	target	1	427	787	179118	13.328	13.041	13.614
DTProbeTrack03	4	ProbeTrackDT	1.1	SCS215a	20101101.095518	20101101.095523	single-task	8	0.013326	60	10	60-180	60	176	GapExp	1	1	2	9	0	distractor	1	534	733	179851	13.328	12.953	13.691
DTProbeTrack03	4	ProbeTrackDT	1.1	SCS215a	20101101.095518	20101101.095529	single-task	8	0.013326	60	10	60-180	60	141	GapExp	1	2	2	45	1	target	1	560	720	180571	13.328	12.920	13.736
DTProbeTrack03	4	ProbeTrackDT	1.1	SCS215a	20101101.095518	20101101.095536	single-task	8	0.013326	60	10	60-180	60	112	GapExp	1	3	2	6	1	target	1	400	800	181371	13.328	13.303	13.347
DTProbeTrack03	4	ProbeTrackDT	1.1	SCS215a	20101101.095518	20101101.095541	single-task	8	0.013326	60	10	60-180	60	88	GapExp	1	4	2	9	1	target	1	427	787	182158	13.328	13.301	13.349
DTProbeTrack03	4	ProbeTrackDT	1.1	SCS215a	20101101.095518	20101101.095546	single-task	8	0.013326	60	10	60-180	60	159	GapExp	1	5	2	1	0	target	0	507	-1000	181158	13.328	12.867	13.782
DTProbeTrack03	4	ProbeTrackDT	1.1	SCS215a	20101101.095518	20101101.095552	single-task	8	0.013326	60	10	60-180	60	73	GapExp	0	6	2	3	0	distractor	1	627	687	181845	13.328	13.308	13.348
DTProbeTrack03	4	ProbeTrackDT	1.1	SCS215a	20101101.095518	20101101.095557	single-task	8	0.013326	60	10	60-180	60	180	GapExp	0	7	2	6	1	target	1	1213	394	182239	13.328	12.916	13.724
DTProbeTrack03	4	ProbeTrackDT	1.1	SCS215a	20101101.095518	20101101.095605	single-task	8	0.013326	60	10	60-180	60	103	GapExp	0	8	2	6	1	target	1	400	800	183039	13.328	13.098	13.562
DTProbeTrack03	4	ProbeTrackDT	1.1	SCS215a	20101101.095518	20101101.095610	single-task	8	0.013326	60	10	60-180	60	161	GapExp	0	9	2	1	0	target	0	294	-1000	182039	13.328	13.308	13.348
DTProbeTrack03	4	ProbeTrackDT	1.1	SCS215a	20101101.095518	20101101.095616	single-task	8	0.013326	60	10	60-180	60	154	GapExp	0	10	2	9	0	distractor	1	667	667	182706	13.328	13.307	13.348
DTProbeTrack03	4	ProbeTrackDT	1.1	SCS215a	20101101.095518	20101101.095622	single-task	8	0.013326	60	10	60-180	60	100	GapExp	0	11	2	45	1	distractor	0	813	-1000	181706	13.328	13.009	13.641
DTProbeTrack03	4	ProbeTrackDT	1.1	SCS215a	20101101.095518	20101101.095628	single-task	8	0.013326	60	10	60-180	60	92	GapExp	0	12	2	1	1	target	1	453	774	182480	13.452	12.963	40.159
DTProbeTrack03	4	ProbeTrackDT	1.1	SCS215a	20101101.095518	20101101.095633	single-task	8	0.013326	60	10	60-180	60	122	GapExp	0	13	2	45	1	target	1	360	820	183300	13.328	13.102	13.557
DTProbeTrack03	4	ProbeTrackDT	1.1	SCS215a	20101101.095518	20101101.095639	single-task	8	0.013326	60	10	60-180	60	121	GapExp	0	14	2	3	0	distractor	1	467	767	184067	13.328	13.305	13.351
DTProbeTrack03	4	ProbeTrackDT	1.1	SCS215a	20101101.095518	20101101.095645	single-task	8	0.013326	60	10	60-180	60	63	GapExp	0	15	2	45	1	target	1	547	727	184794	13.328	13.307	13.346
DTProbeTrack03	4	ProbeTrackDT	1.1	SCS215a	20101101.095518	20101101.095650	single-task	8	0.013326	60	10	60-180	60	152	GapExp	0	16	2	6	0	distractor	1	534	733	185527	13.328	13.112	13.552
DTProbeTrack03	4	ProbeTrackDT	1.1	SCS215a	20101101.095518	20101101.095656	single-task	8	0.013326	60	10	60-180	60	92	GapExp	0	17	2	3	0	target	0	547	-1000	184527	13.328	13.310	13.346
DTProbeTrack03	4	ProbeTrackDT	1.1	SCS215a	20101101.095518	20101101.095701	single-task	8	0.013326	60	10	60-180	60	79	GapExp	0	18	2	6	1	target	1	1386	307	184834	13.328	12.998	13.647
DTProbeTrack03	4	ProbeTrackDT	1.1	SCS215a	20101101.095518	20101101.095707	single-task	8	0.013326	60	10	60-180	60	128	GapExp	0	19	2	9	0	distractor	1	560	720	185554	13.328	13.308	13.348
DTProbeTrack03	4	ProbeTrackDT	1.1	SCS215a	20101101.095518	20101101.095713	single-task	8	0.013326	60	10	60-180	60	167	GapExp	0	20	2	9	1	target	1	334	833	186387	13.328	12.864	13.801
DTProbeTrack03	4	ProbeTrackDT	1.1	SCS215a	20101101.095518	20101101.095719	single-task	8	0.013326	60	10	60-180	60	162	GapExp	0	21	2	9	1	distractor	0	520	-1000	185387	13.328	13.309	13.347
DTProbeTrack03	4	ProbeTrackDT	1.1	SCS215a	20101101.095518	20101101.095725	single-task	8	0.013326	60	10	60-180	60	93	GapExp	0	22	2	1	0	distractor	1	880	560	185947	13.328	13.305	13.349
DTProbeTrack03	4	ProbeTrackDT	1.1	SCS215a	20101101.095518	20101101.095731	single-task	8	0.013326	60	10	60-180	60	138	GapExp	0	23	2	9	1	distractor	0	800	-1000	184947	13.328	13.288	13.360
DTProbeTrack03	4	ProbeTrackDT	1.1	SCS215a	20101101.095518	20101101.095737	single-task	8	0.013326	60	10	60-180	60	104	GapExp	0	24	2	45	0	distractor	1	1133	434	185381	13.328	13.109	13.564
DTProbeTrack03	4	ProbeTrackDT	1.1	SCS215a	20101101.095518	20101101.095743	single-task	8	0.013326	60	10	60-180	60	79	GapExp	0	25	2	1	0	distractor	1	374	813	186194	13.328	13.154	13.490
DTProbeTrack03	4	ProbeTrackDT	1.1	SCS215a	20101101.095518	20101101.095748	single-task	8	0.013326	60	10	60-180	60	75	GapExp	0	26	2	6	0	distractor	1	480	760	186954	13.328	13.308	13.345
DTProbeTrack03	4	ProbeTrackDT	1.1	SCS215a	20101101.095518	20101101.095753	single-task	8	0.013326	60	10	60-180	60	176	GapExp	0	27	2	45	1	distractor	0	534	-1000	185954	13.328	12.929	13.715
DTProbeTrack03	4	ProbeTrackDT	1.1	SCS215a	20101101.095518	20101101.095800	single-task	8	0.013326	60	10	60-180	60	88	GapExp	0	28	2	6	0	target	0	774	-1000	184954	13.328	13.266	13.378
DTProbeTrack03	4	ProbeTrackDT	1.1	SCS215a	20101101.095518	20101101.095806	single-task	8	0.013326	60	10	60-180	60	165	GapExp	0	29	2	6	1	target	1	587	707	185661	13.328	13.130	13.533
DTProbeTrack03	4	ProbeTrackDT	1.1	SCS215a	20101101.095518	20101101.095812	single-task	8	0.013326	60	10	60-180	60	90	GapExp	0	30	2	45	1	target	1	360	820	186481	13.328	13.101	13.548
DTProbeTrack03	4	ProbeTrackDT	1.1	SCS215a	20101101.095518	20101101.095818	single-task	8	0.013326	60	10	60-180	60	124	GapExp	0	31	2	6	0	distractor	1	400	800	187281	13.382	12.975	26.458
DTProbeTrack03	4	ProbeTrackDT	1.1	SCS215a	20101101.095518	20101101.095823	single-task	8	0.013326	60	10	60-180	60	141	GapExp	0	32	2	3	1	target	1	1013	494	187775	13.328	12.989	13.731
DTProbeTrack03	4	ProbeTrackDT	1.1	SCS215a	20101101.095518	20101101.095829	single-task	8	0.013326	60	10	60-180	60	76	GapExp	0	33	2	1	0	83	-3	507	-1000	186775	13.328	13.308	13.346
DTProbeTrack03	4	ProbeTrackDT	1.1	SCS215a	20101101.095518	20101101.095834	single-task	8	0.013326	60	10	60-180	60	102	GapExp	0	34	2	45	0	distractor	1	600	700	187475	13.328	12.949	13.697
DTProbeTrack03	4	ProbeTrackDT	1.1	SCS215a	20101101.095518	20101101.095840	single-task	8	0.013326	60	10	60-180	60	175	GapExp	0	35	2	6	1	target	1	733	634	188109	13.328	13.042	13.615
DTProbeTrack03	4	ProbeTrackDT	1.1	SCS215a	20101101.095518	20101101.095847	single-task	8	0.013326	60	10	60-180	60	116	GapExp	0	36	2	45	0	target	0	614	-1000	187109	13.373	13.115	26.449
DTProbeTrack03	4	ProbeTrackDT	1.1	SCS215a	20101101.095518	20101101.095853	single-task	8	0.013326	60	10	60-180	60	166	GapExp	0	37	2	45	0	distractor	1	334	833	187942	13.410	13.105	26.893
DTProbeTrack03	4	ProbeTrackDT	1.1	SCS215a	20101101.095518	20101101.095900	single-task	8	0.013326	60	10	60-180	60	173	GapExp	0	38	2	1	1	target	1	280	860	188802	13.375	13.086	26.876
DTProbeTrack03	4	ProbeTrackDT	1.1	SCS215a	20101101.095518	20101101.095906	single-task	8	0.013326	60	10	60-180	60	133	GapExp	0	39	2	3	0	distractor	1	414	793	189595	13.433	12.869	26.773
DTProbeTrack03	4	ProbeTrackDT	1.1	SCS215a	20101101.095518	20101101.095911	single-task	8	0.013326	60	10	60-180	60	139	GapExp	0	40	2	9	0	target	0	960	-1000	188595	13.328	12.912	13.729
DTProbeTrack03	4	ProbeTrackDT	1.1	SCS215a	20101101.095518	20101101.095918	single-task	8	0.013326	60	10	60-180	60	166	GapExp	0	41	2	6	1	target	1	653	674	189269	13.328	12.879	13.778
