exp	sub	code	rev	comp	runtime	trialtime	stdt	nstim	refreshdur	cuedur	gapdur	gapOnsetRange	durPostProbe	gapOnsetTime	blocktype	prac	trial	ntargets	soa	probeTarget	resp	acc	rt	pts	tpts	meanFrameDur	minFrameDur	maxFrameDur
DTProbeTrack03	7	ProbeTrackDT	1.1	SCS215a	20101110.091536	20101110.091550	single-task	8	0.013328	60	0	60-180	60	120	NoGap	1	1	2	45	0	distractor	1	1453	274	274	13.328	13.209	13.489
DTProbeTrack03	7	ProbeTrackDT	1.1	SCS215a	20101110.091536	20101110.091557	single-task	8	0.013328	60	0	60-180	60	168	NoGap	1	2	2	45	0	distractor	1	680	660	934	13.328	13.129	13.518
DTProbeTrack03	7	ProbeTrackDT	1.1	SCS215a	20101110.091536	20101110.091604	single-task	8	0.013328	60	0	60-180	60	66	NoGap	1	3	2	6	1	target	1	614	693	1627	13.601	12.964	39.989
DTProbeTrack03	7	ProbeTrackDT	1.1	SCS215a	20101110.091536	20101110.091609	single-task	8	0.013328	60	0	60-180	60	143	NoGap	1	4	2	9	1	target	1	494	753	2380	13.328	13.064	13.737
DTProbeTrack03	7	ProbeTrackDT	1.1	SCS215a	20101110.091536	20101110.091615	single-task	8	0.013328	60	0	60-180	60	117	NoGap	1	5	2	1	0	distractor	1	400	800	3180	13.328	13.114	13.552
DTProbeTrack03	7	ProbeTrackDT	1.1	SCS215a	20101110.091536	20101110.091620	single-task	8	0.013328	60	0	60-180	60	180	NoGap	1	6	2	45	0	distractor	1	547	727	3907	13.328	13.085	13.559
DTProbeTrack03	7	ProbeTrackDT	1.1	SCS215a	20101110.091536	20101110.091627	single-task	8	0.013328	60	0	60-180	60	134	NoGap	1	7	2	45	1	target	1	560	720	4627	13.328	12.955	13.714
DTProbeTrack03	7	ProbeTrackDT	1.1	SCS215a	20101110.091536	20101110.091633	single-task	8	0.013328	60	0	60-180	60	62	NoGap	1	8	2	9	0	distractor	1	574	713	5340	13.328	12.929	13.725
DTProbeTrack03	7	ProbeTrackDT	1.1	SCS215a	20101110.091536	20101110.091638	single-task	8	0.013328	60	0	60-180	60	110	NoGap	1	9	2	6	0	distractor	1	800	600	5940	13.328	12.847	13.807
DTProbeTrack03	7	ProbeTrackDT	1.1	SCS215a	20101110.091536	20101110.091644	single-task	8	0.013328	60	0	60-180	60	73	NoGap	1	10	2	3	0	distractor	1	747	627	6567	13.328	13.028	13.643
DTProbeTrack03	7	ProbeTrackDT	1.1	SCS215a	20101110.091536	20101110.091649	single-task	8	0.013328	60	0	60-180	60	135	NoGap	1	11	2	3	1	target	1	534	733	7300	13.433	13.093	26.655
DTProbeTrack03	7	ProbeTrackDT	1.1	SCS215a	20101110.091536	20101110.091655	single-task	8	0.013328	60	0	60-180	60	114	NoGap	1	12	2	9	0	target	0	547	-1000	6300	13.328	13.105	13.561
DTProbeTrack03	7	ProbeTrackDT	1.1	SCS215a	20101110.091536	20101110.091700	single-task	8	0.013328	60	0	60-180	60	138	NoGap	1	13	2	45	1	target	1	520	740	7040	13.328	12.862	13.801
DTProbeTrack03	7	ProbeTrackDT	1.1	SCS215a	20101110.091536	20101110.091706	single-task	8	0.013328	60	0	60-180	60	155	NoGap	1	14	2	6	0	distractor	1	667	667	7707	13.328	12.879	13.790
DTProbeTrack03	7	ProbeTrackDT	1.1	SCS215a	20101110.091536	20101110.091712	single-task	8	0.013328	60	0	60-180	60	65	NoGap	1	15	2	3	0	distractor	1	747	627	8334	13.328	12.990	13.644
DTProbeTrack03	7	ProbeTrackDT	1.1	SCS215a	20101110.091536	20101110.091717	single-task	8	0.013328	60	0	60-180	60	102	NoGap	1	16	2	45	1	distractor	0	600	-1000	7334	13.576	13.099	53.480
DTProbeTrack03	7	ProbeTrackDT	1.1	SCS215a	20101110.091536	20101110.091723	single-task	8	0.013328	60	0	60-180	60	127	NoGap	1	17	2	1	1	target	1	587	707	8041	13.328	12.847	13.820
DTProbeTrack03	7	ProbeTrackDT	1.1	SCS215a	20101110.091536	20101110.091729	single-task	8	0.013328	60	0	60-180	60	94	NoGap	1	18	2	1	0	distractor	1	933	534	8575	13.328	12.982	13.674
DTProbeTrack03	7	ProbeTrackDT	1.1	SCS215a	20101110.091536	20101110.091734	single-task	8	0.013328	60	0	60-180	60	101	NoGap	1	19	2	6	1	target	1	520	740	9315	13.447	12.848	26.932
DTProbeTrack03	7	ProbeTrackDT	1.1	SCS215a	20101110.091536	20101110.091740	single-task	8	0.013328	60	0	60-180	60	130	NoGap	1	20	2	6	0	distractor	1	653	674	9989	13.328	13.074	13.632
DTProbeTrack03	7	ProbeTrackDT	1.1	SCS215a	20101110.091536	20101110.091745	single-task	8	0.013328	60	0	60-180	60	85	NoGap	1	21	2	1	1	target	1	800	600	10589	13.328	13.022	13.636
DTProbeTrack03	7	ProbeTrackDT	1.1	SCS215a	20101110.091536	20101110.091751	single-task	8	0.013328	60	0	60-180	60	153	NoGap	1	22	2	3	0	distractor	1	494	753	11342	13.328	12.910	13.746
DTProbeTrack03	7	ProbeTrackDT	1.1	SCS215a	20101110.091536	20101110.091757	single-task	8	0.013328	60	0	60-180	60	126	NoGap	1	23	2	6	1	target	1	680	660	12002	13.328	13.308	13.347
DTProbeTrack03	7	ProbeTrackDT	1.1	SCS215a	20101110.091536	20101110.091802	single-task	8	0.013328	60	0	60-180	60	61	NoGap	1	24	2	1	1	target	1	760	620	12622	13.328	13.031	13.627
DTProbeTrack03	7	ProbeTrackDT	1.1	SCS215a	20101110.091536	20101110.091807	single-task	8	0.013328	60	0	60-180	60	177	NoGap	1	25	2	1	1	target	1	600	700	13322	13.328	12.304	14.360
DTProbeTrack03	7	ProbeTrackDT	1.1	SCS215a	20101110.091536	20101110.091813	single-task	8	0.013328	60	0	60-180	60	142	NoGap	1	26	2	9	1	target	1	480	760	14082	13.328	13.303	13.355
DTProbeTrack03	7	ProbeTrackDT	1.1	SCS215a	20101110.091536	20101110.091819	single-task	8	0.013328	60	0	60-180	60	152	NoGap	1	27	2	9	1	target	1	587	707	14789	13.328	12.882	13.771
DTProbeTrack03	7	ProbeTrackDT	1.1	SCS215a	20101110.091536	20101110.091825	single-task	8	0.013328	60	0	60-180	60	174	NoGap	1	28	2	3	0	distractor	1	507	747	15536	13.328	13.113	13.559
DTProbeTrack03	7	ProbeTrackDT	1.1	SCS215a	20101110.091536	20101110.091832	single-task	8	0.013328	60	0	60-180	60	87	NoGap	1	29	2	9	1	target	1	653	674	16210	13.328	13.311	13.344
DTProbeTrack03	7	ProbeTrackDT	1.1	SCS215a	20101110.091536	20101110.091837	single-task	8	0.013328	60	0	60-180	60	66	NoGap	1	30	2	1	0	distractor	1	640	680	16890	13.328	13.309	13.349
DTProbeTrack03	7	ProbeTrackDT	1.1	SCS215a	20101110.091536	20101110.091842	single-task	8	0.013328	60	0	60-180	60	70	NoGap	1	31	2	6	1	target	1	454	773	17663	13.328	13.098	13.557
DTProbeTrack03	7	ProbeTrackDT	1.1	SCS215a	20101110.091536	20101110.091846	single-task	8	0.013328	60	0	60-180	60	174	NoGap	1	32	2	45	1	target	1	693	654	18317	13.328	13.308	13.346
DTProbeTrack03	7	ProbeTrackDT	1.1	SCS215a	20101110.091536	20101110.091853	single-task	8	0.013328	60	0	60-180	60	111	NoGap	1	33	2	1	0	distractor	1	600	700	19017	13.328	13.111	13.545
DTProbeTrack03	7	ProbeTrackDT	1.1	SCS215a	20101110.091536	20101110.091859	single-task	8	0.013328	60	0	60-180	60	69	NoGap	1	34	2	9	0	distractor	1	574	713	19730	13.328	13.007	13.661
DTProbeTrack03	7	ProbeTrackDT	1.1	SCS215a	20101110.091536	20101110.091904	single-task	8	0.013328	60	0	60-180	60	137	NoGap	1	35	2	3	1	target	1	667	667	20397	13.328	13.108	13.558
DTProbeTrack03	7	ProbeTrackDT	1.1	SCS215a	20101110.091536	20101110.091909	single-task	8	0.013328	60	0	60-180	60	109	NoGap	1	36	2	6	0	distractor	1	680	660	21057	13.328	13.077	13.582
DTProbeTrack03	7	ProbeTrackDT	1.1	SCS215a	20101110.091536	20101110.091915	single-task	8	0.013328	60	0	60-180	60	131	NoGap	1	37	2	9	0	distractor	1	560	720	21777	13.328	13.093	13.550
DTProbeTrack03	7	ProbeTrackDT	1.1	SCS215a	20101110.091536	20101110.091921	single-task	8	0.013328	60	0	60-180	60	151	NoGap	1	38	2	45	0	distractor	1	494	753	22530	13.328	13.088	13.552
DTProbeTrack03	7	ProbeTrackDT	1.1	SCS215a	20101110.091536	20101110.091927	single-task	8	0.013328	60	0	60-180	60	113	NoGap	1	39	2	3	1	target	1	867	567	23097	13.328	13.102	13.549
DTProbeTrack03	7	ProbeTrackDT	1.1	SCS215a	20101110.091536	20101110.091933	single-task	8	0.013328	60	0	60-180	60	101	NoGap	1	40	2	3	1	target	1	560	720	23817	13.328	13.093	13.563
DTProbeTrack03	7	ProbeTrackDT	1.1	SCS215a	20101110.092024	20101110.092029	single-task	8	0.013328	60	10	60-180	60	160	GapPrac	1	1	2	3	0	distractor	1	1227	387	24204	13.328	13.305	13.353
DTProbeTrack03	7	ProbeTrackDT	1.1	SCS215a	20101110.092024	20101110.092036	single-task	8	0.013328	60	10	60-180	60	112	GapPrac	1	2	2	45	1	distractor	0	1027	-1000	23204	13.328	13.305	13.349
DTProbeTrack03	7	ProbeTrackDT	1.1	SCS215a	20101110.092024	20101110.092043	single-task	8	0.013328	60	10	60-180	60	72	GapPrac	1	3	2	1	0	distractor	1	733	634	23838	13.328	12.938	13.724
DTProbeTrack03	7	ProbeTrackDT	1.1	SCS215a	20101110.092024	20101110.092048	single-task	8	0.013328	60	10	60-180	60	107	GapPrac	1	4	2	1	1	target	1	787	607	24445	13.328	12.848	13.793
DTProbeTrack03	7	ProbeTrackDT	1.1	SCS215a	20101110.092024	20101110.092053	single-task	8	0.013328	60	10	60-180	60	61	GapPrac	1	5	2	45	0	distractor	1	600	700	25145	13.328	12.844	13.799
DTProbeTrack03	7	ProbeTrackDT	1.1	SCS215a	20101110.092024	20101110.092059	single-task	8	0.013328	60	10	60-180	60	110	GapPrac	1	6	2	3	0	distractor	1	680	660	25805	13.328	12.907	13.748
DTProbeTrack03	7	ProbeTrackDT	1.1	SCS215a	20101110.092024	20101110.092104	single-task	8	0.013328	60	10	60-180	60	167	GapPrac	1	7	2	6	0	distractor	1	534	733	26538	13.328	13.302	13.355
DTProbeTrack03	7	ProbeTrackDT	1.1	SCS215a	20101110.092024	20101110.092111	single-task	8	0.013328	60	10	60-180	60	68	GapPrac	1	8	2	9	0	distractor	1	627	687	27225	13.328	12.888	13.788
DTProbeTrack03	7	ProbeTrackDT	1.1	SCS215a	20101110.092024	20101110.092116	single-task	8	0.013328	60	10	60-180	60	131	GapPrac	1	9	2	9	0	distractor	1	534	733	27958	13.328	13.090	13.552
DTProbeTrack03	7	ProbeTrackDT	1.1	SCS215a	20101110.092024	20101110.092122	single-task	8	0.013328	60	10	60-180	60	82	GapPrac	1	10	2	1	0	distractor	1	614	693	28651	13.328	12.898	13.762
DTProbeTrack03	7	ProbeTrackDT	1.1	SCS215a	20101110.092024	20101110.092127	single-task	8	0.013328	60	10	60-180	60	113	GapPrac	1	11	2	45	0	distractor	1	534	733	29384	13.329	12.976	13.698
DTProbeTrack03	7	ProbeTrackDT	1.1	SCS215a	20101110.092024	20101110.092133	single-task	8	0.013328	60	10	60-180	60	126	GapPrac	1	12	2	1	1	target	1	574	713	30097	13.328	13.308	13.356
DTProbeTrack03	7	ProbeTrackDT	1.1	SCS215a	20101110.092024	20101110.092138	single-task	8	0.013328	60	10	60-180	60	81	GapPrac	1	13	2	9	1	distractor	0	773	-1000	29097	13.838	13.163	133.281
DTProbeTrack03	7	ProbeTrackDT	1.1	SCS215a	20101110.092024	20101110.092144	single-task	8	0.013328	60	10	60-180	60	180	GapPrac	1	14	2	3	1	target	1	600	700	29797	13.328	12.863	13.789
DTProbeTrack03	7	ProbeTrackDT	1.1	SCS215a	20101110.092024	20101110.092150	single-task	8	0.013328	60	10	60-180	60	155	GapPrac	1	15	2	6	0	distractor	1	733	634	30431	13.328	13.106	13.568
DTProbeTrack03	7	ProbeTrackDT	1.1	SCS215a	20101110.092024	20101110.092157	single-task	8	0.013328	60	10	60-180	60	154	GapPrac	1	16	2	45	1	distractor	0	787	-1000	29431	13.328	13.086	13.571
DTProbeTrack03	7	ProbeTrackDT	1.1	SCS215a	20101110.092024	20101110.092204	single-task	8	0.013328	60	10	60-180	60	141	GapPrac	1	17	2	3	1	target	1	947	527	29958	13.328	12.880	13.776
DTProbeTrack03	7	ProbeTrackDT	1.1	SCS215a	20101110.092024	20101110.092210	single-task	8	0.013328	60	10	60-180	60	136	GapPrac	1	18	2	9	1	target	1	574	713	30671	13.328	13.096	13.561
DTProbeTrack03	7	ProbeTrackDT	1.1	SCS215a	20101110.092024	20101110.092216	single-task	8	0.013328	60	10	60-180	60	131	GapPrac	1	19	2	6	1	target	1	627	687	31358	13.328	12.869	13.803
DTProbeTrack03	7	ProbeTrackDT	1.1	SCS215a	20101110.092024	20101110.092222	single-task	8	0.013328	60	10	60-180	60	131	GapPrac	1	20	2	6	1	target	1	440	780	32138	13.328	13.308	13.348
DTProbeTrack03	7	ProbeTrackDT	1.1	SCS215a	20101110.092318	20101110.092323	single-task	8	0.013328	60	10	60-180	60	125	GapExp	1	1	2	45	0	distractor	1	653	674	32812	13.328	13.300	13.359
DTProbeTrack03	7	ProbeTrackDT	1.1	SCS215a	20101110.092318	20101110.092330	single-task	8	0.013328	60	10	60-180	60	159	GapExp	1	2	2	6	0	distractor	1	494	753	33565	13.328	13.227	13.433
DTProbeTrack03	7	ProbeTrackDT	1.1	SCS215a	20101110.092318	20101110.092336	single-task	8	0.013328	60	10	60-180	60	106	GapExp	1	3	2	1	0	distractor	1	640	680	34245	13.328	13.047	13.616
DTProbeTrack03	7	ProbeTrackDT	1.1	SCS215a	20101110.092318	20101110.092342	single-task	8	0.013328	60	10	60-180	60	172	GapExp	1	4	2	3	0	distractor	1	520	740	34985	13.328	13.100	13.556
DTProbeTrack03	7	ProbeTrackDT	1.1	SCS215a	20101110.092318	20101110.092348	single-task	8	0.013328	60	10	60-180	60	157	GapExp	1	5	2	9	0	distractor	1	494	753	35738	13.328	13.299	13.357
DTProbeTrack03	7	ProbeTrackDT	1.1	SCS215a	20101110.092318	20101110.092354	single-task	8	0.013328	60	10	60-180	60	84	GapExp	0	6	2	3	1	target	1	560	720	36458	13.328	13.298	13.348
DTProbeTrack03	7	ProbeTrackDT	1.1	SCS215a	20101110.092318	20101110.092359	single-task	8	0.013328	60	10	60-180	60	168	GapExp	0	7	2	6	1	target	1	933	534	36992	13.328	13.309	13.350
DTProbeTrack03	7	ProbeTrackDT	1.1	SCS215a	20101110.092318	20101110.092406	single-task	8	0.013328	60	10	60-180	60	150	GapExp	0	8	2	1	1	target	1	707	647	37639	13.328	12.855	13.813
DTProbeTrack03	7	ProbeTrackDT	1.1	SCS215a	20101110.092318	20101110.092412	single-task	8	0.013328	60	10	60-180	60	101	GapExp	0	9	2	3	0	distractor	1	653	674	38313	13.328	13.039	13.629
DTProbeTrack03	7	ProbeTrackDT	1.1	SCS215a	20101110.092318	20101110.092417	single-task	8	0.013328	60	10	60-180	60	80	GapExp	0	10	2	9	0	distractor	1	560	720	39033	13.695	12.947	93.278
DTProbeTrack03	7	ProbeTrackDT	1.1	SCS215a	20101110.092318	20101110.092423	single-task	8	0.013328	60	10	60-180	60	140	GapExp	0	11	2	6	0	distractor	1	693	654	39687	13.328	13.106	13.544
DTProbeTrack03	7	ProbeTrackDT	1.1	SCS215a	20101110.092318	20101110.092429	single-task	8	0.013328	60	10	60-180	60	166	GapExp	0	12	2	1	0	distractor	1	574	713	40400	13.328	12.848	13.807
DTProbeTrack03	7	ProbeTrackDT	1.1	SCS215a	20101110.092318	20101110.092435	single-task	8	0.013328	60	10	60-180	60	72	GapExp	0	13	2	9	1	target	1	707	647	41047	13.328	12.915	13.741
DTProbeTrack03	7	ProbeTrackDT	1.1	SCS215a	20101110.092318	20101110.092440	single-task	8	0.013328	60	10	60-180	60	90	GapExp	0	14	2	6	1	target	1	627	687	41734	13.328	13.305	13.350
DTProbeTrack03	7	ProbeTrackDT	1.1	SCS215a	20101110.092318	20101110.092446	single-task	8	0.013328	60	10	60-180	60	155	GapExp	0	15	2	6	1	target	1	454	773	42507	13.328	13.106	13.547
DTProbeTrack03	7	ProbeTrackDT	1.1	SCS215a	20101110.092318	20101110.092452	single-task	8	0.013328	60	10	60-180	60	86	GapExp	0	16	2	3	1	target	1	560	720	43227	13.328	13.309	13.347
DTProbeTrack03	7	ProbeTrackDT	1.1	SCS215a	20101110.092318	20101110.092457	single-task	8	0.013328	60	10	60-180	60	114	GapExp	0	17	2	45	0	distractor	1	600	700	43927	13.328	12.890	13.774
DTProbeTrack03	7	ProbeTrackDT	1.1	SCS215a	20101110.092318	20101110.092503	single-task	8	0.013328	60	10	60-180	60	174	GapExp	0	18	2	45	1	target	1	827	587	44514	13.328	12.916	13.729
DTProbeTrack03	7	ProbeTrackDT	1.1	SCS215a	20101110.092318	20101110.092510	single-task	8	0.013328	60	10	60-180	60	61	GapExp	0	19	2	45	0	distractor	1	640	680	45194	13.328	13.227	13.424
DTProbeTrack03	7	ProbeTrackDT	1.1	SCS215a	20101110.092318	20101110.092516	single-task	8	0.013328	60	10	60-180	60	110	GapExp	0	20	2	3	1	target	1	667	667	45861	13.381	13.307	26.669
DTProbeTrack03	7	ProbeTrackDT	1.1	SCS215a	20101110.092318	20101110.092521	single-task	8	0.013328	60	10	60-180	60	71	GapExp	0	21	2	9	0	distractor	1	574	713	46574	13.391	13.099	26.646
DTProbeTrack03	7	ProbeTrackDT	1.1	SCS215a	20101110.092318	20101110.092526	single-task	8	0.013328	60	10	60-180	60	136	GapExp	0	22	2	1	0	distractor	1	547	727	47301	13.328	13.308	13.361
DTProbeTrack03	7	ProbeTrackDT	1.1	SCS215a	20101110.092318	20101110.092532	single-task	8	0.013328	60	10	60-180	60	65	GapExp	0	23	2	6	0	distractor	1	440	780	48081	13.328	12.860	13.781
DTProbeTrack03	7	ProbeTrackDT	1.1	SCS215a	20101110.092318	20101110.092537	single-task	8	0.013328	60	10	60-180	60	64	GapExp	0	24	2	6	0	distractor	1	520	740	48821	13.328	12.983	13.654
DTProbeTrack03	7	ProbeTrackDT	1.1	SCS215a	20101110.092318	20101110.092542	single-task	8	0.013328	60	10	60-180	60	162	GapExp	0	25	2	45	1	target	1	534	733	49554	13.328	13.097	13.552
DTProbeTrack03	7	ProbeTrackDT	1.1	SCS215a	20101110.092318	20101110.092549	single-task	8	0.013328	60	10	60-180	60	91	GapExp	0	26	2	1	1	target	1	520	740	50294	13.328	13.099	13.545
DTProbeTrack03	7	ProbeTrackDT	1.1	SCS215a	20101110.092318	20101110.092554	single-task	8	0.013328	60	10	60-180	60	176	GapExp	0	27	2	9	0	distractor	1	720	640	50934	13.328	13.106	13.552
DTProbeTrack03	7	ProbeTrackDT	1.1	SCS215a	20101110.092318	20101110.092600	single-task	8	0.013328	60	10	60-180	60	76	GapExp	0	28	2	6	1	target	1	627	687	51621	13.328	13.301	13.349
DTProbeTrack03	7	ProbeTrackDT	1.1	SCS215a	20101110.092318	20101110.092605	single-task	8	0.013328	60	10	60-180	60	107	GapExp	0	29	2	3	0	target	0	960	-1000	50621	13.328	13.308	13.348
DTProbeTrack03	7	ProbeTrackDT	1.1	SCS215a	20101110.092318	20101110.092611	single-task	8	0.013328	60	10	60-180	60	73	GapExp	0	30	2	9	1	target	1	560	720	51341	13.328	13.309	13.348
DTProbeTrack03	7	ProbeTrackDT	1.1	SCS215a	20101110.092318	20101110.092616	single-task	8	0.013328	60	10	60-180	60	119	GapExp	0	31	2	3	0	distractor	1	800	600	51941	13.328	12.858	13.785
DTProbeTrack03	7	ProbeTrackDT	1.1	SCS215a	20101110.092318	20101110.092622	single-task	8	0.013328	60	10	60-180	60	118	GapExp	0	32	2	6	1	target	1	614	693	52634	13.328	13.107	13.554
DTProbeTrack03	7	ProbeTrackDT	1.1	SCS215a	20101110.092318	20101110.092628	single-task	8	0.013328	60	10	60-180	60	125	GapExp	0	33	2	9	0	distractor	1	547	727	53361	13.328	13.264	13.416
DTProbeTrack03	7	ProbeTrackDT	1.1	SCS215a	20101110.092318	20101110.092634	single-task	8	0.013328	60	10	60-180	60	143	GapExp	0	34	2	1	0	distractor	1	507	747	54108	13.328	13.307	13.350
DTProbeTrack03	7	ProbeTrackDT	1.1	SCS215a	20101110.092318	20101110.092640	single-task	8	0.013328	60	10	60-180	60	117	GapExp	0	35	2	9	1	target	1	427	787	54895	13.328	12.871	13.780
DTProbeTrack03	7	ProbeTrackDT	1.1	SCS215a	20101110.092318	20101110.092645	single-task	8	0.013328	60	10	60-180	60	135	GapExp	0	36	2	1	1	distractor	0	693	-1000	53895	13.328	13.118	13.552
DTProbeTrack03	7	ProbeTrackDT	1.1	SCS215a	20101110.092318	20101110.092651	single-task	8	0.013328	60	10	60-180	60	109	GapExp	0	37	2	1	1	target	1	600	700	54595	13.328	13.100	13.566
DTProbeTrack03	7	ProbeTrackDT	1.1	SCS215a	20101110.092318	20101110.092657	single-task	8	0.013328	60	10	60-180	60	141	GapExp	0	38	2	3	1	target	1	627	687	55282	13.328	13.098	13.556
DTProbeTrack03	7	ProbeTrackDT	1.1	SCS215a	20101110.092318	20101110.092703	single-task	8	0.013328	60	10	60-180	60	91	GapExp	0	39	2	45	0	distractor	1	680	660	55942	13.328	13.309	13.348
DTProbeTrack03	7	ProbeTrackDT	1.1	SCS215a	20101110.092318	20101110.092709	single-task	8	0.013328	60	10	60-180	60	152	GapExp	0	40	2	9	0	distractor	1	600	700	56642	13.328	12.892	13.761
DTProbeTrack03	7	ProbeTrackDT	1.1	SCS215a	20101110.092318	20101110.092715	single-task	8	0.013328	60	10	60-180	60	141	GapExp	0	41	2	9	1	target	1	867	567	57209	13.328	12.836	13.812
DTProbeTrack03	7	ProbeTrackDT	1.1	SCS215a	20101110.092318	20101110.092721	single-task	8	0.013328	60	10	60-180	60	140	GapExp	0	42	2	45	0	distractor	1	507	747	57956	13.328	12.863	13.801
DTProbeTrack03	7	ProbeTrackDT	1.1	SCS215a	20101110.092318	20101110.092727	single-task	8	0.013328	60	10	60-180	60	82	GapExp	0	43	2	45	0	distractor	1	680	660	58616	13.328	13.112	13.551
DTProbeTrack03	7	ProbeTrackDT	1.1	SCS215a	20101110.092318	20101110.092733	single-task	8	0.013328	60	10	60-180	60	65	GapExp	0	44	2	9	0	distractor	1	294	853	59469	13.328	13.090	13.556
DTProbeTrack03	7	ProbeTrackDT	1.1	SCS215a	20101110.092318	20101110.092738	single-task	8	0.013328	60	10	60-180	60	114	GapExp	0	45	2	6	1	target	1	360	820	60289	13.328	13.309	13.347
DTProbeTrack03	7	ProbeTrackDT	1.1	SCS215a	20101110.092318	20101110.092743	single-task	8	0.013328	60	10	60-180	60	117	GapExp	0	46	2	6	0	distractor	1	440	780	61069	13.328	13.309	13.346
DTProbeTrack03	7	ProbeTrackDT	1.1	SCS215a	20101110.092318	20101110.092749	single-task	8	0.013328	60	10	60-180	60	178	GapExp	0	47	2	9	1	distractor	0	254	-1000	60069	13.328	13.291	13.373
DTProbeTrack03	7	ProbeTrackDT	1.1	SCS215a	20101110.092318	20101110.092755	single-task	8	0.013328	60	10	60-180	60	113	GapExp	0	48	2	6	1	target	1	147	927	60996	13.328	12.996	13.653
DTProbeTrack03	7	ProbeTrackDT	1.1	SCS215a	20101110.092318	20101110.092800	single-task	8	0.013328	60	10	60-180	60	139	GapExp	0	49	2	45	1	target	1	414	793	61789	13.328	13.104	13.571
DTProbeTrack03	7	ProbeTrackDT	1.1	SCS215a	20101110.092318	20101110.092806	single-task	8	0.013328	60	10	60-180	60	133	GapExp	0	50	2	3	0	distractor	1	320	840	62629	13.328	13.012	13.738
DTProbeTrack03	7	ProbeTrackDT	1.1	SCS215a	20101110.092318	20101110.092844	single-task	8	0.013328	60	10	60-180	60	132	GapExp	0	51	2	3	0	distractor	1	547	727	63356	13.328	13.093	13.560
DTProbeTrack03	7	ProbeTrackDT	1.1	SCS215a	20101110.092318	20101110.092849	single-task	8	0.013328	60	10	60-180	60	61	GapExp	0	52	2	45	1	distractor	0	693	-1000	62356	13.328	13.099	13.547
DTProbeTrack03	7	ProbeTrackDT	1.1	SCS215a	20101110.092318	20101110.092855	single-task	8	0.013328	60	10	60-180	60	101	GapExp	0	53	2	45	0	distractor	1	613	694	63050	13.328	13.102	13.553
DTProbeTrack03	7	ProbeTrackDT	1.1	SCS215a	20101110.092318	20101110.092901	single-task	8	0.013328	60	10	60-180	60	169	GapExp	0	54	2	9	0	target	0	560	-1000	62050	13.371	13.303	26.657
DTProbeTrack03	7	ProbeTrackDT	1.1	SCS215a	20101110.092318	20101110.092907	single-task	8	0.013328	60	10	60-180	60	68	GapExp	0	55	2	3	1	target	1	880	560	62610	13.328	13.291	13.353
DTProbeTrack03	7	ProbeTrackDT	1.1	SCS215a	20101110.092318	20101110.092912	single-task	8	0.013328	60	10	60-180	60	133	GapExp	0	56	2	1	0	distractor	1	773	614	63224	13.328	13.106	13.557
DTProbeTrack03	7	ProbeTrackDT	1.1	SCS215a	20101110.092318	20101110.092918	single-task	8	0.013328	60	10	60-180	60	147	GapExp	0	57	2	6	0	distractor	1	587	707	63931	13.328	13.038	13.624
DTProbeTrack03	7	ProbeTrackDT	1.1	SCS215a	20101110.092318	20101110.092924	single-task	8	0.013328	60	10	60-180	60	151	GapExp	0	58	2	6	0	distractor	1	427	787	64718	13.328	12.853	13.783
DTProbeTrack03	7	ProbeTrackDT	1.1	SCS215a	20101110.092318	20101110.092930	single-task	8	0.013328	60	10	60-180	60	127	GapExp	0	59	2	3	1	target	1	600	700	65418	13.328	13.105	13.536
DTProbeTrack03	7	ProbeTrackDT	1.1	SCS215a	20101110.092318	20101110.092936	single-task	8	0.013328	60	10	60-180	60	130	GapExp	0	60	2	1	1	target	1	507	747	66165	13.328	13.024	13.639
DTProbeTrack03	7	ProbeTrackDT	1.1	SCS215a	20101110.092318	20101110.092942	single-task	8	0.013328	60	10	60-180	60	99	GapExp	0	61	2	45	1	target	1	547	727	66892	13.328	13.281	13.375
DTProbeTrack03	7	ProbeTrackDT	1.1	SCS215a	20101110.092318	20101110.092948	single-task	8	0.013328	60	10	60-180	60	64	GapExp	0	62	2	3	0	distractor	1	574	713	67605	13.328	13.114	13.548
DTProbeTrack03	7	ProbeTrackDT	1.1	SCS215a	20101110.092318	20101110.092952	single-task	8	0.013328	60	10	60-180	60	157	GapExp	0	63	2	3	1	target	1	707	647	68252	13.328	12.871	13.784
DTProbeTrack03	7	ProbeTrackDT	1.1	SCS215a	20101110.092318	20101110.092959	single-task	8	0.013328	60	10	60-180	60	109	GapExp	0	64	2	1	0	distractor	1	547	727	68979	13.328	12.903	13.760
DTProbeTrack03	7	ProbeTrackDT	1.1	SCS215a	20101110.092318	20101110.093004	single-task	8	0.013328	60	10	60-180	60	168	GapExp	0	65	2	1	1	target	1	560	720	69699	13.328	13.303	13.348
DTProbeTrack03	7	ProbeTrackDT	1.1	SCS215a	20101110.092318	20101110.093010	single-task	8	0.013328	60	10	60-180	60	75	GapExp	0	66	2	3	1	target	1	467	767	70466	13.328	13.306	13.356
DTProbeTrack03	7	ProbeTrackDT	1.1	SCS215a	20101110.092318	20101110.093015	single-task	8	0.013328	60	10	60-180	60	133	GapExp	0	67	2	3	1	target	1	587	707	71173	13.328	13.091	13.559
DTProbeTrack03	7	ProbeTrackDT	1.1	SCS215a	20101110.092318	20101110.093021	single-task	8	0.013328	60	10	60-180	60	87	GapExp	0	68	2	3	0	target	0	653	-1000	70173	13.328	13.093	13.563
DTProbeTrack03	7	ProbeTrackDT	1.1	SCS215a	20101110.092318	20101110.093026	single-task	8	0.013328	60	10	60-180	60	92	GapExp	0	69	2	9	1	target	1	654	673	70846	13.328	13.296	13.350
DTProbeTrack03	7	ProbeTrackDT	1.1	SCS215a	20101110.092318	20101110.093032	single-task	8	0.013328	60	10	60-180	60	85	GapExp	0	70	2	45	1	target	1	600	700	71546	13.328	13.312	13.349
DTProbeTrack03	7	ProbeTrackDT	1.1	SCS215a	20101110.092318	20101110.093037	single-task	8	0.013328	60	10	60-180	60	172	GapExp	0	71	2	1	0	distractor	1	760	620	72166	13.328	13.305	13.348
DTProbeTrack03	7	ProbeTrackDT	1.1	SCS215a	20101110.092318	20101110.093044	single-task	8	0.013328	60	10	60-180	60	74	GapExp	0	72	2	6	0	target	0	773	-1000	71166	13.328	13.272	13.380
DTProbeTrack03	7	ProbeTrackDT	1.1	SCS215a	20101110.092318	20101110.093049	single-task	8	0.013328	60	10	60-180	60	125	GapExp	0	73	2	1	0	target	0	640	-1000	70166	13.328	12.945	13.706
DTProbeTrack03	7	ProbeTrackDT	1.1	SCS215a	20101110.092318	20101110.093055	single-task	8	0.013328	60	10	60-180	60	140	GapExp	0	74	2	3	0	distractor	1	773	614	70780	13.328	12.852	13.793
DTProbeTrack03	7	ProbeTrackDT	1.1	SCS215a	20101110.092318	20101110.093101	single-task	8	0.013328	60	10	60-180	60	87	GapExp	0	75	2	6	0	distractor	1	760	620	71400	13.328	12.871	13.772
DTProbeTrack03	7	ProbeTrackDT	1.1	SCS215a	20101110.092318	20101110.093106	single-task	8	0.013328	60	10	60-180	60	103	GapExp	0	76	2	9	0	distractor	1	600	700	72100	13.328	13.096	13.721
DTProbeTrack03	7	ProbeTrackDT	1.1	SCS215a	20101110.092318	20101110.093112	single-task	8	0.013328	60	10	60-180	60	85	GapExp	0	77	2	9	0	distractor	1	440	780	72880	13.328	13.308	13.346
DTProbeTrack03	7	ProbeTrackDT	1.1	SCS215a	20101110.092318	20101110.093117	single-task	8	0.013328	60	10	60-180	60	137	GapExp	0	78	2	1	1	target	1	454	773	73653	13.379	13.108	26.955
DTProbeTrack03	7	ProbeTrackDT	1.1	SCS215a	20101110.092318	20101110.093123	single-task	8	0.013328	60	10	60-180	60	62	GapExp	0	79	2	1	0	distractor	1	587	707	74360	13.328	13.303	13.353
DTProbeTrack03	7	ProbeTrackDT	1.1	SCS215a	20101110.092318	20101110.093127	single-task	8	0.013328	60	10	60-180	60	142	GapExp	0	80	2	3	0	distractor	1	507	747	75107	13.427	12.962	39.566
DTProbeTrack03	7	ProbeTrackDT	1.1	SCS215a	20101110.092318	20101110.093133	single-task	8	0.013328	60	10	60-180	60	90	GapExp	0	81	2	9	1	distractor	0	574	-1000	74107	13.328	13.308	13.348
DTProbeTrack03	7	ProbeTrackDT	1.1	SCS215a	20101110.092318	20101110.093139	single-task	8	0.013328	60	10	60-180	60	117	GapExp	0	82	2	9	0	distractor	1	494	753	74860	13.328	13.086	13.564
DTProbeTrack03	7	ProbeTrackDT	1.1	SCS215a	20101110.092318	20101110.093144	single-task	8	0.013328	60	10	60-180	60	156	GapExp	0	83	2	6	1	target	1	494	753	75613	13.328	13.097	13.560
DTProbeTrack03	7	ProbeTrackDT	1.1	SCS215a	20101110.092318	20101110.093150	single-task	8	0.013328	60	10	60-180	60	145	GapExp	0	84	2	1	0	distractor	1	534	733	76346	13.328	12.875	13.798
DTProbeTrack03	7	ProbeTrackDT	1.1	SCS215a	20101110.092318	20101110.093156	single-task	8	0.013328	60	10	60-180	60	177	GapExp	0	85	2	6	0	distractor	1	520	740	77086	13.328	12.859	13.793
DTProbeTrack03	7	ProbeTrackDT	1.1	SCS215a	20101110.092318	20101110.093203	single-task	8	0.013328	60	10	60-180	60	139	GapExp	0	86	2	45	1	distractor	0	627	-1000	76086	13.328	12.962	13.697
DTProbeTrack03	7	ProbeTrackDT	1.1	SCS215a	20101110.092318	20101110.093209	single-task	8	0.013328	60	10	60-180	60	144	GapExp	0	87	2	3	1	target	1	494	753	76839	13.328	13.310	13.348
DTProbeTrack03	7	ProbeTrackDT	1.1	SCS215a	20101110.092318	20101110.093215	single-task	8	0.013328	60	10	60-180	60	180	GapExp	0	88	2	6	0	distractor	1	574	713	77552	13.328	13.308	13.349
DTProbeTrack03	7	ProbeTrackDT	1.1	SCS215a	20101110.092318	20101110.093221	single-task	8	0.013328	60	10	60-180	60	180	GapExp	0	89	2	1	1	target	1	614	693	78245	13.327	12.886	13.762
DTProbeTrack03	7	ProbeTrackDT	1.1	SCS215a	20101110.092318	20101110.093228	single-task	8	0.013328	60	10	60-180	60	147	GapExp	0	90	2	45	1	target	1	467	767	79012	13.328	13.099	13.555
DTProbeTrack03	7	ProbeTrackDT	1.1	SCS215a	20101110.092318	20101110.093234	single-task	8	0.013328	60	10	60-180	60	64	GapExp	0	91	2	9	0	distractor	1	640	680	79692	13.328	13.104	13.551
DTProbeTrack03	7	ProbeTrackDT	1.1	SCS215a	20101110.092318	20101110.093239	single-task	8	0.013328	60	10	60-180	60	130	GapExp	0	92	2	6	1	distractor	0	760	-1000	78692	13.328	12.840	13.809
DTProbeTrack03	7	ProbeTrackDT	1.1	SCS215a	20101110.092318	20101110.093245	single-task	8	0.013328	60	10	60-180	60	79	GapExp	0	93	2	45	1	target	1	400	800	79492	13.328	13.308	13.347
DTProbeTrack03	7	ProbeTrackDT	1.1	SCS215a	20101110.092318	20101110.093251	single-task	8	0.013328	60	10	60-180	60	142	GapExp	0	94	2	9	1	target	1	973	514	80006	13.328	13.301	13.362
DTProbeTrack03	7	ProbeTrackDT	1.1	SCS215a	20101110.092318	20101110.093257	single-task	8	0.013328	60	10	60-180	60	172	GapExp	0	95	2	45	0	distractor	1	534	733	80739	13.328	13.301	13.353
DTProbeTrack03	7	ProbeTrackDT	1.1	SCS215a	20101110.092318	20101110.093304	single-task	8	0.013328	60	10	60-180	60	145	GapExp	0	96	2	3	0	distractor	1	587	707	81446	13.328	13.308	13.351
DTProbeTrack03	7	ProbeTrackDT	1.1	SCS215a	20101110.092318	20101110.093310	single-task	8	0.013328	60	10	60-180	60	89	GapExp	0	97	2	3	0	distractor	1	480	760	82206	13.328	12.912	13.724
DTProbeTrack03	7	ProbeTrackDT	1.1	SCS215a	20101110.092318	20101110.093315	single-task	8	0.013328	60	10	60-180	60	133	GapExp	0	98	2	45	0	distractor	1	494	753	82959	13.328	12.879	13.784
DTProbeTrack03	7	ProbeTrackDT	1.1	SCS215a	20101110.092318	20101110.093321	single-task	8	0.013328	60	10	60-180	60	123	GapExp	0	99	2	9	0	distractor	1	467	767	83726	13.328	12.949	13.714
DTProbeTrack03	7	ProbeTrackDT	1.1	SCS215a	20101110.092318	20101110.093327	single-task	8	0.013328	60	10	60-180	60	165	GapExp	0	100	2	9	0	distractor	1	547	727	84453	13.328	13.069	13.577
DTProbeTrack03	7	ProbeTrackDT	1.1	SCS215a	20101110.092318	20101110.093358	single-task	8	0.013328	60	10	60-180	60	82	GapExp	0	101	2	3	0	distractor	1	614	693	85146	13.328	13.099	13.550
DTProbeTrack03	7	ProbeTrackDT	1.1	SCS215a	20101110.092318	20101110.093404	single-task	8	0.013328	60	10	60-180	60	146	GapExp	0	102	2	9	0	distractor	1	614	693	85839	13.328	12.856	13.792
DTProbeTrack03	7	ProbeTrackDT	1.1	SCS215a	20101110.092318	20101110.093410	single-task	8	0.013328	60	10	60-180	60	64	GapExp	0	103	2	9	1	target	1	760	620	86459	13.328	13.302	13.370
DTProbeTrack03	7	ProbeTrackDT	1.1	SCS215a	20101110.092318	20101110.093415	single-task	8	0.013328	60	10	60-180	60	89	GapExp	0	104	2	45	0	distractor	1	534	733	87192	13.328	12.907	13.749
DTProbeTrack03	7	ProbeTrackDT	1.1	SCS215a	20101110.092318	20101110.093421	single-task	8	0.013328	60	10	60-180	60	176	GapExp	0	105	2	1	1	target	1	600	700	87892	13.328	12.878	13.768
DTProbeTrack03	7	ProbeTrackDT	1.1	SCS215a	20101110.092318	20101110.093427	single-task	8	0.013328	60	10	60-180	60	63	GapExp	0	106	2	3	0	target	0	600	-1000	86892	13.328	13.111	13.548
DTProbeTrack03	7	ProbeTrackDT	1.1	SCS215a	20101110.092318	20101110.093432	single-task	8	0.013328	60	10	60-180	60	123	GapExp	0	107	2	6	0	target	0	494	-1000	85892	13.328	13.091	13.559
DTProbeTrack03	7	ProbeTrackDT	1.1	SCS215a	20101110.092318	20101110.093437	single-task	8	0.013328	60	10	60-180	60	79	GapExp	0	108	2	3	1	target	1	467	767	86659	13.328	12.970	13.694
DTProbeTrack03	7	ProbeTrackDT	1.1	SCS215a	20101110.092318	20101110.093442	single-task	8	0.013328	60	10	60-180	60	138	GapExp	0	109	2	6	0	distractor	1	467	767	87426	13.328	12.942	13.697
DTProbeTrack03	7	ProbeTrackDT	1.1	SCS215a	20101110.092318	20101110.093448	single-task	8	0.013328	60	10	60-180	60	162	GapExp	0	110	2	6	0	distractor	1	414	793	88219	13.328	13.085	13.572
DTProbeTrack03	7	ProbeTrackDT	1.1	SCS215a	20101110.092318	20101110.093454	single-task	8	0.013328	60	10	60-180	60	137	GapExp	0	111	2	6	1	target	1	574	713	88932	13.328	12.906	13.742
DTProbeTrack03	7	ProbeTrackDT	1.1	SCS215a	20101110.092318	20101110.093500	single-task	8	0.013328	60	10	60-180	60	91	GapExp	0	112	2	3	1	target	1	400	800	89732	13.328	12.871	13.786
DTProbeTrack03	7	ProbeTrackDT	1.1	SCS215a	20101110.092318	20101110.093505	single-task	8	0.013328	60	10	60-180	60	72	GapExp	0	113	2	6	1	target	1	547	727	90459	13.328	12.929	13.719
DTProbeTrack03	7	ProbeTrackDT	1.1	SCS215a	20101110.092318	20101110.093510	single-task	8	0.013328	60	10	60-180	60	134	GapExp	0	114	2	45	0	distractor	1	494	753	91212	13.328	12.864	13.795
DTProbeTrack03	7	ProbeTrackDT	1.1	SCS215a	20101110.092318	20101110.093516	single-task	8	0.013328	60	10	60-180	60	114	GapExp	0	115	2	45	0	distractor	1	400	800	92012	13.328	12.866	13.783
DTProbeTrack03	7	ProbeTrackDT	1.1	SCS215a	20101110.092318	20101110.093522	single-task	8	0.013328	60	10	60-180	60	123	GapExp	0	116	2	45	1	target	1	560	720	92732	13.328	12.900	13.750
DTProbeTrack03	7	ProbeTrackDT	1.1	SCS215a	20101110.092318	20101110.093529	single-task	8	0.013328	60	10	60-180	60	110	GapExp	0	117	2	1	0	distractor	1	414	793	93525	13.328	13.301	13.348
DTProbeTrack03	7	ProbeTrackDT	1.1	SCS215a	20101110.092318	20101110.093534	single-task	8	0.013328	60	10	60-180	60	162	GapExp	0	118	2	45	0	target	0	720	-1000	92525	13.328	13.250	13.411
DTProbeTrack03	7	ProbeTrackDT	1.1	SCS215a	20101110.092318	20101110.093541	single-task	8	0.013328	60	10	60-180	60	66	GapExp	0	119	2	9	0	target	0	507	-1000	91525	13.328	12.875	13.775
DTProbeTrack03	7	ProbeTrackDT	1.1	SCS215a	20101110.092318	20101110.093546	single-task	8	0.013328	60	10	60-180	60	103	GapExp	0	120	2	6	1	target	1	427	787	92312	13.328	12.872	13.788
DTProbeTrack03	7	ProbeTrackDT	1.1	SCS215a	20101110.092318	20101110.093551	single-task	8	0.013328	60	10	60-180	60	136	GapExp	0	121	2	45	0	distractor	1	387	807	93119	13.328	13.084	13.571
DTProbeTrack03	7	ProbeTrackDT	1.1	SCS215a	20101110.092318	20101110.093557	single-task	8	0.013328	60	10	60-180	60	146	GapExp	0	122	2	3	0	target	0	587	-1000	92119	13.328	13.009	13.653
DTProbeTrack03	7	ProbeTrackDT	1.1	SCS215a	20101110.092318	20101110.093603	single-task	8	0.013328	60	10	60-180	60	130	GapExp	0	123	2	6	1	target	1	680	660	92779	13.328	12.843	13.805
DTProbeTrack03	7	ProbeTrackDT	1.1	SCS215a	20101110.092318	20101110.093609	single-task	8	0.013328	60	10	60-180	60	106	GapExp	0	124	2	9	0	target	0	560	-1000	91779	13.328	13.308	13.349
DTProbeTrack03	7	ProbeTrackDT	1.1	SCS215a	20101110.092318	20101110.093615	single-task	8	0.013328	60	10	60-180	60	143	GapExp	0	125	2	1	0	distractor	1	640	680	92459	13.328	13.309	13.345
DTProbeTrack03	7	ProbeTrackDT	1.1	SCS215a	20101110.092318	20101110.093621	single-task	8	0.013328	60	10	60-180	60	163	GapExp	0	126	2	3	0	distractor	1	800	600	93059	13.328	13.309	13.350
DTProbeTrack03	7	ProbeTrackDT	1.1	SCS215a	20101110.092318	20101110.093627	single-task	8	0.013328	60	10	60-180	60	74	GapExp	0	127	2	1	0	distractor	1	480	760	93819	13.328	12.857	13.801
DTProbeTrack03	7	ProbeTrackDT	1.1	SCS215a	20101110.092318	20101110.093632	single-task	8	0.013328	60	10	60-180	60	130	GapExp	0	128	2	45	0	distractor	1	667	667	94486	13.328	13.296	13.352
DTProbeTrack03	7	ProbeTrackDT	1.1	SCS215a	20101110.092318	20101110.093638	single-task	8	0.013328	60	10	60-180	60	129	GapExp	0	129	2	6	1	target	1	653	674	95160	13.328	13.111	13.541
DTProbeTrack03	7	ProbeTrackDT	1.1	SCS215a	20101110.092318	20101110.093644	single-task	8	0.013328	60	10	60-180	60	71	GapExp	0	130	2	45	1	target	1	627	687	95847	13.328	12.984	13.671
DTProbeTrack03	7	ProbeTrackDT	1.1	SCS215a	20101110.092318	20101110.093650	single-task	8	0.013328	60	10	60-180	60	164	GapExp	0	131	2	9	1	target	1	454	773	96620	13.328	13.308	13.345
DTProbeTrack03	7	ProbeTrackDT	1.1	SCS215a	20101110.092318	20101110.093656	single-task	8	0.013328	60	10	60-180	60	120	GapExp	0	132	2	9	1	target	1	414	793	97413	13.328	13.038	13.619
DTProbeTrack03	7	ProbeTrackDT	1.1	SCS215a	20101110.092318	20101110.093701	single-task	8	0.013328	60	10	60-180	60	180	GapExp	0	133	2	1	1	target	1	693	654	98067	13.328	12.909	13.748
DTProbeTrack03	7	ProbeTrackDT	1.1	SCS215a	20101110.092318	20101110.093708	single-task	8	0.013328	60	10	60-180	60	66	GapExp	0	134	2	1	1	target	1	400	800	98867	13.328	13.311	13.346
DTProbeTrack03	7	ProbeTrackDT	1.1	SCS215a	20101110.092318	20101110.093713	single-task	8	0.013328	60	10	60-180	60	76	GapExp	0	135	2	1	0	distractor	1	467	767	99634	13.328	12.962	13.693
DTProbeTrack03	7	ProbeTrackDT	1.1	SCS215a	20101110.092318	20101110.093717	single-task	8	0.013328	60	10	60-180	60	69	GapExp	0	136	2	1	0	distractor	1	693	654	100288	13.328	13.308	13.348
DTProbeTrack03	7	ProbeTrackDT	1.1	SCS215a	20101110.092318	20101110.093722	single-task	8	0.013328	60	10	60-180	60	173	GapExp	0	137	2	45	0	distractor	1	613	694	100982	13.328	12.888	13.785
DTProbeTrack03	7	ProbeTrackDT	1.1	SCS215a	20101110.092318	20101110.093729	single-task	8	0.013328	60	10	60-180	60	115	GapExp	0	138	2	9	1	target	1	587	707	101689	13.328	13.001	13.650
DTProbeTrack03	7	ProbeTrackDT	1.1	SCS215a	20101110.092318	20101110.093735	single-task	8	0.013328	60	10	60-180	60	120	GapExp	0	139	2	6	0	distractor	1	534	733	102422	13.328	12.895	13.761
DTProbeTrack03	7	ProbeTrackDT	1.1	SCS215a	20101110.092318	20101110.093741	single-task	8	0.013328	60	10	60-180	60	100	GapExp	0	140	2	3	1	target	1	667	667	103089	13.328	12.982	13.677
DTProbeTrack03	7	ProbeTrackDT	1.1	SCS215a	20101110.092318	20101110.093746	single-task	8	0.013328	60	10	60-180	60	126	GapExp	0	141	2	6	0	target	0	587	-1000	102089	13.328	12.865	13.781
DTProbeTrack03	7	ProbeTrackDT	1.1	SCS215a	20101110.092318	20101110.093752	single-task	8	0.013328	60	10	60-180	60	151	GapExp	0	142	2	9	0	distractor	1	400	800	102889	13.328	13.090	13.567
DTProbeTrack03	7	ProbeTrackDT	1.1	SCS215a	20101110.092318	20101110.093758	single-task	8	0.013328	60	10	60-180	60	89	GapExp	0	143	2	6	0	distractor	1	800	600	103489	13.328	12.985	13.669
DTProbeTrack03	7	ProbeTrackDT	1.1	SCS215a	20101110.092318	20101110.093803	single-task	8	0.013328	60	10	60-180	60	86	GapExp	0	144	2	45	1	target	1	653	674	104163	13.328	13.110	13.551
DTProbeTrack03	7	ProbeTrackDT	1.1	SCS215a	20101110.092318	20101110.093809	single-task	8	0.013328	60	10	60-180	60	127	GapExp	0	145	2	1	1	target	1	574	713	104876	13.328	13.115	13.550
DTProbeTrack03	7	ProbeTrackDT	1.1	SCS215a	20101110.092318	20101110.093815	single-task	8	0.013328	60	10	60-180	60	151	GapExp	0	146	2	3	0	distractor	1	560	720	105596	13.328	13.310	13.347
DTProbeTrack03	7	ProbeTrackDT	1.1	SCS215a	20101110.092318	20101110.093821	single-task	8	0.013328	60	10	60-180	60	176	GapExp	0	147	2	45	0	distractor	1	560	720	106316	13.328	13.309	13.345
DTProbeTrack03	7	ProbeTrackDT	1.1	SCS215a	20101110.092318	20101110.093828	single-task	8	0.013328	60	10	60-180	60	178	GapExp	0	148	2	6	1	target	1	587	707	107023	13.328	13.300	13.351
DTProbeTrack03	7	ProbeTrackDT	1.1	SCS215a	20101110.092318	20101110.093834	single-task	8	0.013328	60	10	60-180	60	171	GapExp	0	149	2	45	1	target	1	693	654	107677	13.328	12.960	13.697
DTProbeTrack03	7	ProbeTrackDT	1.1	SCS215a	20101110.092318	20101110.093841	single-task	8	0.013328	60	10	60-180	60	134	GapExp	0	150	2	1	1	target	1	614	693	108370	13.328	13.309	13.348
DTProbeTrack03	7	ProbeTrackDT	1.1	SCS215a	20101110.092318	20101110.093854	single-task	8	0.013328	60	10	60-180	60	89	GapExp	0	151	2	9	1	distractor	0	720	-1000	107370	13.328	13.302	13.355
DTProbeTrack03	7	ProbeTrackDT	1.1	SCS215a	20101110.092318	20101110.093900	single-task	8	0.013328	60	10	60-180	60	105	GapExp	0	152	2	1	1	target	1	627	687	108057	13.328	13.082	13.559
DTProbeTrack03	7	ProbeTrackDT	1.1	SCS215a	20101110.092318	20101110.093905	single-task	8	0.013328	60	10	60-180	60	89	GapExp	0	153	2	45	1	target	1	640	680	108737	13.328	12.949	13.714
DTProbeTrack03	7	ProbeTrackDT	1.1	SCS215a	20101110.092318	20101110.093911	single-task	8	0.013328	60	10	60-180	60	65	GapExp	0	154	2	45	0	target	0	560	-1000	107737	13.328	13.131	13.527
DTProbeTrack03	7	ProbeTrackDT	1.1	SCS215a	20101110.092318	20101110.093916	single-task	8	0.013328	60	10	60-180	60	85	GapExp	0	155	2	9	1	target	1	587	707	108444	13.328	13.300	13.357
DTProbeTrack03	7	ProbeTrackDT	1.1	SCS215a	20101110.092318	20101110.093921	single-task	8	0.013328	60	10	60-180	60	137	GapExp	0	156	2	45	1	target	1	454	773	109217	13.328	12.907	13.744
DTProbeTrack03	7	ProbeTrackDT	1.1	SCS215a	20101110.092318	20101110.093928	single-task	8	0.013328	60	10	60-180	60	105	GapExp	0	157	2	3	1	target	1	534	733	109950	13.328	13.100	13.542
DTProbeTrack03	7	ProbeTrackDT	1.1	SCS215a	20101110.092318	20101110.093933	single-task	8	0.013328	60	10	60-180	60	97	GapExp	0	158	2	6	0	distractor	1	507	747	110697	13.328	12.844	13.817
DTProbeTrack03	7	ProbeTrackDT	1.1	SCS215a	20101110.092318	20101110.093938	single-task	8	0.013328	60	10	60-180	60	149	GapExp	0	159	2	45	1	target	1	320	840	111537	13.328	13.296	13.359
DTProbeTrack03	7	ProbeTrackDT	1.1	SCS215a	20101110.092318	20101110.093945	single-task	8	0.013328	60	10	60-180	60	147	GapExp	0	160	2	9	1	distractor	0	520	-1000	110537	13.328	13.309	13.348
DTProbeTrack03	7	ProbeTrackDT	1.1	SCS215a	20101110.092318	20101110.093951	single-task	8	0.013328	60	10	60-180	60	121	GapExp	0	161	2	9	0	distractor	1	614	693	111230	13.328	13.296	13.349
DTProbeTrack03	7	ProbeTrackDT	1.1	SCS215a	20101110.092318	20101110.093956	single-task	8	0.013328	60	10	60-180	60	128	GapExp	0	162	2	3	0	distractor	1	627	687	111917	13.328	13.302	13.347
DTProbeTrack03	7	ProbeTrackDT	1.1	SCS215a	20101110.092318	20101110.094002	single-task	8	0.013328	60	10	60-180	60	175	GapExp	0	163	2	6	0	distractor	1	600	700	112617	13.328	13.097	13.552
DTProbeTrack03	7	ProbeTrackDT	1.1	SCS215a	20101110.092318	20101110.094009	single-task	8	0.013328	60	10	60-180	60	119	GapExp	0	164	2	3	0	distractor	1	827	587	113204	13.328	12.969	13.684
DTProbeTrack03	7	ProbeTrackDT	1.1	SCS215a	20101110.092318	20101110.094014	single-task	8	0.013328	60	10	60-180	60	91	GapExp	0	165	2	6	0	distractor	1	454	773	113977	13.328	13.039	13.513
DTProbeTrack03	7	ProbeTrackDT	1.1	SCS215a	20101110.092318	20101110.094019	single-task	8	0.013328	60	10	60-180	60	168	GapExp	0	166	2	3	0	distractor	1	600	700	114677	13.328	12.919	13.722
DTProbeTrack03	7	ProbeTrackDT	1.1	SCS215a	20101110.092318	20101110.094026	single-task	8	0.013328	60	10	60-180	60	133	GapExp	0	167	2	1	1	target	1	574	713	115390	13.328	13.310	13.345
DTProbeTrack03	7	ProbeTrackDT	1.1	SCS215a	20101110.092318	20101110.094032	single-task	8	0.013328	60	10	60-180	60	168	GapExp	0	168	2	9	0	target	0	760	-1000	114390	13.328	12.850	13.806
DTProbeTrack03	7	ProbeTrackDT	1.1	SCS215a	20101110.092318	20101110.094038	single-task	8	0.013328	60	10	60-180	60	112	GapExp	0	169	2	1	1	target	1	627	687	115077	13.328	13.091	13.569
DTProbeTrack03	7	ProbeTrackDT	1.1	SCS215a	20101110.092318	20101110.094044	single-task	8	0.013328	60	10	60-180	60	84	GapExp	0	170	2	9	1	target	1	587	707	115784	13.328	13.087	13.552
DTProbeTrack03	7	ProbeTrackDT	1.1	SCS215a	20101110.092318	20101110.094049	single-task	8	0.013328	60	10	60-180	60	155	GapExp	0	171	2	1	1	target	1	520	740	116524	13.375	12.884	26.600
DTProbeTrack03	7	ProbeTrackDT	1.1	SCS215a	20101110.092318	20101110.094055	single-task	8	0.013328	60	10	60-180	60	113	GapExp	0	172	2	9	0	target	0	574	-1000	115524	13.328	13.027	13.641
DTProbeTrack03	7	ProbeTrackDT	1.1	SCS215a	20101110.092318	20101110.094100	single-task	8	0.013328	60	10	60-180	60	173	GapExp	0	173	2	9	1	target	1	560	720	116244	13.328	13.043	13.572
DTProbeTrack03	7	ProbeTrackDT	1.1	SCS215a	20101110.092318	20101110.094107	single-task	8	0.013328	60	10	60-180	60	120	GapExp	0	174	2	45	1	target	1	587	707	116951	13.328	13.304	13.347
DTProbeTrack03	7	ProbeTrackDT	1.1	SCS215a	20101110.092318	20101110.094113	single-task	8	0.013328	60	10	60-180	60	129	GapExp	0	175	2	6	1	target	1	614	693	117644	13.328	13.098	13.550
DTProbeTrack03	7	ProbeTrackDT	1.1	SCS215a	20101110.092318	20101110.094119	single-task	8	0.013328	60	10	60-180	60	105	GapExp	0	176	2	6	1	target	1	507	747	118391	13.328	13.110	13.560
DTProbeTrack03	7	ProbeTrackDT	1.1	SCS215a	20101110.092318	20101110.094124	single-task	8	0.013328	60	10	60-180	60	112	GapExp	0	177	2	9	1	target	1	454	773	119164	13.328	13.064	13.606
DTProbeTrack03	7	ProbeTrackDT	1.1	SCS215a	20101110.092318	20101110.094129	single-task	8	0.013328	60	10	60-180	60	71	GapExp	0	178	2	3	1	target	1	360	820	119984	13.328	13.298	13.353
DTProbeTrack03	7	ProbeTrackDT	1.1	SCS215a	20101110.092318	20101110.094134	single-task	8	0.013328	60	10	60-180	60	115	GapExp	0	179	2	3	0	distractor	1	574	713	120697	13.328	13.308	13.348
DTProbeTrack03	7	ProbeTrackDT	1.1	SCS215a	20101110.092318	20101110.094140	single-task	8	0.013328	60	10	60-180	60	114	GapExp	0	180	2	1	0	target	0	467	-1000	119697	13.328	12.872	13.778
DTProbeTrack03	7	ProbeTrackDT	1.1	SCS215a	20101110.092318	20101110.094145	single-task	8	0.013328	60	10	60-180	60	89	GapExp	0	181	2	3	1	target	1	627	687	120384	13.328	13.177	13.484
DTProbeTrack03	7	ProbeTrackDT	1.1	SCS215a	20101110.092318	20101110.094150	single-task	8	0.013328	60	10	60-180	60	112	GapExp	0	182	2	45	0	distractor	1	520	740	121124	13.328	13.298	13.347
DTProbeTrack03	7	ProbeTrackDT	1.1	SCS215a	20101110.092318	20101110.094156	single-task	8	0.013328	60	10	60-180	60	122	GapExp	0	183	2	45	1	target	1	534	733	121857	13.328	13.294	13.367
DTProbeTrack03	7	ProbeTrackDT	1.1	SCS215a	20101110.092318	20101110.094202	single-task	8	0.013328	60	10	60-180	60	63	GapExp	0	184	2	3	1	target	1	614	693	122550	13.328	13.099	13.571
DTProbeTrack03	7	ProbeTrackDT	1.1	SCS215a	20101110.092318	20101110.094207	single-task	8	0.013328	60	10	60-180	60	148	GapExp	0	185	2	6	0	distractor	1	520	740	123290	13.328	13.306	13.345
DTProbeTrack03	7	ProbeTrackDT	1.1	SCS215a	20101110.092318	20101110.094213	single-task	8	0.013328	60	10	60-180	60	89	GapExp	0	186	2	1	0	distractor	1	640	680	123970	13.328	13.100	13.555
DTProbeTrack03	7	ProbeTrackDT	1.1	SCS215a	20101110.092318	20101110.094218	single-task	8	0.013328	60	10	60-180	60	122	GapExp	0	187	2	1	0	distractor	1	693	654	124624	13.328	13.308	13.348
DTProbeTrack03	7	ProbeTrackDT	1.1	SCS215a	20101110.092318	20101110.094224	single-task	8	0.013328	60	10	60-180	60	62	GapExp	0	188	2	1	1	target	1	1013	494	125118	13.328	13.308	13.353
DTProbeTrack03	7	ProbeTrackDT	1.1	SCS215a	20101110.092318	20101110.094229	single-task	8	0.013328	60	10	60-180	60	100	GapExp	0	189	2	1	1	target	1	574	713	125831	13.328	13.103	13.576
DTProbeTrack03	7	ProbeTrackDT	1.1	SCS215a	20101110.092318	20101110.094235	single-task	8	0.013328	60	10	60-180	60	126	GapExp	0	190	2	1	0	target	0	654	-1000	124831	13.328	13.098	13.557
DTProbeTrack03	7	ProbeTrackDT	1.1	SCS215a	20101110.092318	20101110.094240	single-task	8	0.013328	60	10	60-180	60	154	GapExp	0	191	2	1	0	distractor	1	680	660	125491	13.328	13.308	13.345
DTProbeTrack03	7	ProbeTrackDT	1.1	SCS215a	20101110.092318	20101110.094247	single-task	8	0.013328	60	10	60-180	60	147	GapExp	0	192	2	45	0	distractor	1	494	753	126244	13.328	12.849	13.808
DTProbeTrack03	7	ProbeTrackDT	1.1	SCS215a	20101110.092318	20101110.094253	single-task	8	0.013328	60	10	60-180	60	179	GapExp	0	193	2	45	1	target	1	520	740	126984	13.328	13.300	13.369
DTProbeTrack03	7	ProbeTrackDT	1.1	SCS215a	20101110.092318	20101110.094300	single-task	8	0.013328	60	10	60-180	60	165	GapExp	0	194	2	45	0	distractor	1	547	727	127711	13.328	13.307	13.349
DTProbeTrack03	7	ProbeTrackDT	1.1	SCS215a	20101110.092318	20101110.094307	single-task	8	0.013328	60	10	60-180	60	66	GapExp	0	195	2	6	1	target	1	614	693	128404	13.328	13.308	13.346
DTProbeTrack03	7	ProbeTrackDT	1.1	SCS215a	20101110.092318	20101110.094312	single-task	8	0.013328	60	10	60-180	60	172	GapExp	0	196	2	6	1	target	1	480	760	129164	13.328	12.993	13.659
DTProbeTrack03	7	ProbeTrackDT	1.1	SCS215a	20101110.092318	20101110.094318	single-task	8	0.013328	60	10	60-180	60	74	GapExp	0	197	2	3	1	target	1	560	720	129884	13.328	13.105	13.549
DTProbeTrack03	7	ProbeTrackDT	1.1	SCS215a	20101110.092318	20101110.094323	single-task	8	0.013328	60	10	60-180	60	145	GapExp	0	198	2	3	1	target	1	480	760	130644	13.328	13.307	13.347
DTProbeTrack03	7	ProbeTrackDT	1.1	SCS215a	20101110.092318	20101110.094329	single-task	8	0.013328	60	10	60-180	60	154	GapExp	0	199	2	9	1	target	1	454	773	131417	13.328	13.057	13.815
DTProbeTrack03	7	ProbeTrackDT	1.1	SCS215a	20101110.092318	20101110.094335	single-task	8	0.013328	60	10	60-180	60	104	GapExp	0	200	2	1	1	target	1	454	773	132190	13.328	12.903	13.754
DTProbeTrack03	7	ProbeTrackDT	1.1	SCS215a	20101110.092318	20101110.094344	single-task	8	0.013328	60	10	60-180	60	124	GapExp	0	201	2	45	1	target	1	347	827	133017	13.328	13.120	13.584
DTProbeTrack03	7	ProbeTrackDT	1.1	SCS215a	20101110.092318	20101110.094350	single-task	8	0.013328	60	10	60-180	60	167	GapExp	0	202	2	1	0	distractor	1	560	720	133737	13.328	13.137	13.584
DTProbeTrack03	7	ProbeTrackDT	1.1	SCS215a	20101110.092318	20101110.094357	single-task	8	0.013328	60	10	60-180	60	65	GapExp	0	203	2	3	1	target	1	534	733	134470	13.328	13.305	13.353
DTProbeTrack03	7	ProbeTrackDT	1.1	SCS215a	20101110.092318	20101110.094401	single-task	8	0.013328	60	10	60-180	60	174	GapExp	0	204	2	6	1	target	1	787	607	135077	13.328	13.106	13.543
DTProbeTrack03	7	ProbeTrackDT	1.1	SCS215a	20101110.092318	20101110.094408	single-task	8	0.013328	60	10	60-180	60	67	GapExp	0	205	2	9	1	target	1	547	727	135804	13.328	12.994	13.678
DTProbeTrack03	7	ProbeTrackDT	1.1	SCS215a	20101110.094458	20101110.094507	dt-shadow	8	0.013328	60	10	60-180	60	94	GapPrac	1	1	2	6	0	target	0	680	-1000	134804	13.328	13.308	13.345
DTProbeTrack03	7	ProbeTrackDT	1.1	SCS215a	20101110.094458	20101110.094512	dt-shadow	8	0.013328	60	10	60-180	60	81	GapPrac	1	2	2	3	0	distractor	1	587	707	135511	13.328	12.905	13.743
DTProbeTrack03	7	ProbeTrackDT	1.1	SCS215a	20101110.094458	20101110.094517	dt-shadow	8	0.013328	60	10	60-180	60	62	GapPrac	1	3	2	1	1	target	1	653	674	136185	13.328	13.098	13.558
DTProbeTrack03	7	ProbeTrackDT	1.1	SCS215a	20101110.094458	20101110.094522	dt-shadow	8	0.013328	60	10	60-180	60	139	GapPrac	1	4	2	9	1	target	1	680	660	136845	13.328	12.996	13.664
DTProbeTrack03	7	ProbeTrackDT	1.1	SCS215a	20101110.094458	20101110.094528	dt-shadow	8	0.013328	60	10	60-180	60	112	GapPrac	1	5	2	1	0	distractor	1	507	747	137592	13.328	12.876	13.797
DTProbeTrack03	7	ProbeTrackDT	1.1	SCS215a	20101110.094458	20101110.094534	dt-shadow	8	0.013328	60	10	60-180	60	84	GapPrac	1	6	2	9	0	distractor	1	520	740	138332	13.328	13.061	13.494
DTProbeTrack03	7	ProbeTrackDT	1.1	SCS215a	20101110.094458	20101110.094539	dt-shadow	8	0.013328	60	10	60-180	60	133	GapPrac	1	7	2	1	1	target	1	520	740	139072	13.328	13.097	13.635
DTProbeTrack03	7	ProbeTrackDT	1.1	SCS215a	20101110.094458	20101110.094544	dt-shadow	8	0.013328	60	10	60-180	60	142	GapPrac	1	8	2	6	0	distractor	1	893	554	139626	13.328	13.097	13.548
DTProbeTrack03	7	ProbeTrackDT	1.1	SCS215a	20101110.094458	20101110.094551	dt-shadow	8	0.013328	60	10	60-180	60	144	GapPrac	1	9	2	45	0	distractor	1	534	733	140359	13.328	13.114	13.546
DTProbeTrack03	7	ProbeTrackDT	1.1	SCS215a	20101110.094458	20101110.094557	dt-shadow	8	0.013328	60	10	60-180	60	159	GapPrac	1	10	2	9	1	distractor	0	720	-1000	139359	13.328	13.107	13.556
DTProbeTrack03	7	ProbeTrackDT	1.1	SCS215a	20101110.094458	20101110.094604	dt-shadow	8	0.013328	60	10	60-180	60	141	GapPrac	1	11	2	3	0	target	0	1067	-1000	138359	13.328	13.309	13.344
DTProbeTrack03	7	ProbeTrackDT	1.1	SCS215a	20101110.094458	20101110.094610	dt-shadow	8	0.013328	60	10	60-180	60	81	GapPrac	1	12	2	45	1	target	1	573	714	139073	13.328	13.014	13.664
DTProbeTrack03	7	ProbeTrackDT	1.1	SCS215a	20101110.094458	20101110.094616	dt-shadow	8	0.013328	60	10	60-180	60	101	GapPrac	1	13	2	9	0	distractor	1	454	773	139846	13.328	13.171	13.748
DTProbeTrack03	7	ProbeTrackDT	1.1	SCS215a	20101110.094458	20101110.094621	dt-shadow	8	0.013328	60	10	60-180	60	165	GapPrac	1	14	2	6	1	target	1	507	747	140593	13.328	13.111	13.545
DTProbeTrack03	7	ProbeTrackDT	1.1	SCS215a	20101110.094458	20101110.094627	dt-shadow	8	0.013328	60	10	60-180	60	94	GapPrac	1	15	2	45	1	distractor	0	760	-1000	139593	13.328	13.022	13.649
DTProbeTrack03	7	ProbeTrackDT	1.1	SCS215a	20101110.094458	20101110.094633	dt-shadow	8	0.013328	60	10	60-180	60	173	GapPrac	1	16	2	6	1	target	1	560	720	140313	13.328	12.919	13.748
DTProbeTrack03	7	ProbeTrackDT	1.1	SCS215a	20101110.094458	20101110.094639	dt-shadow	8	0.013328	60	10	60-180	60	169	GapPrac	1	17	2	1	0	distractor	1	574	713	141026	13.328	13.091	13.552
DTProbeTrack03	7	ProbeTrackDT	1.1	SCS215a	20101110.094458	20101110.094646	dt-shadow	8	0.013328	60	10	60-180	60	151	GapPrac	1	18	2	3	1	target	1	547	727	141753	13.328	13.301	13.349
DTProbeTrack03	7	ProbeTrackDT	1.1	SCS215a	20101110.094458	20101110.094652	dt-shadow	8	0.013328	60	10	60-180	60	157	GapPrac	1	19	2	45	0	distractor	1	467	767	142520	13.328	13.283	13.367
DTProbeTrack03	7	ProbeTrackDT	1.1	SCS215a	20101110.094458	20101110.094658	dt-shadow	8	0.013328	60	10	60-180	60	96	GapPrac	1	20	2	3	1	target	1	653	674	143194	13.328	13.218	13.425
DTProbeTrack03	7	ProbeTrackDT	1.1	SCS215a	20101110.094737	20101110.094745	dt-shadow	8	0.013328	60	10	60-180	60	78	GapExp	1	1	2	9	1	target	1	667	667	143861	13.328	13.093	13.565
DTProbeTrack03	7	ProbeTrackDT	1.1	SCS215a	20101110.094737	20101110.094750	dt-shadow	8	0.013328	60	10	60-180	60	161	GapExp	1	2	2	6	0	distractor	1	480	760	144621	13.328	13.060	13.772
DTProbeTrack03	7	ProbeTrackDT	1.1	SCS215a	20101110.094737	20101110.094756	dt-shadow	8	0.013328	60	10	60-180	60	170	GapExp	1	3	2	9	0	distractor	1	867	567	145188	13.328	13.097	13.552
DTProbeTrack03	7	ProbeTrackDT	1.1	SCS215a	20101110.094737	20101110.094803	dt-shadow	8	0.013328	60	10	60-180	60	159	GapExp	1	4	2	3	1	target	1	507	747	145935	13.328	12.869	13.791
DTProbeTrack03	7	ProbeTrackDT	1.1	SCS215a	20101110.094737	20101110.094809	dt-shadow	8	0.013328	60	10	60-180	60	106	GapExp	1	5	2	6	1	target	1	387	807	146742	13.328	12.925	13.728
DTProbeTrack03	7	ProbeTrackDT	1.1	SCS215a	20101110.094737	20101110.094814	dt-shadow	8	0.013328	60	10	60-180	60	138	GapExp	0	6	2	6	0	distractor	1	560	720	147462	13.328	13.033	13.624
DTProbeTrack03	7	ProbeTrackDT	1.1	SCS215a	20101110.094737	20101110.094820	dt-shadow	8	0.013328	60	10	60-180	60	98	GapExp	0	7	2	45	0	distractor	1	680	660	148122	13.328	13.103	13.553
DTProbeTrack03	7	ProbeTrackDT	1.1	SCS215a	20101110.094737	20101110.094826	dt-shadow	8	0.013328	60	10	60-180	60	156	GapExp	0	8	2	1	0	distractor	1	693	654	148776	13.328	13.110	13.542
DTProbeTrack03	7	ProbeTrackDT	1.1	SCS215a	20101110.094737	20101110.094832	dt-shadow	8	0.013328	60	10	60-180	60	160	GapExp	0	9	2	6	0	distractor	1	534	733	149509	13.328	12.897	13.764
DTProbeTrack03	7	ProbeTrackDT	1.1	SCS215a	20101110.094737	20101110.094838	dt-shadow	8	0.013328	60	10	60-180	60	157	GapExp	0	10	2	9	1	target	1	654	673	150182	13.328	13.014	13.591
DTProbeTrack03	7	ProbeTrackDT	1.1	SCS215a	20101110.094737	20101110.094845	dt-shadow	8	0.013328	60	10	60-180	60	173	GapExp	0	11	2	45	0	distractor	1	494	753	150935	13.328	13.133	13.443
DTProbeTrack03	7	ProbeTrackDT	1.1	SCS215a	20101110.094737	20101110.094851	dt-shadow	8	0.013328	60	10	60-180	60	62	GapExp	0	12	2	6	1	target	1	640	680	151615	13.328	12.921	13.741
DTProbeTrack03	7	ProbeTrackDT	1.1	SCS215a	20101110.094737	20101110.094856	dt-shadow	8	0.013328	60	10	60-180	60	173	GapExp	0	13	2	1	0	target	0	587	-1000	150615	13.372	12.874	26.928
DTProbeTrack03	7	ProbeTrackDT	1.1	SCS215a	20101110.094737	20101110.094903	dt-shadow	8	0.013328	60	10	60-180	60	175	GapExp	0	14	2	3	1	target	1	520	740	151355	13.328	12.948	13.710
DTProbeTrack03	7	ProbeTrackDT	1.1	SCS215a	20101110.094737	20101110.094909	dt-shadow	8	0.013328	60	10	60-180	60	67	GapExp	0	15	2	9	1	target	1	494	753	152108	13.328	13.088	13.554
DTProbeTrack03	7	ProbeTrackDT	1.1	SCS215a	20101110.094737	20101110.094914	dt-shadow	8	0.013328	60	10	60-180	60	134	GapExp	0	16	2	45	0	distractor	1	467	767	152875	13.328	13.099	13.542
DTProbeTrack03	7	ProbeTrackDT	1.1	SCS215a	20101110.094737	20101110.094920	dt-shadow	8	0.013328	60	10	60-180	60	104	GapExp	0	17	2	1	0	distractor	1	893	554	153429	13.328	13.308	13.347
DTProbeTrack03	7	ProbeTrackDT	1.1	SCS215a	20101110.094737	20101110.094926	dt-shadow	8	0.013328	60	10	60-180	60	69	GapExp	0	18	2	9	1	target	1	520	740	154169	13.328	13.308	13.348
DTProbeTrack03	7	ProbeTrackDT	1.1	SCS215a	20101110.094737	20101110.094931	dt-shadow	8	0.013328	60	10	60-180	60	76	GapExp	0	19	2	9	0	distractor	1	534	733	154902	13.328	13.308	13.345
DTProbeTrack03	7	ProbeTrackDT	1.1	SCS215a	20101110.094737	20101110.094936	dt-shadow	8	0.013328	60	10	60-180	60	128	GapExp	0	20	2	6	1	target	1	534	733	155635	13.328	13.112	13.557
DTProbeTrack03	7	ProbeTrackDT	1.1	SCS215a	20101110.094737	20101110.094941	dt-shadow	8	0.013328	60	10	60-180	60	120	GapExp	0	21	2	6	0	distractor	1	653	674	156309	13.328	12.867	13.783
DTProbeTrack03	7	ProbeTrackDT	1.1	SCS215a	20101110.094737	20101110.094947	dt-shadow	8	0.013328	60	10	60-180	60	167	GapExp	0	22	2	1	1	target	1	733	634	156943	13.328	13.309	13.351
DTProbeTrack03	7	ProbeTrackDT	1.1	SCS215a	20101110.094737	20101110.094953	dt-shadow	8	0.013328	60	10	60-180	60	158	GapExp	0	23	2	6	1	target	1	560	720	157663	13.328	13.304	13.345
DTProbeTrack03	7	ProbeTrackDT	1.1	SCS215a	20101110.094737	20101110.094959	dt-shadow	8	0.013328	60	10	60-180	60	101	GapExp	0	24	2	3	1	target	1	520	740	158403	13.328	13.309	13.347
DTProbeTrack03	7	ProbeTrackDT	1.1	SCS215a	20101110.094737	20101110.095005	dt-shadow	8	0.013328	60	10	60-180	60	66	GapExp	0	25	2	1	1	target	1	480	760	159163	13.328	12.969	13.699
DTProbeTrack03	7	ProbeTrackDT	1.1	SCS215a	20101110.094737	20101110.095009	dt-shadow	8	0.013328	60	10	60-180	60	154	GapExp	0	26	2	9	0	distractor	1	613	694	159857	13.328	13.016	13.640
DTProbeTrack03	7	ProbeTrackDT	1.1	SCS215a	20101110.094737	20101110.095016	dt-shadow	8	0.013328	60	10	60-180	60	102	GapExp	0	27	2	45	1	distractor	0	627	-1000	158857	13.328	13.125	13.538
DTProbeTrack03	7	ProbeTrackDT	1.1	SCS215a	20101110.094737	20101110.095022	dt-shadow	8	0.013328	60	10	60-180	60	142	GapExp	0	28	2	6	0	target	0	574	-1000	157857	13.328	13.309	13.359
DTProbeTrack03	7	ProbeTrackDT	1.1	SCS215a	20101110.094737	20101110.095028	dt-shadow	8	0.013328	60	10	60-180	60	107	GapExp	0	29	2	3	1	target	1	534	733	158590	13.328	12.920	13.730
DTProbeTrack03	7	ProbeTrackDT	1.1	SCS215a	20101110.094737	20101110.095033	dt-shadow	8	0.013328	60	10	60-180	60	82	GapExp	0	30	2	1	0	distractor	1	747	627	159217	13.328	13.090	13.552
DTProbeTrack03	7	ProbeTrackDT	1.1	SCS215a	20101110.094737	20101110.095038	dt-shadow	8	0.013328	60	10	60-180	60	132	GapExp	0	31	2	1	1	target	1	547	727	159944	13.328	13.098	13.547
DTProbeTrack03	7	ProbeTrackDT	1.1	SCS215a	20101110.094737	20101110.095044	dt-shadow	8	0.013328	60	10	60-180	60	64	GapExp	0	32	2	45	1	target	1	800	600	160544	13.328	13.301	13.354
DTProbeTrack03	7	ProbeTrackDT	1.1	SCS215a	20101110.094737	20101110.095050	dt-shadow	8	0.013328	60	10	60-180	60	131	GapExp	0	33	2	45	1	target	1	853	574	161118	13.328	13.200	13.462
DTProbeTrack03	7	ProbeTrackDT	1.1	SCS215a	20101110.094737	20101110.095056	dt-shadow	8	0.013328	60	10	60-180	60	154	GapExp	0	34	2	1	1	target	1	467	767	161885	13.328	12.853	13.811
DTProbeTrack03	7	ProbeTrackDT	1.1	SCS215a	20101110.094737	20101110.095102	dt-shadow	8	0.013328	60	10	60-180	60	81	GapExp	0	35	2	3	1	target	1	733	634	162519	13.328	13.302	13.356
DTProbeTrack03	7	ProbeTrackDT	1.1	SCS215a	20101110.094737	20101110.095107	dt-shadow	8	0.013328	60	10	60-180	60	67	GapExp	0	36	2	45	0	distractor	1	707	647	163166	13.328	13.118	13.536
DTProbeTrack03	7	ProbeTrackDT	1.1	SCS215a	20101110.094737	20101110.095113	dt-shadow	8	0.013328	60	10	60-180	60	67	GapExp	0	37	2	45	1	target	1	587	707	163873	13.328	12.901	13.773
DTProbeTrack03	7	ProbeTrackDT	1.1	SCS215a	20101110.094737	20101110.095118	dt-shadow	8	0.013328	60	10	60-180	60	147	GapExp	0	38	2	3	1	target	1	480	760	164633	13.328	13.309	13.347
DTProbeTrack03	7	ProbeTrackDT	1.1	SCS215a	20101110.094737	20101110.095124	dt-shadow	8	0.013328	60	10	60-180	60	122	GapExp	0	39	2	6	1	target	1	374	813	165446	13.328	13.309	13.345
DTProbeTrack03	7	ProbeTrackDT	1.1	SCS215a	20101110.094737	20101110.095130	dt-shadow	8	0.013328	60	10	60-180	60	120	GapExp	0	40	2	1	1	target	1	600	700	166146	13.328	13.310	13.349
DTProbeTrack03	7	ProbeTrackDT	1.1	SCS215a	20101110.094737	20101110.095135	dt-shadow	8	0.013328	60	10	60-180	60	170	GapExp	0	41	2	6	0	distractor	1	680	660	166806	13.328	13.308	13.347
DTProbeTrack03	7	ProbeTrackDT	1.1	SCS215a	20101110.094737	20101110.095142	dt-shadow	8	0.013328	60	10	60-180	60	150	GapExp	0	42	2	3	0	distractor	1	427	787	167593	13.328	13.106	13.546
DTProbeTrack03	7	ProbeTrackDT	1.1	SCS215a	20101110.094737	20101110.095148	dt-shadow	8	0.013328	60	10	60-180	60	108	GapExp	0	43	2	9	1	target	1	547	727	168320	13.328	13.091	13.559
DTProbeTrack03	7	ProbeTrackDT	1.1	SCS215a	20101110.094737	20101110.095153	dt-shadow	8	0.013328	60	10	60-180	60	69	GapExp	0	44	2	1	0	distractor	1	655	673	168993	13.328	12.903	13.755
DTProbeTrack03	7	ProbeTrackDT	1.1	SCS215a	20101110.094737	20101110.095158	dt-shadow	8	0.013328	60	10	60-180	60	110	GapExp	0	45	2	45	0	target	0	707	-1000	167993	13.328	13.301	13.351
DTProbeTrack03	7	ProbeTrackDT	1.1	SCS215a	20101110.094737	20101110.095204	dt-shadow	8	0.013328	60	10	60-180	60	121	GapExp	0	46	2	45	0	distractor	1	467	767	168760	13.328	12.849	13.790
DTProbeTrack03	7	ProbeTrackDT	1.1	SCS215a	20101110.094737	20101110.095210	dt-shadow	8	0.013328	60	10	60-180	60	171	GapExp	0	47	2	9	0	distractor	1	667	667	169427	13.328	13.307	13.348
DTProbeTrack03	7	ProbeTrackDT	1.1	SCS215a	20101110.094737	20101110.095217	dt-shadow	8	0.013328	60	10	60-180	60	101	GapExp	0	48	2	3	0	distractor	1	574	713	170140	13.328	13.108	13.556
DTProbeTrack03	7	ProbeTrackDT	1.1	SCS215a	20101110.094737	20101110.095222	dt-shadow	8	0.013328	60	10	60-180	60	64	GapExp	0	49	2	9	0	distractor	1	747	627	170767	13.328	13.306	13.345
DTProbeTrack03	7	ProbeTrackDT	1.1	SCS215a	20101110.094737	20101110.095227	dt-shadow	8	0.013328	60	10	60-180	60	118	GapExp	0	50	2	6	0	distractor	1	654	673	171440	13.328	12.931	13.723
DTProbeTrack03	7	ProbeTrackDT	1.1	SCS215a	20101110.094737	20101110.095248	dt-shadow	8	0.013328	60	10	60-180	60	94	GapExp	0	51	2	9	0	distractor	1	574	713	172153	13.328	13.310	13.348
DTProbeTrack03	7	ProbeTrackDT	1.1	SCS215a	20101110.094737	20101110.095253	dt-shadow	8	0.013328	60	10	60-180	60	100	GapExp	0	52	2	9	1	target	1	907	547	172700	13.328	12.859	13.793
DTProbeTrack03	7	ProbeTrackDT	1.1	SCS215a	20101110.094737	20101110.095259	dt-shadow	8	0.013328	60	10	60-180	60	176	GapExp	0	53	2	45	1	target	1	507	747	173447	13.328	13.097	13.560
DTProbeTrack03	7	ProbeTrackDT	1.1	SCS215a	20101110.094737	20101110.095306	dt-shadow	8	0.013328	60	10	60-180	60	137	GapExp	0	54	2	3	0	target	0	534	-1000	172447	13.328	13.104	13.536
DTProbeTrack03	7	ProbeTrackDT	1.1	SCS215a	20101110.094737	20101110.095311	dt-shadow	8	0.013328	60	10	60-180	60	104	GapExp	0	55	2	45	0	distractor	1	507	747	173194	13.328	12.889	13.768
DTProbeTrack03	7	ProbeTrackDT	1.1	SCS215a	20101110.094737	20101110.095317	dt-shadow	8	0.013328	60	10	60-180	60	166	GapExp	0	56	2	3	0	target	0	520	-1000	172194	13.328	12.871	13.771
DTProbeTrack03	7	ProbeTrackDT	1.1	SCS215a	20101110.094737	20101110.095323	dt-shadow	8	0.013328	60	10	60-180	60	65	GapExp	0	57	2	6	1	target	1	507	747	172941	13.328	12.658	13.985
DTProbeTrack03	7	ProbeTrackDT	1.1	SCS215a	20101110.094737	20101110.095328	dt-shadow	8	0.013328	60	10	60-180	60	167	GapExp	0	58	2	6	1	target	1	747	627	173568	13.328	13.048	13.605
DTProbeTrack03	7	ProbeTrackDT	1.1	SCS215a	20101110.094737	20101110.095335	dt-shadow	8	0.013328	60	10	60-180	60	133	GapExp	0	59	2	3	0	distractor	1	560	720	174288	13.328	13.079	13.577
DTProbeTrack03	7	ProbeTrackDT	1.1	SCS215a	20101110.094737	20101110.095341	dt-shadow	8	0.013328	60	10	60-180	60	169	GapExp	0	60	2	1	0	distractor	1	534	733	175021	13.328	13.097	13.558
DTProbeTrack03	7	ProbeTrackDT	1.1	SCS215a	20101110.094737	20101110.095347	dt-shadow	8	0.013328	60	10	60-180	60	104	GapExp	0	61	2	45	1	target	1	587	707	175728	13.328	13.067	13.599
DTProbeTrack03	7	ProbeTrackDT	1.1	SCS215a	20101110.094737	20101110.095353	dt-shadow	8	0.013328	60	10	60-180	60	114	GapExp	0	62	2	6	0	target	0	733	-1000	174728	13.328	13.310	13.348
DTProbeTrack03	7	ProbeTrackDT	1.1	SCS215a	20101110.094737	20101110.095358	dt-shadow	8	0.013328	60	10	60-180	60	103	GapExp	0	63	2	1	0	distractor	1	800	600	175328	13.328	12.999	13.651
DTProbeTrack03	7	ProbeTrackDT	1.1	SCS215a	20101110.094737	20101110.095404	dt-shadow	8	0.013328	60	10	60-180	60	80	GapExp	0	64	2	1	1	target	1	547	727	176055	13.328	13.310	13.348
DTProbeTrack03	7	ProbeTrackDT	1.1	SCS215a	20101110.094737	20101110.095409	dt-shadow	8	0.013328	60	10	60-180	60	104	GapExp	0	65	2	3	0	distractor	1	560	720	176775	13.328	13.111	13.551
DTProbeTrack03	7	ProbeTrackDT	1.1	SCS215a	20101110.094737	20101110.095414	dt-shadow	8	0.013328	60	10	60-180	60	104	GapExp	0	66	2	6	1	target	1	534	733	177508	13.328	13.298	13.348
DTProbeTrack03	7	ProbeTrackDT	1.1	SCS215a	20101110.094737	20101110.095420	dt-shadow	8	0.013328	60	10	60-180	60	158	GapExp	0	67	2	9	0	distractor	1	454	773	178281	13.328	13.298	13.349
DTProbeTrack03	7	ProbeTrackDT	1.1	SCS215a	20101110.094737	20101110.095426	dt-shadow	8	0.013328	60	10	60-180	60	98	GapExp	0	68	2	1	1	target	1	600	700	178981	13.328	13.298	13.359
DTProbeTrack03	7	ProbeTrackDT	1.1	SCS215a	20101110.094737	20101110.095431	dt-shadow	8	0.013328	60	10	60-180	60	140	GapExp	0	69	2	3	0	distractor	1	1053	474	179455	13.328	13.104	13.550
DTProbeTrack03	7	ProbeTrackDT	1.1	SCS215a	20101110.094737	20101110.095437	dt-shadow	8	0.013328	60	10	60-180	60	157	GapExp	0	70	2	9	1	target	1	587	707	180162	13.328	13.098	13.553
DTProbeTrack03	7	ProbeTrackDT	1.1	SCS215a	20101110.094737	20101110.095444	dt-shadow	8	0.013328	60	10	60-180	60	157	GapExp	0	71	2	45	0	distractor	1	534	733	180895	13.328	13.106	13.551
DTProbeTrack03	7	ProbeTrackDT	1.1	SCS215a	20101110.094737	20101110.095450	dt-shadow	8	0.013328	60	10	60-180	60	142	GapExp	0	72	2	3	0	target	0	720	-1000	179895	13.328	13.029	13.616
DTProbeTrack03	7	ProbeTrackDT	1.1	SCS215a	20101110.094737	20101110.095456	dt-shadow	8	0.013328	60	10	60-180	60	76	GapExp	0	73	2	3	0	distractor	1	614	693	180588	13.328	13.035	13.608
DTProbeTrack03	7	ProbeTrackDT	1.1	SCS215a	20101110.094737	20101110.095501	dt-shadow	8	0.013328	60	10	60-180	60	144	GapExp	0	74	2	6	0	distractor	1	480	760	181348	13.328	13.300	13.361
DTProbeTrack03	7	ProbeTrackDT	1.1	SCS215a	20101110.094737	20101110.095507	dt-shadow	8	0.013328	60	10	60-180	60	177	GapExp	0	75	2	45	0	distractor	1	640	680	182028	13.328	13.309	13.346
DTProbeTrack03	7	ProbeTrackDT	1.1	SCS215a	20101110.094737	20101110.095514	dt-shadow	8	0.013328	60	10	60-180	60	76	GapExp	0	76	2	45	1	target	1	707	647	182675	13.328	13.308	13.346
DTProbeTrack03	7	ProbeTrackDT	1.1	SCS215a	20101110.094737	20101110.095520	dt-shadow	8	0.013328	60	10	60-180	60	103	GapExp	0	77	2	9	1	target	1	760	620	183295	13.328	13.099	13.553
DTProbeTrack03	7	ProbeTrackDT	1.1	SCS215a	20101110.094737	20101110.095526	dt-shadow	8	0.013328	60	10	60-180	60	170	GapExp	0	78	2	45	1	target	1	427	787	184082	13.328	12.855	13.802
DTProbeTrack03	7	ProbeTrackDT	1.1	SCS215a	20101110.094737	20101110.095532	dt-shadow	8	0.013328	60	10	60-180	60	146	GapExp	0	79	2	45	1	target	1	547	727	184809	13.328	13.111	13.544
DTProbeTrack03	7	ProbeTrackDT	1.1	SCS215a	20101110.094737	20101110.095539	dt-shadow	8	0.013328	60	10	60-180	60	178	GapExp	0	80	2	45	0	distractor	1	494	753	185562	13.328	13.098	13.564
DTProbeTrack03	7	ProbeTrackDT	1.1	SCS215a	20101110.094737	20101110.095546	dt-shadow	8	0.013328	60	10	60-180	60	105	GapExp	0	81	2	1	0	distractor	1	480	760	186322	13.328	13.021	13.643
DTProbeTrack03	7	ProbeTrackDT	1.1	SCS215a	20101110.094737	20101110.095551	dt-shadow	8	0.013328	60	10	60-180	60	170	GapExp	0	82	2	3	1	target	1	680	660	186982	13.328	13.307	13.348
DTProbeTrack03	7	ProbeTrackDT	1.1	SCS215a	20101110.094737	20101110.095557	dt-shadow	8	0.013328	60	10	60-180	60	111	GapExp	0	83	2	1	0	target	0	1160	-1000	185982	13.328	13.310	13.358
DTProbeTrack03	7	ProbeTrackDT	1.1	SCS215a	20101110.094737	20101110.095603	dt-shadow	8	0.013328	60	10	60-180	60	161	GapExp	0	84	2	45	1	target	1	574	713	186695	13.328	13.307	13.348
DTProbeTrack03	7	ProbeTrackDT	1.1	SCS215a	20101110.094737	20101110.095610	dt-shadow	8	0.013328	60	10	60-180	60	179	GapExp	0	85	2	6	1	target	1	507	747	187442	13.328	13.309	13.348
DTProbeTrack03	7	ProbeTrackDT	1.1	SCS215a	20101110.094737	20101110.095616	dt-shadow	8	0.013328	60	10	60-180	60	151	GapExp	0	86	2	45	0	target	0	640	-1000	186442	13.328	13.028	13.633
DTProbeTrack03	7	ProbeTrackDT	1.1	SCS215a	20101110.094737	20101110.095623	dt-shadow	8	0.013328	60	10	60-180	60	165	GapExp	0	87	2	45	0	distractor	1	467	767	187209	13.328	13.128	13.559
DTProbeTrack03	7	ProbeTrackDT	1.1	SCS215a	20101110.094737	20101110.095630	dt-shadow	8	0.013328	60	10	60-180	60	73	GapExp	0	88	2	1	0	distractor	1	733	634	187843	13.328	12.963	13.687
DTProbeTrack03	7	ProbeTrackDT	1.1	SCS215a	20101110.094737	20101110.095635	dt-shadow	8	0.013328	60	10	60-180	60	148	GapExp	0	89	2	9	0	distractor	1	667	667	188510	13.328	13.070	13.582
DTProbeTrack03	7	ProbeTrackDT	1.1	SCS215a	20101110.094737	20101110.095641	dt-shadow	8	0.013328	60	10	60-180	60	151	GapExp	0	90	2	3	0	distractor	1	480	760	189270	13.328	13.111	13.544
DTProbeTrack03	7	ProbeTrackDT	1.1	SCS215a	20101110.094737	20101110.095647	dt-shadow	8	0.013328	60	10	60-180	60	98	GapExp	0	91	2	3	1	target	1	587	707	189977	13.328	13.310	13.351
DTProbeTrack03	7	ProbeTrackDT	1.1	SCS215a	20101110.094737	20101110.095652	dt-shadow	8	0.013328	60	10	60-180	60	167	GapExp	0	92	2	6	1	target	1	547	727	190704	13.328	12.946	13.698
DTProbeTrack03	7	ProbeTrackDT	1.1	SCS215a	20101110.094737	20101110.095658	dt-shadow	8	0.013328	60	10	60-180	60	72	GapExp	0	93	2	6	1	target	1	560	720	191424	13.328	13.103	13.560
DTProbeTrack03	7	ProbeTrackDT	1.1	SCS215a	20101110.094737	20101110.095703	dt-shadow	8	0.013328	60	10	60-180	60	165	GapExp	0	94	2	45	1	target	1	507	747	192171	13.328	13.032	13.632
DTProbeTrack03	7	ProbeTrackDT	1.1	SCS215a	20101110.094737	20101110.095710	dt-shadow	8	0.013328	60	10	60-180	60	100	GapExp	0	95	2	45	1	target	1	507	747	192918	13.328	13.092	13.564
DTProbeTrack03	7	ProbeTrackDT	1.1	SCS215a	20101110.094737	20101110.095716	dt-shadow	8	0.013328	60	10	60-180	60	167	GapExp	0	96	2	1	1	target	1	600	700	193618	13.328	12.903	13.781
DTProbeTrack03	7	ProbeTrackDT	1.1	SCS215a	20101110.094737	20101110.095722	dt-shadow	8	0.013328	60	10	60-180	60	72	GapExp	0	97	2	45	0	distractor	1	454	773	194391	13.328	12.826	13.825
DTProbeTrack03	7	ProbeTrackDT	1.1	SCS215a	20101110.094737	20101110.095728	dt-shadow	8	0.013328	60	10	60-180	60	165	GapExp	0	98	2	1	1	target	1	520	740	195131	13.374	12.958	27.043
DTProbeTrack03	7	ProbeTrackDT	1.1	SCS215a	20101110.094737	20101110.095734	dt-shadow	8	0.013328	60	10	60-180	60	143	GapExp	0	99	2	9	0	target	0	507	-1000	194131	13.328	13.308	13.349
DTProbeTrack03	7	ProbeTrackDT	1.1	SCS215a	20101110.094737	20101110.095740	dt-shadow	8	0.013328	60	10	60-180	60	151	GapExp	0	100	2	9	0	target	0	574	-1000	193131	13.328	13.308	13.353
DTProbeTrack03	7	ProbeTrackDT	1.1	SCS215a	20101110.094737	20101110.095755	dt-shadow	8	0.013328	60	10	60-180	60	118	GapExp	0	101	2	9	0	target	0	640	-1000	192131	13.328	12.980	13.685
DTProbeTrack03	7	ProbeTrackDT	1.1	SCS215a	20101110.094737	20101110.095801	dt-shadow	8	0.013328	60	10	60-180	60	64	GapExp	0	102	2	9	1	distractor	0	680	-1000	191131	13.328	12.893	13.757
DTProbeTrack03	7	ProbeTrackDT	1.1	SCS215a	20101110.094737	20101110.095806	dt-shadow	8	0.013328	60	10	60-180	60	128	GapExp	0	103	2	6	1	target	1	467	767	191898	13.328	13.092	13.555
DTProbeTrack03	7	ProbeTrackDT	1.1	SCS215a	20101110.094737	20101110.095811	dt-shadow	8	0.013328	60	10	60-180	60	154	GapExp	0	104	2	9	1	target	1	494	753	192651	13.328	13.309	13.347
DTProbeTrack03	7	ProbeTrackDT	1.1	SCS215a	20101110.094737	20101110.095817	dt-shadow	8	0.013328	60	10	60-180	60	98	GapExp	0	105	2	45	0	distractor	1	480	760	193411	13.328	13.311	13.353
DTProbeTrack03	7	ProbeTrackDT	1.1	SCS215a	20101110.094737	20101110.095823	dt-shadow	8	0.013328	60	10	60-180	60	126	GapExp	0	106	2	9	0	distractor	1	507	747	194158	13.328	13.008	13.662
DTProbeTrack03	7	ProbeTrackDT	1.1	SCS215a	20101110.094737	20101110.095829	dt-shadow	8	0.013328	60	10	60-180	60	134	GapExp	0	107	2	3	0	distractor	1	867	567	194725	13.328	13.109	13.552
DTProbeTrack03	7	ProbeTrackDT	1.1	SCS215a	20101110.094737	20101110.095835	dt-shadow	8	0.013328	60	10	60-180	60	145	GapExp	0	108	2	1	1	target	1	547	727	195452	13.328	12.972	13.697
DTProbeTrack03	7	ProbeTrackDT	1.1	SCS215a	20101110.094737	20101110.095841	dt-shadow	8	0.013328	60	10	60-180	60	102	GapExp	0	109	2	6	0	distractor	1	680	660	196112	13.328	13.109	13.543
DTProbeTrack03	7	ProbeTrackDT	1.1	SCS215a	20101110.094737	20101110.095846	dt-shadow	8	0.013328	60	10	60-180	60	133	GapExp	0	110	2	6	1	target	1	494	753	196865	13.328	13.038	13.623
DTProbeTrack03	7	ProbeTrackDT	1.1	SCS215a	20101110.094737	20101110.095852	dt-shadow	8	0.013328	60	10	60-180	60	62	GapExp	0	111	2	9	1	distractor	0	507	-1000	195865	13.328	13.309	13.344
DTProbeTrack03	7	ProbeTrackDT	1.1	SCS215a	20101110.094737	20101110.095857	dt-shadow	8	0.013328	60	10	60-180	60	93	GapExp	0	112	2	6	1	target	1	693	654	196519	13.328	13.104	13.553
DTProbeTrack03	7	ProbeTrackDT	1.1	SCS215a	20101110.094737	20101110.095902	dt-shadow	8	0.013328	60	10	60-180	60	163	GapExp	0	113	2	1	1	target	1	440	780	197299	13.328	13.104	13.566
DTProbeTrack03	7	ProbeTrackDT	1.1	SCS215a	20101110.094737	20101110.095908	dt-shadow	8	0.013328	60	10	60-180	60	102	GapExp	0	114	2	45	0	distractor	1	467	767	198066	13.328	13.096	13.561
DTProbeTrack03	7	ProbeTrackDT	1.1	SCS215a	20101110.094737	20101110.095914	dt-shadow	8	0.013328	60	10	60-180	60	169	GapExp	0	115	2	9	0	distractor	1	720	640	198706	13.328	12.900	13.761
DTProbeTrack03	7	ProbeTrackDT	1.1	SCS215a	20101110.094737	20101110.095921	dt-shadow	8	0.013328	60	10	60-180	60	124	GapExp	0	116	2	3	0	target	0	600	-1000	197706	13.328	13.003	13.651
DTProbeTrack03	7	ProbeTrackDT	1.1	SCS215a	20101110.094737	20101110.095926	dt-shadow	8	0.013328	60	10	60-180	60	165	GapExp	0	117	2	1	1	target	1	574	713	198419	13.328	13.308	13.348
DTProbeTrack03	7	ProbeTrackDT	1.1	SCS215a	20101110.094737	20101110.095933	dt-shadow	8	0.013328	60	10	60-180	60	62	GapExp	0	118	2	9	1	target	1	667	667	199086	13.328	12.932	13.729
DTProbeTrack03	7	ProbeTrackDT	1.1	SCS215a	20101110.094737	20101110.095937	dt-shadow	8	0.013328	60	10	60-180	60	151	GapExp	0	119	2	1	0	distractor	1	480	760	199846	13.328	13.119	13.607
DTProbeTrack03	7	ProbeTrackDT	1.1	SCS215a	20101110.094737	20101110.095943	dt-shadow	8	0.013328	60	10	60-180	60	125	GapExp	0	120	2	9	0	distractor	1	574	713	200559	13.328	13.097	13.551
DTProbeTrack03	7	ProbeTrackDT	1.1	SCS215a	20101110.094737	20101110.095949	dt-shadow	8	0.013328	60	10	60-180	60	139	GapExp	0	121	2	3	1	target	1	560	720	201279	13.328	13.280	13.365
DTProbeTrack03	7	ProbeTrackDT	1.1	SCS215a	20101110.094737	20101110.095955	dt-shadow	8	0.013328	60	10	60-180	60	65	GapExp	0	122	2	6	0	distractor	1	520	740	202019	13.328	13.304	13.351
DTProbeTrack03	7	ProbeTrackDT	1.1	SCS215a	20101110.094737	20101110.100000	dt-shadow	8	0.013328	60	10	60-180	60	139	GapExp	0	123	2	9	0	distractor	1	680	660	202679	13.328	13.107	13.553
DTProbeTrack03	7	ProbeTrackDT	1.1	SCS215a	20101110.094737	20101110.100006	dt-shadow	8	0.013328	60	10	60-180	60	107	GapExp	0	124	2	9	0	distractor	1	387	807	203486	13.328	13.098	13.554
DTProbeTrack03	7	ProbeTrackDT	1.1	SCS215a	20101110.094737	20101110.100011	dt-shadow	8	0.013328	60	10	60-180	60	157	GapExp	0	125	2	6	0	distractor	1	267	867	204353	13.328	13.113	13.544
DTProbeTrack03	7	ProbeTrackDT	1.1	SCS215a	20101110.094737	20101110.100017	dt-shadow	8	0.013328	60	10	60-180	60	122	GapExp	0	126	2	6	0	distractor	1	334	833	205186	13.328	13.308	13.348
DTProbeTrack03	7	ProbeTrackDT	1.1	SCS215a	20101110.094737	20101110.100023	dt-shadow	8	0.013328	60	10	60-180	60	165	GapExp	0	127	2	1	1	distractor	0	294	-1000	204186	13.328	12.929	13.732
DTProbeTrack03	7	ProbeTrackDT	1.1	SCS215a	20101110.094737	20101110.100029	dt-shadow	8	0.013328	60	10	60-180	60	160	GapExp	0	128	2	3	0	target	0	400	-1000	203186	13.375	12.975	26.670
DTProbeTrack03	7	ProbeTrackDT	1.1	SCS215a	20101110.094737	20101110.100035	dt-shadow	8	0.013328	60	10	60-180	60	106	GapExp	0	129	2	45	0	distractor	1	360	820	204006	13.328	13.031	13.640
DTProbeTrack03	7	ProbeTrackDT	1.1	SCS215a	20101110.094737	20101110.100040	dt-shadow	8	0.013328	60	10	60-180	60	99	GapExp	0	130	2	45	1	target	1	387	807	204813	13.328	12.960	13.711
DTProbeTrack03	7	ProbeTrackDT	1.1	SCS215a	20101110.094737	20101110.100046	dt-shadow	8	0.013328	60	10	60-180	60	109	GapExp	0	131	2	45	0	distractor	1	534	733	205546	13.328	13.099	13.552
DTProbeTrack03	7	ProbeTrackDT	1.1	SCS215a	20101110.094737	20101110.100052	dt-shadow	8	0.013328	60	10	60-180	60	153	GapExp	0	132	2	3	1	target	1	467	767	206313	13.328	12.975	13.675
DTProbeTrack03	7	ProbeTrackDT	1.1	SCS215a	20101110.094737	20101110.100058	dt-shadow	8	0.013328	60	10	60-180	60	98	GapExp	0	133	2	9	1	target	1	494	753	207066	13.328	13.308	13.350
DTProbeTrack03	7	ProbeTrackDT	1.1	SCS215a	20101110.094737	20101110.100103	dt-shadow	8	0.013328	60	10	60-180	60	74	GapExp	0	134	2	45	1	target	1	587	707	207773	13.328	13.309	13.347
DTProbeTrack03	7	ProbeTrackDT	1.1	SCS215a	20101110.094737	20101110.100109	dt-shadow	8	0.013328	60	10	60-180	60	142	GapExp	0	135	2	1	0	distractor	1	667	667	208440	13.375	12.974	27.012
DTProbeTrack03	7	ProbeTrackDT	1.1	SCS215a	20101110.094737	20101110.100115	dt-shadow	8	0.013328	60	10	60-180	60	179	GapExp	0	136	2	1	0	distractor	1	560	720	209160	13.328	13.092	13.688
DTProbeTrack03	7	ProbeTrackDT	1.1	SCS215a	20101110.094737	20101110.100121	dt-shadow	8	0.013328	60	10	60-180	60	145	GapExp	0	137	2	1	1	target	1	480	760	209920	13.328	13.100	13.574
DTProbeTrack03	7	ProbeTrackDT	1.1	SCS215a	20101110.094737	20101110.100127	dt-shadow	8	0.013328	60	10	60-180	60	160	GapExp	0	138	2	6	0	distractor	1	467	767	210687	13.328	13.308	13.348
DTProbeTrack03	7	ProbeTrackDT	1.1	SCS215a	20101110.094737	20101110.100133	dt-shadow	8	0.013328	60	10	60-180	60	68	GapExp	0	139	2	45	1	target	1	614	693	211380	13.328	13.309	13.346
DTProbeTrack03	7	ProbeTrackDT	1.1	SCS215a	20101110.094737	20101110.100138	dt-shadow	8	0.013328	60	10	60-180	60	168	GapExp	0	140	2	45	0	distractor	1	773	614	211994	13.328	12.834	13.816
DTProbeTrack03	7	ProbeTrackDT	1.1	SCS215a	20101110.094737	20101110.100145	dt-shadow	8	0.013328	60	10	60-180	60	168	GapExp	0	141	2	9	1	distractor	0	720	-1000	210994	13.328	13.104	13.565
DTProbeTrack03	7	ProbeTrackDT	1.1	SCS215a	20101110.094737	20101110.100152	dt-shadow	8	0.013328	60	10	60-180	60	145	GapExp	0	142	2	3	0	distractor	1	440	780	211774	13.328	13.093	13.551
DTProbeTrack03	7	ProbeTrackDT	1.1	SCS215a	20101110.094737	20101110.100158	dt-shadow	8	0.013328	60	10	60-180	60	123	GapExp	0	143	2	1	0	distractor	1	600	700	212474	13.328	12.882	13.780
DTProbeTrack03	7	ProbeTrackDT	1.1	SCS215a	20101110.094737	20101110.100203	dt-shadow	8	0.013328	60	10	60-180	60	79	GapExp	0	144	2	1	0	distractor	1	520	740	213214	13.328	13.298	13.350
DTProbeTrack03	7	ProbeTrackDT	1.1	SCS215a	20101110.094737	20101110.100208	dt-shadow	8	0.013328	60	10	60-180	60	177	GapExp	0	145	2	3	1	distractor	0	440	-1000	212214	13.328	12.930	13.722
DTProbeTrack03	7	ProbeTrackDT	1.1	SCS215a	20101110.094737	20101110.100215	dt-shadow	8	0.013328	60	10	60-180	60	143	GapExp	0	146	2	3	1	target	1	534	733	212947	13.328	12.857	13.805
DTProbeTrack03	7	ProbeTrackDT	1.1	SCS215a	20101110.094737	20101110.100221	dt-shadow	8	0.013328	60	10	60-180	60	68	GapExp	0	147	2	45	1	target	1	867	567	213514	13.328	13.006	13.662
DTProbeTrack03	7	ProbeTrackDT	1.1	SCS215a	20101110.094737	20101110.100226	dt-shadow	8	0.013328	60	10	60-180	60	85	GapExp	0	148	2	3	1	target	1	454	773	214287	13.328	13.105	13.538
DTProbeTrack03	7	ProbeTrackDT	1.1	SCS215a	20101110.094737	20101110.100231	dt-shadow	8	0.013328	60	10	60-180	60	123	GapExp	0	149	2	9	0	target	0	547	-1000	213287	13.328	13.093	13.563
DTProbeTrack03	7	ProbeTrackDT	1.1	SCS215a	20101110.094737	20101110.100237	dt-shadow	8	0.013328	60	10	60-180	60	90	GapExp	0	150	2	3	0	distractor	1	560	720	214007	13.328	12.868	13.796
DTProbeTrack03	7	ProbeTrackDT	1.1	SCS215a	20101110.094737	20101110.100247	dt-shadow	8	0.013328	60	10	60-180	60	143	GapExp	0	151	2	9	1	target	1	440	780	214787	13.328	12.977	13.665
DTProbeTrack03	7	ProbeTrackDT	1.1	SCS215a	20101110.094737	20101110.100252	dt-shadow	8	0.013328	60	10	60-180	60	153	GapExp	0	152	2	6	0	distractor	1	494	753	215540	13.328	13.032	13.617
DTProbeTrack03	7	ProbeTrackDT	1.1	SCS215a	20101110.094737	20101110.100258	dt-shadow	8	0.013328	60	10	60-180	60	75	GapExp	0	153	2	3	0	distractor	1	454	773	216313	13.328	13.307	13.346
DTProbeTrack03	7	ProbeTrackDT	1.1	SCS215a	20101110.094737	20101110.100303	dt-shadow	8	0.013328	60	10	60-180	60	143	GapExp	0	154	2	3	0	distractor	1	427	787	217100	13.328	12.851	13.805
DTProbeTrack03	7	ProbeTrackDT	1.1	SCS215a	20101110.094737	20101110.100309	dt-shadow	8	0.013328	60	10	60-180	60	69	GapExp	0	155	2	3	1	distractor	0	627	-1000	216100	13.328	12.834	13.811
DTProbeTrack03	7	ProbeTrackDT	1.1	SCS215a	20101110.094737	20101110.100314	dt-shadow	8	0.013328	60	10	60-180	60	88	GapExp	0	156	2	1	0	distractor	1	640	680	216780	13.328	12.938	13.721
DTProbeTrack03	7	ProbeTrackDT	1.1	SCS215a	20101110.094737	20101110.100319	dt-shadow	8	0.013328	60	10	60-180	60	74	GapExp	0	157	2	9	0	distractor	1	600	700	217480	13.328	13.310	13.349
DTProbeTrack03	7	ProbeTrackDT	1.1	SCS215a	20101110.094737	20101110.100324	dt-shadow	8	0.013328	60	10	60-180	60	91	GapExp	0	158	2	6	1	distractor	0	507	-1000	216480	13.328	12.988	13.673
DTProbeTrack03	7	ProbeTrackDT	1.1	SCS215a	20101110.094737	20101110.100329	dt-shadow	8	0.013328	60	10	60-180	60	62	GapExp	0	159	2	1	1	target	1	520	740	217220	13.328	13.089	13.558
DTProbeTrack03	7	ProbeTrackDT	1.1	SCS215a	20101110.094737	20101110.100334	dt-shadow	8	0.013328	60	10	60-180	60	175	GapExp	0	160	2	45	1	target	1	454	773	217993	13.328	13.095	13.554
DTProbeTrack03	7	ProbeTrackDT	1.1	SCS215a	20101110.094737	20101110.100341	dt-shadow	8	0.013328	60	10	60-180	60	97	GapExp	0	161	2	3	1	target	1	467	767	218760	13.328	12.851	13.801
DTProbeTrack03	7	ProbeTrackDT	1.1	SCS215a	20101110.094737	20101110.100346	dt-shadow	8	0.013328	60	10	60-180	60	75	GapExp	0	162	2	3	1	target	1	547	727	219487	13.328	13.244	13.409
DTProbeTrack03	7	ProbeTrackDT	1.1	SCS215a	20101110.094737	20101110.100351	dt-shadow	8	0.013328	60	10	60-180	60	92	GapExp	0	163	2	3	1	target	1	494	753	220240	13.328	13.095	13.563
DTProbeTrack03	7	ProbeTrackDT	1.1	SCS215a	20101110.094737	20101110.100356	dt-shadow	8	0.013328	60	10	60-180	60	121	GapExp	0	164	2	3	0	target	0	707	-1000	219240	13.328	13.093	13.577
DTProbeTrack03	7	ProbeTrackDT	1.1	SCS215a	20101110.094737	20101110.100402	dt-shadow	8	0.013328	60	10	60-180	60	95	GapExp	0	165	2	45	1	target	1	494	753	219993	13.328	13.311	13.346
DTProbeTrack03	7	ProbeTrackDT	1.1	SCS215a	20101110.094737	20101110.100408	dt-shadow	8	0.013328	60	10	60-180	60	68	GapExp	0	166	2	3	1	target	1	507	747	220740	13.328	12.978	13.675
DTProbeTrack03	7	ProbeTrackDT	1.1	SCS215a	20101110.094737	20101110.100412	dt-shadow	8	0.013328	60	10	60-180	60	108	GapExp	0	167	2	3	0	target	0	414	-1000	219740	13.328	13.104	13.559
DTProbeTrack03	7	ProbeTrackDT	1.1	SCS215a	20101110.094737	20101110.100418	dt-shadow	8	0.013328	60	10	60-180	60	165	GapExp	0	168	2	6	0	distractor	1	454	773	220513	13.328	12.993	13.660
DTProbeTrack03	7	ProbeTrackDT	1.1	SCS215a	20101110.094737	20101110.100424	dt-shadow	8	0.013328	60	10	60-180	60	66	GapExp	0	169	2	45	0	distractor	1	547	727	221240	13.328	13.104	13.546
DTProbeTrack03	7	ProbeTrackDT	1.1	SCS215a	20101110.094737	20101110.100429	dt-shadow	8	0.013328	60	10	60-180	60	104	GapExp	0	170	2	3	1	target	1	574	713	221953	13.328	12.936	13.720
DTProbeTrack03	7	ProbeTrackDT	1.1	SCS215a	20101110.094737	20101110.100435	dt-shadow	8	0.013328	60	10	60-180	60	163	GapExp	0	171	2	6	0	distractor	1	494	753	222706	13.328	12.868	13.792
DTProbeTrack03	7	ProbeTrackDT	1.1	SCS215a	20101110.094737	20101110.100441	dt-shadow	8	0.013328	60	10	60-180	60	80	GapExp	0	172	2	6	0	distractor	1	627	687	223393	13.328	12.904	13.745
DTProbeTrack03	7	ProbeTrackDT	1.1	SCS215a	20101110.094737	20101110.100446	dt-shadow	8	0.013328	60	10	60-180	60	168	GapExp	0	173	2	6	1	target	1	614	693	224086	13.328	12.866	13.798
DTProbeTrack03	7	ProbeTrackDT	1.1	SCS215a	20101110.094737	20101110.100452	dt-shadow	8	0.013328	60	10	60-180	60	100	GapExp	0	174	2	45	1	target	1	627	687	224773	13.328	12.990	13.659
DTProbeTrack03	7	ProbeTrackDT	1.1	SCS215a	20101110.094737	20101110.100458	dt-shadow	8	0.013328	60	10	60-180	60	131	GapExp	0	175	2	6	1	target	1	574	713	225486	13.328	12.928	13.735
DTProbeTrack03	7	ProbeTrackDT	1.1	SCS215a	20101110.094737	20101110.100504	dt-shadow	8	0.013328	60	10	60-180	60	96	GapExp	0	176	2	1	0	distractor	1	454	773	226259	13.328	13.120	13.546
DTProbeTrack03	7	ProbeTrackDT	1.1	SCS215a	20101110.094737	20101110.100509	dt-shadow	8	0.013328	60	10	60-180	60	118	GapExp	0	177	2	6	0	distractor	1	574	713	226972	13.328	13.302	13.345
DTProbeTrack03	7	ProbeTrackDT	1.1	SCS215a	20101110.094737	20101110.100515	dt-shadow	8	0.013328	60	10	60-180	60	81	GapExp	0	178	2	1	1	target	1	494	753	227725	13.328	13.049	13.603
DTProbeTrack03	7	ProbeTrackDT	1.1	SCS215a	20101110.094737	20101110.100520	dt-shadow	8	0.013328	60	10	60-180	60	165	GapExp	0	179	2	45	1	target	1	547	727	228452	13.328	13.042	13.621
DTProbeTrack03	7	ProbeTrackDT	1.1	SCS215a	20101110.094737	20101110.100526	dt-shadow	8	0.013328	60	10	60-180	60	112	GapExp	0	180	2	1	0	target	0	774	-1000	227452	13.328	12.981	13.662
DTProbeTrack03	7	ProbeTrackDT	1.1	SCS215a	20101110.094737	20101110.100532	dt-shadow	8	0.013328	60	10	60-180	60	155	GapExp	0	181	2	3	0	target	0	494	-1000	226452	13.328	13.307	13.353
DTProbeTrack03	7	ProbeTrackDT	1.1	SCS215a	20101110.094737	20101110.100538	dt-shadow	8	0.013328	60	10	60-180	60	92	GapExp	0	182	2	1	1	target	1	560	720	227172	13.328	12.857	13.799
DTProbeTrack03	7	ProbeTrackDT	1.1	SCS215a	20101110.094737	20101110.100543	dt-shadow	8	0.013328	60	10	60-180	60	155	GapExp	0	183	2	3	1	target	1	400	800	227972	13.328	13.090	13.559
DTProbeTrack03	7	ProbeTrackDT	1.1	SCS215a	20101110.094737	20101110.100549	dt-shadow	8	0.013328	60	10	60-180	60	178	GapExp	0	184	2	9	0	distractor	1	827	587	228559	13.328	12.901	13.755
DTProbeTrack03	7	ProbeTrackDT	1.1	SCS215a	20101110.094737	20101110.100556	dt-shadow	8	0.013328	60	10	60-180	60	107	GapExp	0	185	2	3	1	target	1	880	560	229119	13.328	12.872	13.803
DTProbeTrack03	7	ProbeTrackDT	1.1	SCS215a	20101110.094737	20101110.100602	dt-shadow	8	0.013328	60	10	60-180	60	158	GapExp	0	186	2	6	1	target	1	440	780	229899	13.328	12.984	13.666
DTProbeTrack03	7	ProbeTrackDT	1.1	SCS215a	20101110.094737	20101110.100608	dt-shadow	8	0.013328	60	10	60-180	60	134	GapExp	0	187	2	1	1	target	1	627	687	230586	13.328	12.952	13.693
DTProbeTrack03	7	ProbeTrackDT	1.1	SCS215a	20101110.094737	20101110.100613	dt-shadow	8	0.013328	60	10	60-180	60	76	GapExp	0	188	2	9	1	target	1	467	767	231353	13.328	12.944	13.726
DTProbeTrack03	7	ProbeTrackDT	1.1	SCS215a	20101110.094737	20101110.100618	dt-shadow	8	0.013328	60	10	60-180	60	98	GapExp	0	189	2	1	1	target	1	520	740	232093	13.328	13.093	13.557
DTProbeTrack03	7	ProbeTrackDT	1.1	SCS215a	20101110.094737	20101110.100624	dt-shadow	8	0.013328	60	10	60-180	60	155	GapExp	0	190	2	6	1	target	1	467	767	232860	13.328	12.995	13.670
DTProbeTrack03	7	ProbeTrackDT	1.1	SCS215a	20101110.094737	20101110.100630	dt-shadow	8	0.013328	60	10	60-180	60	170	GapExp	0	191	2	9	1	target	1	414	793	233653	13.328	12.877	13.772
DTProbeTrack03	7	ProbeTrackDT	1.1	SCS215a	20101110.094737	20101110.100636	dt-shadow	8	0.013328	60	10	60-180	60	154	GapExp	0	192	2	1	0	distractor	1	640	680	234333	13.328	12.879	13.787
DTProbeTrack03	7	ProbeTrackDT	1.1	SCS215a	20101110.094737	20101110.100642	dt-shadow	8	0.013328	60	10	60-180	60	93	GapExp	0	193	2	45	0	distractor	1	587	707	235040	13.328	13.309	13.347
DTProbeTrack03	7	ProbeTrackDT	1.1	SCS215a	20101110.094737	20101110.100648	dt-shadow	8	0.013328	60	10	60-180	60	156	GapExp	0	194	2	6	0	target	0	733	-1000	234040	13.328	12.908	13.749
DTProbeTrack03	7	ProbeTrackDT	1.1	SCS215a	20101110.094737	20101110.100654	dt-shadow	8	0.013328	60	10	60-180	60	62	GapExp	0	195	2	6	1	target	1	440	780	234820	13.328	13.295	13.374
DTProbeTrack03	7	ProbeTrackDT	1.1	SCS215a	20101110.094737	20101110.100659	dt-shadow	8	0.013328	60	10	60-180	60	117	GapExp	0	196	2	9	1	target	1	494	753	235573	13.328	13.056	13.594
DTProbeTrack03	7	ProbeTrackDT	1.1	SCS215a	20101110.094737	20101110.100704	dt-shadow	8	0.013328	60	10	60-180	60	111	GapExp	0	197	2	9	1	target	1	4678	0	235573	13.328	13.288	13.373
DTProbeTrack03	7	ProbeTrackDT	1.1	SCS215a	20101110.094737	20101110.100714	dt-shadow	8	0.013328	60	10	60-180	60	172	GapExp	0	198	2	9	0	distractor	1	667	667	236240	13.328	12.889	13.770
DTProbeTrack03	7	ProbeTrackDT	1.1	SCS215a	20101110.094737	20101110.100721	dt-shadow	8	0.013328	60	10	60-180	60	154	GapExp	0	199	2	1	0	target	0	507	-1000	235240	13.328	13.093	13.564
DTProbeTrack03	7	ProbeTrackDT	1.1	SCS215a	20101110.094737	20101110.100727	dt-shadow	8	0.013328	60	10	60-180	60	174	GapExp	0	200	2	6	1	target	1	440	780	236020	13.328	13.103	13.559
DTProbeTrack03	7	ProbeTrackDT	1.1	SCS215a	20101110.094737	20101110.100737	dt-shadow	8	0.013328	60	10	60-180	60	77	GapExp	0	201	2	6	0	distractor	1	800	600	236620	13.328	13.309	13.348
DTProbeTrack03	7	ProbeTrackDT	1.1	SCS215a	20101110.094737	20101110.100742	dt-shadow	8	0.013328	60	10	60-180	60	92	GapExp	0	202	2	9	0	target	0	600	-1000	235620	13.328	13.309	13.345
DTProbeTrack03	7	ProbeTrackDT	1.1	SCS215a	20101110.094737	20101110.100748	dt-shadow	8	0.013328	60	10	60-180	60	68	GapExp	0	203	2	1	1	target	1	520	740	236360	13.328	13.104	13.557
DTProbeTrack03	7	ProbeTrackDT	1.1	SCS215a	20101110.094737	20101110.100753	dt-shadow	8	0.013328	60	10	60-180	60	89	GapExp	0	204	2	9	1	target	1	534	733	237093	13.328	13.311	13.348
DTProbeTrack03	7	ProbeTrackDT	1.1	SCS215a	20101110.094737	20101110.100758	dt-shadow	8	0.013328	60	10	60-180	60	95	GapExp	0	205	2	9	1	target	1	414	793	237886	13.328	13.307	13.348
DTProbeTrack03	7	ProbeTrackDT	1.1	SCS215a	20101110.101023	20101110.101029	dt-generate	8	0.013328	60	10	60-180	60	159	GapPrac	1	1	2	9	0	distractor	1	800	600	238486	13.328	13.229	13.423
DTProbeTrack03	7	ProbeTrackDT	1.1	SCS215a	20101110.101023	20101110.101035	dt-generate	8	0.013328	60	10	60-180	60	128	GapPrac	1	2	2	3	0	target	0	613	-1000	237486	13.328	13.104	13.551
DTProbeTrack03	7	ProbeTrackDT	1.1	SCS215a	20101110.101023	20101110.101041	dt-generate	8	0.013328	60	10	60-180	60	133	GapPrac	1	3	2	45	1	distractor	0	1200	-1000	236486	13.328	13.093	13.574
DTProbeTrack03	7	ProbeTrackDT	1.1	SCS215a	20101110.101023	20101110.101048	dt-generate	8	0.013328	60	10	60-180	60	171	GapPrac	1	4	2	1	0	distractor	1	507	747	237233	13.328	12.995	13.656
DTProbeTrack03	7	ProbeTrackDT	1.1	SCS215a	20101110.101023	20101110.101054	dt-generate	8	0.013328	60	10	60-180	60	98	GapPrac	1	5	2	1	0	target	0	800	-1000	236233	13.328	12.864	13.783
DTProbeTrack03	7	ProbeTrackDT	1.1	SCS215a	20101110.101023	20101110.101100	dt-generate	8	0.013328	60	10	60-180	60	172	GapPrac	1	6	2	9	1	target	1	534	733	236966	13.328	13.308	13.348
DTProbeTrack03	7	ProbeTrackDT	1.1	SCS215a	20101110.101023	20101110.101106	dt-generate	8	0.013328	60	10	60-180	60	119	GapPrac	1	7	2	1	1	target	1	1040	480	237446	13.328	13.123	13.542
DTProbeTrack03	7	ProbeTrackDT	1.1	SCS215a	20101110.101023	20101110.101112	dt-generate	8	0.013328	60	10	60-180	60	143	GapPrac	1	8	2	9	0	distractor	1	494	753	238199	13.328	13.083	13.564
DTProbeTrack03	7	ProbeTrackDT	1.1	SCS215a	20101110.101023	20101110.101118	dt-generate	8	0.013328	60	10	60-180	60	149	GapPrac	1	9	2	6	1	target	1	1746	127	238326	13.328	13.103	13.545
DTProbeTrack03	7	ProbeTrackDT	1.1	SCS215a	20101110.101023	20101110.101125	dt-generate	8	0.013328	60	10	60-180	60	133	GapPrac	1	10	2	6	0	target	0	947	-1000	237326	13.328	13.108	13.557
DTProbeTrack03	7	ProbeTrackDT	1.1	SCS215a	20101110.101023	20101110.101131	dt-generate	8	0.013328	60	10	60-180	60	118	GapPrac	1	11	2	45	1	target	1	534	733	238059	13.328	13.309	13.347
DTProbeTrack03	7	ProbeTrackDT	1.1	SCS215a	20101110.101023	20101110.101137	dt-generate	8	0.013328	60	10	60-180	60	163	GapPrac	1	12	2	45	0	target	0	600	-1000	237059	13.328	13.104	13.559
DTProbeTrack03	7	ProbeTrackDT	1.1	SCS215a	20101110.101023	20101110.101144	dt-generate	8	0.013328	60	10	60-180	60	96	GapPrac	1	13	2	45	0	target	0	520	-1000	236059	13.328	13.099	13.554
DTProbeTrack03	7	ProbeTrackDT	1.1	SCS215a	20101110.101023	20101110.101150	dt-generate	8	0.013328	60	10	60-180	60	61	GapPrac	1	14	2	6	1	target	1	467	767	236826	13.328	13.297	13.348
DTProbeTrack03	7	ProbeTrackDT	1.1	SCS215a	20101110.101023	20101110.101155	dt-generate	8	0.013328	60	10	60-180	60	92	GapPrac	1	15	2	3	1	target	1	507	747	237573	13.328	13.305	13.350
DTProbeTrack03	7	ProbeTrackDT	1.1	SCS215a	20101110.101023	20101110.101200	dt-generate	8	0.013328	60	10	60-180	60	151	GapPrac	1	16	2	1	1	target	1	1093	454	238027	13.328	13.097	13.565
DTProbeTrack03	7	ProbeTrackDT	1.1	SCS215a	20101110.101023	20101110.101206	dt-generate	8	0.013328	60	10	60-180	60	104	GapPrac	1	17	2	3	0	target	0	1373	-1000	237027	13.328	13.308	13.354
DTProbeTrack03	7	ProbeTrackDT	1.1	SCS215a	20101110.101023	20101110.101213	dt-generate	8	0.013328	60	10	60-180	60	87	GapPrac	1	18	2	6	0	target	0	933	-1000	236027	13.328	12.889	13.760
DTProbeTrack03	7	ProbeTrackDT	1.1	SCS215a	20101110.101023	20101110.101218	dt-generate	8	0.013328	60	10	60-180	60	62	GapPrac	1	19	2	9	1	target	1	720	640	236667	13.328	13.279	13.378
DTProbeTrack03	7	ProbeTrackDT	1.1	SCS215a	20101110.101023	20101110.101223	dt-generate	8	0.013328	60	10	60-180	60	140	GapPrac	1	20	2	3	1	target	1	427	787	237454	13.328	12.862	13.798
DTProbeTrack03	7	ProbeTrackDT	1.1	SCS215a	20101110.101315	20101110.101329	dt-generate	8	0.013328	60	10	60-180	60	150	GapExp	1	1	2	9	0	target	0	1413	-1000	236454	13.328	12.941	13.722
DTProbeTrack03	7	ProbeTrackDT	1.1	SCS215a	20101110.101315	20101110.101336	dt-generate	8	0.013328	60	10	60-180	60	61	GapExp	1	2	2	6	0	target	0	693	-1000	235454	13.328	13.024	13.778
DTProbeTrack03	7	ProbeTrackDT	1.1	SCS215a	20101110.101315	20101110.101341	dt-generate	8	0.013328	60	10	60-180	60	78	GapExp	1	3	2	6	1	distractor	0	560	-1000	234454	13.328	12.846	13.810
DTProbeTrack03	7	ProbeTrackDT	1.1	SCS215a	20101110.101315	20101110.101346	dt-generate	8	0.013328	60	10	60-180	60	128	GapExp	1	4	2	1	1	target	1	1280	360	234814	13.376	12.974	26.975
DTProbeTrack03	7	ProbeTrackDT	1.1	SCS215a	20101110.101315	20101110.101352	dt-generate	8	0.013328	60	10	60-180	60	166	GapExp	1	5	2	9	1	target	1	387	807	235621	13.328	13.094	13.550
DTProbeTrack03	7	ProbeTrackDT	1.1	SCS215a	20101110.101315	20101110.101358	dt-generate	8	0.013328	60	10	60-180	60	74	GapExp	0	6	2	45	0	distractor	1	427	787	236408	13.328	13.097	13.565
DTProbeTrack03	7	ProbeTrackDT	1.1	SCS215a	20101110.101315	20101110.101404	dt-generate	8	0.013328	60	10	60-180	60	164	GapExp	0	7	2	3	0	target	0	467	-1000	235408	13.328	13.000	13.652
DTProbeTrack03	7	ProbeTrackDT	1.1	SCS215a	20101110.101315	20101110.101410	dt-generate	8	0.013328	60	10	60-180	60	161	GapExp	0	8	2	6	0	target	0	1053	-1000	234408	13.328	12.971	13.674
DTProbeTrack03	7	ProbeTrackDT	1.1	SCS215a	20101110.101315	20101110.101416	dt-generate	8	0.013328	60	10	60-180	60	112	GapExp	0	9	2	45	1	target	1	587	707	235115	13.328	12.964	13.707
DTProbeTrack03	7	ProbeTrackDT	1.1	SCS215a	20101110.101315	20101110.101422	dt-generate	8	0.013328	60	10	60-180	60	132	GapExp	0	10	2	45	1	target	1	587	707	235822	13.328	13.307	13.347
DTProbeTrack03	7	ProbeTrackDT	1.1	SCS215a	20101110.101315	20101110.101429	dt-generate	8	0.013328	60	10	60-180	60	152	GapExp	0	11	2	9	1	target	1	494	753	236575	13.328	13.298	13.348
DTProbeTrack03	7	ProbeTrackDT	1.1	SCS215a	20101110.101315	20101110.101435	dt-generate	8	0.013328	60	10	60-180	60	69	GapExp	0	12	2	45	0	target	0	600	-1000	235575	13.328	13.083	13.559
DTProbeTrack03	7	ProbeTrackDT	1.1	SCS215a	20101110.101315	20101110.101440	dt-generate	8	0.013328	60	10	60-180	60	93	GapExp	0	13	2	9	0	target	0	1453	-1000	234575	13.328	13.097	13.552
DTProbeTrack03	7	ProbeTrackDT	1.1	SCS215a	20101110.101315	20101110.101447	dt-generate	8	0.013328	60	10	60-180	60	132	GapExp	0	14	2	3	0	target	0	1493	-1000	233575	13.328	12.973	13.675
DTProbeTrack03	7	ProbeTrackDT	1.1	SCS215a	20101110.101315	20101110.101453	dt-generate	8	0.013328	60	10	60-180	60	75	GapExp	0	15	2	6	0	target	0	2413	-1000	232575	13.328	13.079	13.569
DTProbeTrack03	7	ProbeTrackDT	1.1	SCS215a	20101110.101315	20101110.101500	dt-generate	8	0.013328	60	10	60-180	60	97	GapExp	0	16	2	6	0	distractor	1	573	714	233289	13.328	13.308	13.345
DTProbeTrack03	7	ProbeTrackDT	1.1	SCS215a	20101110.101315	20101110.101505	dt-generate	8	0.013328	60	10	60-180	60	172	GapExp	0	17	2	6	0	distractor	1	667	667	233956	13.328	13.308	13.350
DTProbeTrack03	7	ProbeTrackDT	1.1	SCS215a	20101110.101315	20101110.101512	dt-generate	8	0.013328	60	10	60-180	60	154	GapExp	0	18	2	6	0	distractor	1	693	654	234610	13.328	13.308	13.352
DTProbeTrack03	7	ProbeTrackDT	1.1	SCS215a	20101110.101315	20101110.101518	dt-generate	8	0.013328	60	10	60-180	60	108	GapExp	0	19	2	6	0	distractor	1	613	694	235304	13.328	13.306	13.357
DTProbeTrack03	7	ProbeTrackDT	1.1	SCS215a	20101110.101315	20101110.101524	dt-generate	8	0.013328	60	10	60-180	60	65	GapExp	0	20	2	3	1	distractor	0	1027	-1000	234304	13.328	13.112	13.558
DTProbeTrack03	7	ProbeTrackDT	1.1	SCS215a	20101110.101315	20101110.101529	dt-generate	8	0.013328	60	10	60-180	60	112	GapExp	0	21	2	45	1	target	1	614	693	234997	13.328	12.979	13.691
DTProbeTrack03	7	ProbeTrackDT	1.1	SCS215a	20101110.101315	20101110.101535	dt-generate	8	0.013328	60	10	60-180	60	79	GapExp	0	22	2	1	0	target	0	1520	-1000	233997	13.328	13.308	13.347
DTProbeTrack03	7	ProbeTrackDT	1.1	SCS215a	20101110.101315	20101110.101541	dt-generate	8	0.013328	60	10	60-180	60	146	GapExp	0	23	2	3	0	target	0	560	-1000	232997	13.328	13.260	13.393
DTProbeTrack03	7	ProbeTrackDT	1.1	SCS215a	20101110.101315	20101110.101547	dt-generate	8	0.013328	60	10	60-180	60	169	GapExp	0	24	2	45	0	target	0	707	-1000	231997	13.365	13.217	26.683
DTProbeTrack03	7	ProbeTrackDT	1.1	SCS215a	20101110.101315	20101110.101554	dt-generate	8	0.013328	60	10	60-180	60	77	GapExp	0	25	2	45	1	target	1	534	733	232730	13.328	12.981	13.683
DTProbeTrack03	7	ProbeTrackDT	1.1	SCS215a	20101110.101315	20101110.101600	dt-generate	8	0.013328	60	10	60-180	60	85	GapExp	0	26	2	45	1	target	1	560	720	233450	13.327	13.091	13.566
DTProbeTrack03	7	ProbeTrackDT	1.1	SCS215a	20101110.101315	20101110.101605	dt-generate	8	0.013328	60	10	60-180	60	116	GapExp	0	27	2	45	0	distractor	1	494	753	234203	13.328	12.894	13.762
DTProbeTrack03	7	ProbeTrackDT	1.1	SCS215a	20101110.101315	20101110.101611	dt-generate	8	0.013328	60	10	60-180	60	161	GapExp	0	28	2	45	0	target	0	520	-1000	233203	13.328	13.028	13.620
DTProbeTrack03	7	ProbeTrackDT	1.1	SCS215a	20101110.101315	20101110.101618	dt-generate	8	0.013328	60	10	60-180	60	102	GapExp	0	29	2	3	0	target	0	840	-1000	232203	13.328	12.932	13.723
DTProbeTrack03	7	ProbeTrackDT	1.1	SCS215a	20101110.101315	20101110.101624	dt-generate	8	0.013328	60	10	60-180	60	91	GapExp	0	30	2	9	0	distractor	1	653	674	232877	13.328	12.884	13.771
DTProbeTrack03	7	ProbeTrackDT	1.1	SCS215a	20101110.101315	20101110.101629	dt-generate	8	0.013328	60	10	60-180	60	80	GapExp	0	31	2	3	0	target	0	1813	-1000	231877	13.328	12.910	13.747
DTProbeTrack03	7	ProbeTrackDT	1.1	SCS215a	20101110.101315	20101110.101635	dt-generate	8	0.013328	60	10	60-180	60	82	GapExp	0	32	2	1	1	target	1	2493	0	231877	13.445	12.853	40.249
DTProbeTrack03	7	ProbeTrackDT	1.1	SCS215a	20101110.101315	20101110.101642	dt-generate	8	0.013328	60	10	60-180	60	168	GapExp	0	33	2	6	1	target	1	627	687	232564	13.328	12.956	13.702
DTProbeTrack03	7	ProbeTrackDT	1.1	SCS215a	20101110.101315	20101110.101649	dt-generate	8	0.013328	60	10	60-180	60	73	GapExp	0	34	2	3	0	target	0	520	-1000	231564	13.328	13.110	13.355
DTProbeTrack03	7	ProbeTrackDT	1.1	SCS215a	20101110.101315	20101110.101653	dt-generate	8	0.013328	60	10	60-180	60	153	GapExp	0	35	2	9	1	target	1	520	740	232304	13.420	13.096	39.973
DTProbeTrack03	7	ProbeTrackDT	1.1	SCS215a	20101110.101315	20101110.101700	dt-generate	8	0.013328	60	10	60-180	60	99	GapExp	0	36	2	9	0	distractor	1	240	880	233184	13.328	13.311	13.346
DTProbeTrack03	7	ProbeTrackDT	1.1	SCS215a	20101110.101315	20101110.101705	dt-generate	8	0.013328	60	10	60-180	60	108	GapExp	0	37	2	1	1	target	1	494	753	233937	13.328	13.307	13.346
DTProbeTrack03	7	ProbeTrackDT	1.1	SCS215a	20101110.101315	20101110.101710	dt-generate	8	0.013328	60	10	60-180	60	79	GapExp	0	38	2	45	1	target	1	427	787	234724	13.328	12.863	13.816
DTProbeTrack03	7	ProbeTrackDT	1.1	SCS215a	20101110.101315	20101110.101715	dt-generate	8	0.013328	60	10	60-180	60	83	GapExp	0	39	2	9	0	distractor	1	614	693	235417	13.328	12.914	13.747
DTProbeTrack03	7	ProbeTrackDT	1.1	SCS215a	20101110.101315	20101110.101721	dt-generate	8	0.013328	60	10	60-180	60	122	GapExp	0	40	2	45	0	distractor	1	1093	454	235871	13.328	13.114	13.544
DTProbeTrack03	7	ProbeTrackDT	1.1	SCS215a	20101110.101315	20101110.101727	dt-generate	8	0.013328	60	10	60-180	60	164	GapExp	0	41	2	9	1	target	1	1640	180	236051	13.328	13.115	13.549
