exp	sub	code	rev	comp	runtime	trialtime	stdt	nstim	refreshdur	cuedur	gapdur	gapOnsetRange	durPostProbe	gapOnsetTime	blocktype	prac	trial	ntargets	soa	probeTarget	resp	acc	rt	pts	tpts	meanFrameDur	minFrameDur	maxFrameDur
DTProbeTrack03	15	ProbeTrackDT	1.1	SCS215a	20110121.104018	20110121.104100	single-task	8	0.013328	60	0	60-180	60	76	NoGap	1	1	2	6	1	target	1	1093	454	454	13.328	13.309	13.347
DTProbeTrack03	15	ProbeTrackDT	1.1	SCS215a	20110121.104018	20110121.104106	single-task	8	0.013328	60	0	60-180	60	113	NoGap	1	2	2	1	1	target	1	880	560	1014	13.328	13.227	13.430
DTProbeTrack03	15	ProbeTrackDT	1.1	SCS215a	20110121.104018	20110121.104111	single-task	8	0.013328	60	0	60-180	60	67	NoGap	1	3	2	9	0	distractor	1	787	607	1621	13.328	12.979	13.677
DTProbeTrack03	15	ProbeTrackDT	1.1	SCS215a	20110121.104018	20110121.104117	single-task	8	0.013328	60	0	60-180	60	72	NoGap	1	4	2	3	0	distractor	1	920	540	2161	13.328	12.879	13.774
DTProbeTrack03	15	ProbeTrackDT	1.1	SCS215a	20110121.104018	20110121.104122	single-task	8	0.013328	60	0	60-180	60	144	NoGap	1	5	2	6	0	distractor	1	680	660	2821	13.328	12.910	13.751
DTProbeTrack03	15	ProbeTrackDT	1.1	SCS215a	20110121.104018	20110121.104128	single-task	8	0.013328	60	0	60-180	60	160	NoGap	1	6	2	3	0	distractor	1	667	667	3488	13.328	12.944	13.720
DTProbeTrack03	15	ProbeTrackDT	1.1	SCS215a	20110121.104018	20110121.104134	single-task	8	0.013328	60	0	60-180	60	91	NoGap	1	7	2	45	0	distractor	1	573	714	4202	13.328	12.931	13.368
DTProbeTrack03	15	ProbeTrackDT	1.1	SCS215a	20110121.104018	20110121.104140	single-task	8	0.013328	60	0	60-180	60	160	NoGap	1	8	2	1	0	distractor	1	654	673	4875	13.421	13.298	39.998
DTProbeTrack03	15	ProbeTrackDT	1.1	SCS215a	20110121.104018	20110121.104146	single-task	8	0.013328	60	0	60-180	60	112	NoGap	1	9	2	9	1	target	1	707	647	5522	13.328	13.298	13.362
DTProbeTrack03	15	ProbeTrackDT	1.1	SCS215a	20110121.104018	20110121.104151	single-task	8	0.013328	60	0	60-180	60	142	NoGap	1	10	2	9	0	distractor	1	614	693	6215	13.328	12.984	13.663
DTProbeTrack03	15	ProbeTrackDT	1.1	SCS215a	20110121.104018	20110121.104157	single-task	8	0.013328	60	0	60-180	60	70	NoGap	1	11	2	45	1	target	1	627	687	6902	13.328	12.893	13.765
DTProbeTrack03	15	ProbeTrackDT	1.1	SCS215a	20110121.104018	20110121.104203	single-task	8	0.013328	60	0	60-180	60	81	NoGap	1	12	2	9	0	distractor	1	667	667	7569	13.328	13.112	13.533
DTProbeTrack03	15	ProbeTrackDT	1.1	SCS215a	20110121.104018	20110121.104208	single-task	8	0.013328	60	0	60-180	60	130	NoGap	1	13	2	45	0	distractor	1	560	720	8289	13.328	13.016	13.627
DTProbeTrack03	15	ProbeTrackDT	1.1	SCS215a	20110121.104018	20110121.104214	single-task	8	0.013328	60	0	60-180	60	145	NoGap	1	14	2	3	0	distractor	1	640	680	8969	13.328	12.881	13.787
DTProbeTrack03	15	ProbeTrackDT	1.1	SCS215a	20110121.104018	20110121.104220	single-task	8	0.013328	60	0	60-180	60	113	NoGap	1	15	2	1	0	distractor	1	547	727	9696	13.329	13.083	13.626
DTProbeTrack03	15	ProbeTrackDT	1.1	SCS215a	20110121.104018	20110121.104226	single-task	8	0.013328	60	0	60-180	60	112	NoGap	1	16	2	45	1	target	1	574	713	10409	13.328	12.842	13.809
DTProbeTrack03	15	ProbeTrackDT	1.1	SCS215a	20110121.104018	20110121.104231	single-task	8	0.013328	60	0	60-180	60	127	NoGap	1	17	2	9	1	target	1	614	693	11102	13.328	13.097	13.566
DTProbeTrack03	15	ProbeTrackDT	1.1	SCS215a	20110121.104018	20110121.104237	single-task	8	0.013328	60	0	60-180	60	97	NoGap	1	18	2	6	1	target	1	907	547	11649	13.328	12.888	13.785
DTProbeTrack03	15	ProbeTrackDT	1.1	SCS215a	20110121.104018	20110121.104243	single-task	8	0.013328	60	0	60-180	60	90	NoGap	1	19	2	45	0	distractor	1	733	634	12283	13.328	12.870	13.796
DTProbeTrack03	15	ProbeTrackDT	1.1	SCS215a	20110121.104018	20110121.104248	single-task	8	0.013328	60	0	60-180	60	128	NoGap	1	20	2	45	0	distractor	1	693	654	12937	13.328	13.311	13.344
DTProbeTrack03	15	ProbeTrackDT	1.1	SCS215a	20110121.104018	20110121.104255	single-task	8	0.013328	60	0	60-180	60	133	NoGap	1	21	2	45	1	target	1	600	700	13637	13.329	12.897	13.778
DTProbeTrack03	15	ProbeTrackDT	1.1	SCS215a	20110121.104018	20110121.104301	single-task	8	0.013328	60	0	60-180	60	105	NoGap	1	22	2	3	1	target	1	627	687	14324	13.328	13.105	13.551
DTProbeTrack03	15	ProbeTrackDT	1.1	SCS215a	20110121.104018	20110121.104306	single-task	8	0.013328	60	0	60-180	60	77	NoGap	1	23	2	6	0	distractor	1	733	634	14958	13.328	13.307	13.345
DTProbeTrack03	15	ProbeTrackDT	1.1	SCS215a	20110121.104018	20110121.104311	single-task	8	0.013328	60	0	60-180	60	177	NoGap	1	24	2	45	1	target	1	520	740	15698	13.328	13.114	13.543
DTProbeTrack03	15	ProbeTrackDT	1.1	SCS215a	20110121.104018	20110121.104318	single-task	8	0.013328	60	0	60-180	60	175	NoGap	1	25	2	3	0	distractor	1	627	687	16385	13.328	13.245	13.411
DTProbeTrack03	15	ProbeTrackDT	1.1	SCS215a	20110121.104018	20110121.104324	single-task	8	0.013328	60	0	60-180	60	180	NoGap	1	26	2	6	1	target	1	573	714	17099	13.328	13.299	13.348
DTProbeTrack03	15	ProbeTrackDT	1.1	SCS215a	20110121.104018	20110121.104331	single-task	8	0.013328	60	0	60-180	60	61	NoGap	1	27	2	1	0	distractor	1	613	694	17793	13.328	13.311	13.348
DTProbeTrack03	15	ProbeTrackDT	1.1	SCS215a	20110121.104018	20110121.104335	single-task	8	0.013328	60	0	60-180	60	171	NoGap	1	28	2	1	1	target	1	600	700	18493	13.328	13.105	13.563
DTProbeTrack03	15	ProbeTrackDT	1.1	SCS215a	20110121.104018	20110121.104342	single-task	8	0.013328	60	0	60-180	60	86	NoGap	1	29	2	6	0	target	0	933	-1000	17493	13.328	13.099	13.556
DTProbeTrack03	15	ProbeTrackDT	1.1	SCS215a	20110121.104018	20110121.104347	single-task	8	0.013328	60	0	60-180	60	104	NoGap	1	30	2	6	0	distractor	1	693	654	18147	13.328	13.309	13.347
DTProbeTrack03	15	ProbeTrackDT	1.1	SCS215a	20110121.104018	20110121.104352	single-task	8	0.013328	60	0	60-180	60	167	NoGap	1	31	2	9	1	target	1	547	727	18874	13.328	13.303	13.346
DTProbeTrack03	15	ProbeTrackDT	1.1	SCS215a	20110121.104018	20110121.104359	single-task	8	0.013328	60	0	60-180	60	94	NoGap	1	32	2	9	0	distractor	1	534	733	19607	13.328	12.910	13.734
DTProbeTrack03	15	ProbeTrackDT	1.1	SCS215a	20110121.104018	20110121.104404	single-task	8	0.013328	60	0	60-180	60	133	NoGap	1	33	2	9	1	target	1	574	713	20320	13.328	13.095	13.549
DTProbeTrack03	15	ProbeTrackDT	1.1	SCS215a	20110121.104018	20110121.104409	single-task	8	0.013328	60	0	60-180	60	63	NoGap	1	34	2	6	1	target	1	534	733	21053	13.328	13.302	13.361
DTProbeTrack03	15	ProbeTrackDT	1.1	SCS215a	20110121.104018	20110121.104414	single-task	8	0.013328	60	0	60-180	60	139	NoGap	1	35	2	3	1	target	1	574	713	21766	13.328	13.183	13.473
DTProbeTrack03	15	ProbeTrackDT	1.1	SCS215a	20110121.104018	20110121.104420	single-task	8	0.013328	60	0	60-180	60	178	NoGap	1	36	2	1	1	target	1	574	713	22479	13.328	13.102	13.548
DTProbeTrack03	15	ProbeTrackDT	1.1	SCS215a	20110121.104018	20110121.104426	single-task	8	0.013328	60	0	60-180	60	70	NoGap	1	37	2	3	1	distractor	0	933	-1000	21479	13.328	13.309	13.348
DTProbeTrack03	15	ProbeTrackDT	1.1	SCS215a	20110121.104018	20110121.104431	single-task	8	0.013328	60	0	60-180	60	176	NoGap	1	38	2	3	1	target	1	400	800	22279	13.328	12.972	13.688
DTProbeTrack03	15	ProbeTrackDT	1.1	SCS215a	20110121.104018	20110121.104437	single-task	8	0.013328	60	0	60-180	60	175	NoGap	1	39	2	1	1	target	1	494	753	23032	13.328	13.117	13.558
DTProbeTrack03	15	ProbeTrackDT	1.1	SCS215a	20110121.104018	20110121.104443	single-task	8	0.013328	60	0	60-180	60	116	NoGap	1	40	2	1	0	distractor	1	747	627	23659	13.328	12.839	13.809
DTProbeTrack03	15	ProbeTrackDT	1.1	SCS215a	20110121.104552	20110121.104557	dt-shadow	8	0.013328	60	10	60-180	60	69	GapPrac	1	1	2	9	0	distractor	1	667	667	24326	13.328	12.939	13.718
DTProbeTrack03	15	ProbeTrackDT	1.1	SCS215a	20110121.104552	20110121.104602	dt-shadow	8	0.013328	60	10	60-180	60	87	GapPrac	1	2	2	1	1	target	1	520	740	25066	13.328	12.921	13.731
DTProbeTrack03	15	ProbeTrackDT	1.1	SCS215a	20110121.104552	20110121.104607	dt-shadow	8	0.013328	60	10	60-180	60	152	GapPrac	1	3	2	6	0	target	0	627	-1000	24066	13.328	13.312	13.348
DTProbeTrack03	15	ProbeTrackDT	1.1	SCS215a	20110121.104552	20110121.104613	dt-shadow	8	0.013328	60	10	60-180	60	77	GapPrac	1	4	2	45	0	distractor	1	693	654	24720	13.328	13.303	13.343
DTProbeTrack03	15	ProbeTrackDT	1.1	SCS215a	20110121.104552	20110121.104619	dt-shadow	8	0.013328	60	10	60-180	60	102	GapPrac	1	5	2	6	1	target	1	480	760	25480	13.328	13.304	13.360
DTProbeTrack03	15	ProbeTrackDT	1.1	SCS215a	20110121.104552	20110121.104624	dt-shadow	8	0.013328	60	10	60-180	60	175	GapPrac	1	6	2	9	1	target	1	534	733	26213	13.328	13.090	13.557
DTProbeTrack03	15	ProbeTrackDT	1.1	SCS215a	20110121.104552	20110121.104630	dt-shadow	8	0.013328	60	10	60-180	60	118	GapPrac	1	7	2	9	1	target	1	440	780	26993	13.328	13.098	13.551
DTProbeTrack03	15	ProbeTrackDT	1.1	SCS215a	20110121.104552	20110121.104636	dt-shadow	8	0.013328	60	10	60-180	60	158	GapPrac	1	8	2	45	1	target	1	494	753	27746	13.328	13.309	13.346
DTProbeTrack03	15	ProbeTrackDT	1.1	SCS215a	20110121.104552	20110121.104643	dt-shadow	8	0.013328	60	10	60-180	60	73	GapPrac	1	9	2	1	0	target	0	440	-1000	26746	13.328	13.308	13.348
DTProbeTrack03	15	ProbeTrackDT	1.1	SCS215a	20110121.104552	20110121.104647	dt-shadow	8	0.013328	60	10	60-180	60	159	GapPrac	1	10	2	9	0	distractor	1	560	720	27466	13.328	13.307	13.348
DTProbeTrack03	15	ProbeTrackDT	1.1	SCS215a	20110121.104552	20110121.104654	dt-shadow	8	0.013328	60	10	60-180	60	143	GapPrac	1	11	2	3	0	target	0	613	-1000	26466	13.328	12.958	13.719
DTProbeTrack03	15	ProbeTrackDT	1.1	SCS215a	20110121.104552	20110121.104700	dt-shadow	8	0.013328	60	10	60-180	60	147	GapPrac	1	12	2	3	1	target	1	387	807	27273	13.328	12.962	13.696
DTProbeTrack03	15	ProbeTrackDT	1.1	SCS215a	20110121.104552	20110121.104705	dt-shadow	8	0.013328	60	10	60-180	60	123	GapPrac	1	13	2	1	1	target	1	334	833	28106	13.328	13.100	13.563
DTProbeTrack03	15	ProbeTrackDT	1.1	SCS215a	20110121.104552	20110121.104711	dt-shadow	8	0.013328	60	10	60-180	60	110	GapPrac	1	14	2	6	0	distractor	1	627	687	28793	13.328	13.307	13.347
DTProbeTrack03	15	ProbeTrackDT	1.1	SCS215a	20110121.104552	20110121.104716	dt-shadow	8	0.013328	60	10	60-180	60	165	GapPrac	1	15	2	45	1	target	1	680	660	29453	13.328	12.949	13.706
DTProbeTrack03	15	ProbeTrackDT	1.1	SCS215a	20110121.104552	20110121.104723	dt-shadow	8	0.013328	60	10	60-180	60	158	GapPrac	1	16	2	3	1	target	1	440	780	30233	13.328	12.916	13.747
DTProbeTrack03	15	ProbeTrackDT	1.1	SCS215a	20110121.104552	20110121.104729	dt-shadow	8	0.013328	60	10	60-180	60	107	GapPrac	1	17	2	45	0	target	0	480	-1000	29233	13.328	13.024	13.629
DTProbeTrack03	15	ProbeTrackDT	1.1	SCS215a	20110121.104552	20110121.104735	dt-shadow	8	0.013328	60	10	60-180	60	153	GapPrac	1	18	2	6	1	target	1	667	667	29900	13.328	12.986	13.679
DTProbeTrack03	15	ProbeTrackDT	1.1	SCS215a	20110121.104552	20110121.104741	dt-shadow	8	0.013328	60	10	60-180	60	132	GapPrac	1	19	2	3	0	distractor	1	600	700	30600	13.328	13.036	13.629
DTProbeTrack03	15	ProbeTrackDT	1.1	SCS215a	20110121.104552	20110121.104747	dt-shadow	8	0.013328	60	10	60-180	60	145	GapPrac	1	20	2	1	0	distractor	1	613	694	31294	13.328	13.108	13.557
DTProbeTrack03	15	ProbeTrackDT	1.1	SCS215a	20110121.104838	20110121.104847	dt-shadow	8	0.013328	60	10	60-180	60	62	GapExp	1	1	2	3	0	target	0	547	-1000	30294	13.328	13.295	13.352
DTProbeTrack03	15	ProbeTrackDT	1.1	SCS215a	20110121.104838	20110121.104852	dt-shadow	8	0.013328	60	10	60-180	60	167	GapExp	1	2	2	1	0	distractor	1	640	680	30974	13.328	13.109	13.560
DTProbeTrack03	15	ProbeTrackDT	1.1	SCS215a	20110121.104838	20110121.104859	dt-shadow	8	0.013328	60	10	60-180	60	154	GapExp	1	3	2	9	0	distractor	1	907	547	31521	13.328	13.121	13.541
DTProbeTrack03	15	ProbeTrackDT	1.1	SCS215a	20110121.104838	20110121.104905	dt-shadow	8	0.013328	60	10	60-180	60	119	GapExp	1	4	2	3	1	target	1	547	727	32248	13.328	13.093	13.563
DTProbeTrack03	15	ProbeTrackDT	1.1	SCS215a	20110121.104838	20110121.104911	dt-shadow	8	0.013328	60	10	60-180	60	118	GapExp	1	5	2	1	1	target	1	347	827	33075	13.328	13.105	13.552
DTProbeTrack03	15	ProbeTrackDT	1.1	SCS215a	20110121.104838	20110121.104916	dt-shadow	8	0.013328	60	10	60-180	60	80	GapExp	0	6	2	9	1	target	1	400	800	33875	13.328	12.908	13.744
DTProbeTrack03	15	ProbeTrackDT	1.1	SCS215a	20110121.104838	20110121.104921	dt-shadow	8	0.013328	60	10	60-180	60	164	GapExp	0	7	2	1	1	target	1	494	753	34628	13.328	13.309	13.361
DTProbeTrack03	15	ProbeTrackDT	1.1	SCS215a	20110121.104838	20110121.104927	dt-shadow	8	0.013328	60	10	60-180	60	124	GapExp	0	8	2	6	1	target	1	480	760	35388	13.328	13.303	13.344
DTProbeTrack03	15	ProbeTrackDT	1.1	SCS215a	20110121.104838	20110121.104933	dt-shadow	8	0.013328	60	10	60-180	60	177	GapExp	0	9	2	3	0	distractor	1	800	600	35988	13.328	13.096	13.552
DTProbeTrack03	15	ProbeTrackDT	1.1	SCS215a	20110121.104838	20110121.104939	dt-shadow	8	0.013328	60	10	60-180	60	106	GapExp	0	10	2	1	0	target	0	534	-1000	34988	13.328	13.098	13.565
DTProbeTrack03	15	ProbeTrackDT	1.1	SCS215a	20110121.104838	20110121.104945	dt-shadow	8	0.013328	60	10	60-180	60	106	GapExp	0	11	2	1	1	target	1	480	760	35748	13.328	12.900	13.767
DTProbeTrack03	15	ProbeTrackDT	1.1	SCS215a	20110121.104838	20110121.104950	dt-shadow	8	0.013328	60	10	60-180	60	125	GapExp	0	12	2	9	1	target	1	454	773	36521	13.328	13.302	13.358
DTProbeTrack03	15	ProbeTrackDT	1.1	SCS215a	20110121.104838	20110121.104955	dt-shadow	8	0.013328	60	10	60-180	60	94	GapExp	0	13	2	3	1	target	1	387	807	37328	13.328	13.285	13.375
DTProbeTrack03	15	ProbeTrackDT	1.1	SCS215a	20110121.104838	20110121.105001	dt-shadow	8	0.013328	60	10	60-180	60	87	GapExp	0	14	2	3	0	distractor	1	360	820	38148	13.328	13.108	13.548
DTProbeTrack03	15	ProbeTrackDT	1.1	SCS215a	20110121.104838	20110121.105005	dt-shadow	8	0.013328	60	10	60-180	60	120	GapExp	0	15	2	1	1	target	1	320	840	38988	13.328	13.308	13.350
DTProbeTrack03	15	ProbeTrackDT	1.1	SCS215a	20110121.104838	20110121.105011	dt-shadow	8	0.013328	60	10	60-180	60	157	GapExp	0	16	2	3	0	distractor	1	507	747	39735	13.328	12.975	13.697
DTProbeTrack03	15	ProbeTrackDT	1.1	SCS215a	20110121.104838	20110121.105017	dt-shadow	8	0.013328	60	10	60-180	60	74	GapExp	0	17	2	3	0	target	0	534	-1000	38735	13.328	13.284	13.372
DTProbeTrack03	15	ProbeTrackDT	1.1	SCS215a	20110121.104838	20110121.105022	dt-shadow	8	0.013328	60	10	60-180	60	83	GapExp	0	18	2	45	1	target	1	707	647	39382	13.328	13.093	13.554
DTProbeTrack03	15	ProbeTrackDT	1.1	SCS215a	20110121.104838	20110121.105027	dt-shadow	8	0.013328	60	10	60-180	60	95	GapExp	0	19	2	3	0	distractor	1	653	674	40056	13.328	13.260	13.383
DTProbeTrack03	15	ProbeTrackDT	1.1	SCS215a	20110121.104838	20110121.105033	dt-shadow	8	0.013328	60	10	60-180	60	91	GapExp	0	20	2	3	0	distractor	1	534	733	40789	13.569	13.208	40.089
DTProbeTrack03	15	ProbeTrackDT	1.1	SCS215a	20110121.104838	20110121.105038	dt-shadow	8	0.013328	60	10	60-180	60	97	GapExp	0	21	2	6	1	target	1	480	760	41549	13.328	13.032	13.629
DTProbeTrack03	15	ProbeTrackDT	1.1	SCS215a	20110121.104838	20110121.105043	dt-shadow	8	0.013328	60	10	60-180	60	79	GapExp	0	22	2	9	0	distractor	1	600	700	42249	13.328	13.104	13.559
DTProbeTrack03	15	ProbeTrackDT	1.1	SCS215a	20110121.104838	20110121.105049	dt-shadow	8	0.013328	60	10	60-180	60	164	GapExp	0	23	2	9	1	target	1	387	807	43056	13.328	13.084	13.565
DTProbeTrack03	15	ProbeTrackDT	1.1	SCS215a	20110121.104838	20110121.105055	dt-shadow	8	0.013328	60	10	60-180	60	61	GapExp	0	24	2	6	1	target	1	747	627	43683	13.328	13.310	13.348
DTProbeTrack03	15	ProbeTrackDT	1.1	SCS215a	20110121.104838	20110121.105100	dt-shadow	8	0.013328	60	10	60-180	60	167	GapExp	0	25	2	6	1	target	1	587	707	44390	13.328	13.308	13.346
DTProbeTrack03	15	ProbeTrackDT	1.1	SCS215a	20110121.104838	20110121.105106	dt-shadow	8	0.013328	60	10	60-180	60	61	GapExp	0	26	2	1	1	target	1	587	707	45097	13.328	13.309	13.353
DTProbeTrack03	15	ProbeTrackDT	1.1	SCS215a	20110121.104838	20110121.105111	dt-shadow	8	0.013328	60	10	60-180	60	141	GapExp	0	27	2	1	1	target	1	480	760	45857	13.328	13.008	13.636
DTProbeTrack03	15	ProbeTrackDT	1.1	SCS215a	20110121.104838	20110121.105116	dt-shadow	8	0.013328	60	10	60-180	60	159	GapExp	0	28	2	3	1	target	1	400	800	46657	13.328	13.114	13.551
DTProbeTrack03	15	ProbeTrackDT	1.1	SCS215a	20110121.104838	20110121.105122	dt-shadow	8	0.013328	60	10	60-180	60	156	GapExp	0	29	2	45	0	distractor	1	680	660	47317	13.328	13.100	13.545
DTProbeTrack03	15	ProbeTrackDT	1.1	SCS215a	20110121.104838	20110121.105129	dt-shadow	8	0.013328	60	10	60-180	60	168	GapExp	0	30	2	6	0	distractor	1	720	640	47957	13.327	13.089	13.555
DTProbeTrack03	15	ProbeTrackDT	1.1	SCS215a	20110121.104838	20110121.105136	dt-shadow	8	0.013328	60	10	60-180	60	86	GapExp	0	31	2	1	1	target	1	494	753	48710	13.328	13.302	13.364
DTProbeTrack03	15	ProbeTrackDT	1.1	SCS215a	20110121.104838	20110121.105141	dt-shadow	8	0.013328	60	10	60-180	60	94	GapExp	0	32	2	3	1	target	1	467	767	49477	13.328	12.883	13.773
DTProbeTrack03	15	ProbeTrackDT	1.1	SCS215a	20110121.104838	20110121.105146	dt-shadow	8	0.013328	60	10	60-180	60	100	GapExp	0	33	2	1	0	target	0	680	-1000	48477	13.328	13.099	13.570
DTProbeTrack03	15	ProbeTrackDT	1.1	SCS215a	20110121.104838	20110121.105151	dt-shadow	8	0.013328	60	10	60-180	60	138	GapExp	0	34	2	3	0	distractor	1	707	647	49124	13.328	13.097	13.559
DTProbeTrack03	15	ProbeTrackDT	1.1	SCS215a	20110121.104838	20110121.105157	dt-shadow	8	0.013328	60	10	60-180	60	111	GapExp	0	35	2	45	1	target	1	667	667	49791	13.328	13.134	13.524
DTProbeTrack03	15	ProbeTrackDT	1.1	SCS215a	20110121.104838	20110121.105203	dt-shadow	8	0.013328	60	10	60-180	60	162	GapExp	0	36	2	6	0	distractor	1	627	687	50478	13.328	13.309	13.344
DTProbeTrack03	15	ProbeTrackDT	1.1	SCS215a	20110121.104838	20110121.105210	dt-shadow	8	0.013328	60	10	60-180	60	164	GapExp	0	37	2	3	1	target	1	494	753	51231	13.328	13.306	13.355
DTProbeTrack03	15	ProbeTrackDT	1.1	SCS215a	20110121.104838	20110121.105216	dt-shadow	8	0.013328	60	10	60-180	60	101	GapExp	0	38	2	6	0	distractor	1	653	674	51905	13.328	12.861	13.817
DTProbeTrack03	15	ProbeTrackDT	1.1	SCS215a	20110121.104838	20110121.105221	dt-shadow	8	0.013328	60	10	60-180	60	129	GapExp	0	39	2	6	0	distractor	1	733	634	52539	13.328	13.106	13.556
DTProbeTrack03	15	ProbeTrackDT	1.1	SCS215a	20110121.104838	20110121.105227	dt-shadow	8	0.013328	60	10	60-180	60	146	GapExp	0	40	2	45	0	target	0	494	-1000	51539	13.328	13.093	13.552
DTProbeTrack03	15	ProbeTrackDT	1.1	SCS215a	20110121.104838	20110121.105234	dt-shadow	8	0.013328	60	10	60-180	60	90	GapExp	0	41	2	9	1	target	1	507	747	52286	13.328	13.099	13.557
DTProbeTrack03	15	ProbeTrackDT	1.1	SCS215a	20110121.104838	20110121.105239	dt-shadow	8	0.013328	60	10	60-180	60	69	GapExp	0	42	2	9	1	target	1	560	720	53006	13.328	13.296	13.361
DTProbeTrack03	15	ProbeTrackDT	1.1	SCS215a	20110121.104838	20110121.105244	dt-shadow	8	0.013328	60	10	60-180	60	153	GapExp	0	43	2	9	0	distractor	1	627	687	53693	13.328	13.307	13.348
DTProbeTrack03	15	ProbeTrackDT	1.1	SCS215a	20110121.104838	20110121.105250	dt-shadow	8	0.013328	60	10	60-180	60	163	GapExp	0	44	2	45	0	distractor	1	653	674	54367	13.328	13.104	13.552
DTProbeTrack03	15	ProbeTrackDT	1.1	SCS215a	20110121.104838	20110121.105257	dt-shadow	8	0.013328	60	10	60-180	60	124	GapExp	0	45	2	45	1	target	1	547	727	55094	13.328	13.107	13.564
DTProbeTrack03	15	ProbeTrackDT	1.1	SCS215a	20110121.104838	20110121.105303	dt-shadow	8	0.013328	60	10	60-180	60	112	GapExp	0	46	2	3	1	target	1	520	740	55834	13.328	13.114	13.541
DTProbeTrack03	15	ProbeTrackDT	1.1	SCS215a	20110121.104838	20110121.105309	dt-shadow	8	0.013328	60	10	60-180	60	108	GapExp	0	47	2	6	1	target	1	414	793	56627	13.328	13.100	13.570
DTProbeTrack03	15	ProbeTrackDT	1.1	SCS215a	20110121.104838	20110121.105314	dt-shadow	8	0.013328	60	10	60-180	60	109	GapExp	0	48	2	1	1	target	1	454	773	57400	13.328	13.310	13.345
DTProbeTrack03	15	ProbeTrackDT	1.1	SCS215a	20110121.104838	20110121.105319	dt-shadow	8	0.013328	60	10	60-180	60	172	GapExp	0	49	2	9	1	target	1	440	780	58180	13.328	13.299	13.361
DTProbeTrack03	15	ProbeTrackDT	1.1	SCS215a	20110121.104838	20110121.105325	dt-shadow	8	0.013328	60	10	60-180	60	93	GapExp	0	50	2	9	0	distractor	1	600	700	58880	13.328	13.307	13.350
DTProbeTrack03	15	ProbeTrackDT	1.1	SCS215a	20110121.104838	20110121.105337	dt-shadow	8	0.013328	60	10	60-180	60	106	GapExp	0	51	2	45	0	distractor	1	680	660	59540	13.328	12.892	13.806
DTProbeTrack03	15	ProbeTrackDT	1.1	SCS215a	20110121.104838	20110121.105343	dt-shadow	8	0.013328	60	10	60-180	60	159	GapExp	0	52	2	3	1	target	1	440	780	60320	13.328	12.916	13.716
DTProbeTrack03	15	ProbeTrackDT	1.1	SCS215a	20110121.104838	20110121.105349	dt-shadow	8	0.013328	60	10	60-180	60	74	GapExp	0	53	2	3	0	distractor	1	707	647	60967	13.328	12.926	13.736
DTProbeTrack03	15	ProbeTrackDT	1.1	SCS215a	20110121.104838	20110121.105354	dt-shadow	8	0.013328	60	10	60-180	60	120	GapExp	0	54	2	1	0	distractor	1	613	694	61661	13.328	12.866	13.776
DTProbeTrack03	15	ProbeTrackDT	1.1	SCS215a	20110121.104838	20110121.105400	dt-shadow	8	0.013328	60	10	60-180	60	164	GapExp	0	55	2	45	0	distractor	1	720	640	62301	13.328	13.098	13.557
DTProbeTrack03	15	ProbeTrackDT	1.1	SCS215a	20110121.104838	20110121.105407	dt-shadow	8	0.013328	60	10	60-180	60	61	GapExp	0	56	2	3	1	target	1	520	740	63041	13.328	13.093	13.552
DTProbeTrack03	15	ProbeTrackDT	1.1	SCS215a	20110121.104838	20110121.105412	dt-shadow	8	0.013328	60	10	60-180	60	149	GapExp	0	57	2	3	0	distractor	1	613	694	63735	13.328	13.107	13.551
DTProbeTrack03	15	ProbeTrackDT	1.1	SCS215a	20110121.104838	20110121.105418	dt-shadow	8	0.013328	60	10	60-180	60	97	GapExp	0	58	2	3	1	distractor	0	2506	-1000	62735	13.328	12.982	13.674
DTProbeTrack03	15	ProbeTrackDT	1.1	SCS215a	20110121.104838	20110121.105425	dt-shadow	8	0.013328	60	10	60-180	60	120	GapExp	0	59	2	45	1	target	1	520	740	63475	13.374	12.920	26.652
DTProbeTrack03	15	ProbeTrackDT	1.1	SCS215a	20110121.104838	20110121.105431	dt-shadow	8	0.013328	60	10	60-180	60	111	GapExp	0	60	2	3	0	distractor	1	667	667	64142	13.328	13.299	13.348
DTProbeTrack03	15	ProbeTrackDT	1.1	SCS215a	20110121.104838	20110121.105436	dt-shadow	8	0.013328	60	10	60-180	60	93	GapExp	0	61	2	9	1	target	1	507	747	64889	13.328	13.308	13.349
DTProbeTrack03	15	ProbeTrackDT	1.1	SCS215a	20110121.104838	20110121.105442	dt-shadow	8	0.013328	60	10	60-180	60	144	GapExp	0	62	2	6	1	distractor	0	733	-1000	63889	13.328	13.084	13.566
DTProbeTrack03	15	ProbeTrackDT	1.1	SCS215a	20110121.104838	20110121.105448	dt-shadow	8	0.013328	60	10	60-180	60	63	GapExp	0	63	2	1	0	target	0	920	-1000	62889	13.328	12.970	13.687
DTProbeTrack03	15	ProbeTrackDT	1.1	SCS215a	20110121.104838	20110121.105453	dt-shadow	8	0.013328	60	10	60-180	60	139	GapExp	0	64	2	1	0	distractor	1	787	607	63496	13.328	13.308	13.351
DTProbeTrack03	15	ProbeTrackDT	1.1	SCS215a	20110121.104838	20110121.105459	dt-shadow	8	0.013328	60	10	60-180	60	145	GapExp	0	65	2	45	0	distractor	1	587	707	64203	13.328	12.958	13.725
DTProbeTrack03	15	ProbeTrackDT	1.1	SCS215a	20110121.104838	20110121.105506	dt-shadow	8	0.013328	60	10	60-180	60	177	GapExp	0	66	2	9	1	target	1	467	767	64970	13.328	12.919	13.734
DTProbeTrack03	15	ProbeTrackDT	1.1	SCS215a	20110121.104838	20110121.105512	dt-shadow	8	0.013328	60	10	60-180	60	166	GapExp	0	67	2	6	1	target	1	454	773	65743	13.328	13.014	13.637
DTProbeTrack03	15	ProbeTrackDT	1.1	SCS215a	20110121.104838	20110121.105518	dt-shadow	8	0.013328	60	10	60-180	60	68	GapExp	0	68	2	45	1	target	1	480	760	66503	13.328	13.311	13.348
DTProbeTrack03	15	ProbeTrackDT	1.1	SCS215a	20110121.104838	20110121.105523	dt-shadow	8	0.013328	60	10	60-180	60	103	GapExp	0	69	2	45	1	target	1	454	773	67276	13.328	12.889	13.756
DTProbeTrack03	15	ProbeTrackDT	1.1	SCS215a	20110121.104838	20110121.105529	dt-shadow	8	0.013328	60	10	60-180	60	70	GapExp	0	70	2	45	0	distractor	1	614	693	67969	13.328	13.308	13.346
DTProbeTrack03	15	ProbeTrackDT	1.1	SCS215a	20110121.104838	20110121.105535	dt-shadow	8	0.013328	60	10	60-180	60	172	GapExp	0	71	2	3	0	distractor	1	547	727	68696	13.328	12.959	13.682
DTProbeTrack03	15	ProbeTrackDT	1.1	SCS215a	20110121.104838	20110121.105541	dt-shadow	8	0.013328	60	10	60-180	60	180	GapExp	0	72	2	1	1	target	1	534	733	69429	13.328	13.099	13.559
DTProbeTrack03	15	ProbeTrackDT	1.1	SCS215a	20110121.104838	20110121.105548	dt-shadow	8	0.013328	60	10	60-180	60	137	GapExp	0	73	2	9	0	target	0	627	-1000	68429	13.328	13.305	13.347
DTProbeTrack03	15	ProbeTrackDT	1.1	SCS215a	20110121.104838	20110121.105553	dt-shadow	8	0.013328	60	10	60-180	60	111	GapExp	0	74	2	6	1	target	1	733	634	69063	13.328	12.837	13.820
DTProbeTrack03	15	ProbeTrackDT	1.1	SCS215a	20110121.104838	20110121.105559	dt-shadow	8	0.013328	60	10	60-180	60	125	GapExp	0	75	2	6	1	target	1	467	767	69830	13.328	13.100	13.549
DTProbeTrack03	15	ProbeTrackDT	1.1	SCS215a	20110121.104838	20110121.105605	dt-shadow	8	0.013328	60	10	60-180	60	140	GapExp	0	76	2	3	1	target	1	481	760	70590	13.328	12.896	13.767
DTProbeTrack03	15	ProbeTrackDT	1.1	SCS215a	20110121.104838	20110121.105610	dt-shadow	8	0.013328	60	10	60-180	60	176	GapExp	0	77	2	3	0	distractor	1	613	694	71284	13.328	13.089	13.556
DTProbeTrack03	15	ProbeTrackDT	1.1	SCS215a	20110121.104838	20110121.105617	dt-shadow	8	0.013328	60	10	60-180	60	143	GapExp	0	78	2	6	0	distractor	1	667	667	71951	13.328	12.983	13.680
DTProbeTrack03	15	ProbeTrackDT	1.1	SCS215a	20110121.104838	20110121.105623	dt-shadow	8	0.013328	60	10	60-180	60	98	GapExp	0	79	2	3	1	target	1	520	740	72691	13.328	12.885	13.777
DTProbeTrack03	15	ProbeTrackDT	1.1	SCS215a	20110121.104838	20110121.105628	dt-shadow	8	0.013328	60	10	60-180	60	84	GapExp	0	80	2	45	1	target	1	494	753	73444	13.328	13.307	13.346
DTProbeTrack03	15	ProbeTrackDT	1.1	SCS215a	20110121.104838	20110121.105634	dt-shadow	8	0.013328	60	10	60-180	60	114	GapExp	0	81	2	1	0	target	0	560	-1000	72444	13.328	13.101	13.546
DTProbeTrack03	15	ProbeTrackDT	1.1	SCS215a	20110121.104838	20110121.105639	dt-shadow	8	0.013328	60	10	60-180	60	146	GapExp	0	82	2	45	0	distractor	1	494	753	73197	13.328	13.107	13.551
DTProbeTrack03	15	ProbeTrackDT	1.1	SCS215a	20110121.104838	20110121.105646	dt-shadow	8	0.013328	60	10	60-180	60	99	GapExp	0	83	2	3	1	target	1	627	687	73884	13.328	12.902	13.761
DTProbeTrack03	15	ProbeTrackDT	1.1	SCS215a	20110121.104838	20110121.105651	dt-shadow	8	0.013328	60	10	60-180	60	166	GapExp	0	84	2	9	0	distractor	1	560	720	74604	13.328	13.094	13.555
DTProbeTrack03	15	ProbeTrackDT	1.1	SCS215a	20110121.104838	20110121.105658	dt-shadow	8	0.013328	60	10	60-180	60	167	GapExp	0	85	2	1	0	target	0	600	-1000	73604	13.328	13.066	13.590
DTProbeTrack03	15	ProbeTrackDT	1.1	SCS215a	20110121.104838	20110121.105704	dt-shadow	8	0.013328	60	10	60-180	60	68	GapExp	0	86	2	9	1	target	1	773	614	74218	13.328	13.308	13.351
DTProbeTrack03	15	ProbeTrackDT	1.1	SCS215a	20110121.104838	20110121.105709	dt-shadow	8	0.013328	60	10	60-180	60	150	GapExp	0	87	2	1	0	distractor	1	653	674	74892	13.328	13.002	13.654
DTProbeTrack03	15	ProbeTrackDT	1.1	SCS215a	20110121.104838	20110121.105715	dt-shadow	8	0.013328	60	10	60-180	60	102	GapExp	0	88	2	1	0	target	0	800	-1000	73892	13.328	12.891	13.779
DTProbeTrack03	15	ProbeTrackDT	1.1	SCS215a	20110121.104838	20110121.105721	dt-shadow	8	0.013328	60	10	60-180	60	110	GapExp	0	89	2	3	1	target	1	640	680	74572	13.328	12.989	13.674
DTProbeTrack03	15	ProbeTrackDT	1.1	SCS215a	20110121.104838	20110121.105726	dt-shadow	8	0.013328	60	10	60-180	60	73	GapExp	0	90	2	9	1	target	1	480	760	75332	13.328	12.951	13.713
DTProbeTrack03	15	ProbeTrackDT	1.1	SCS215a	20110121.104838	20110121.105731	dt-shadow	8	0.013328	60	10	60-180	60	98	GapExp	0	91	2	9	1	distractor	0	920	-1000	74332	13.328	13.309	13.349
DTProbeTrack03	15	ProbeTrackDT	1.1	SCS215a	20110121.104838	20110121.105737	dt-shadow	8	0.013328	60	10	60-180	60	151	GapExp	0	92	2	45	1	target	1	494	753	75085	13.328	13.101	13.544
DTProbeTrack03	15	ProbeTrackDT	1.1	SCS215a	20110121.104838	20110121.105743	dt-shadow	8	0.013328	60	10	60-180	60	108	GapExp	0	93	2	9	0	distractor	1	773	614	75699	13.328	13.310	13.348
DTProbeTrack03	15	ProbeTrackDT	1.1	SCS215a	20110121.104838	20110121.105749	dt-shadow	8	0.013328	60	10	60-180	60	63	GapExp	0	94	2	1	1	target	1	547	727	76426	13.328	12.928	13.736
DTProbeTrack03	15	ProbeTrackDT	1.1	SCS215a	20110121.104838	20110121.105754	dt-shadow	8	0.013328	60	10	60-180	60	130	GapExp	0	95	2	9	0	target	0	627	-1000	75426	13.328	13.310	13.345
DTProbeTrack03	15	ProbeTrackDT	1.1	SCS215a	20110121.104838	20110121.105800	dt-shadow	8	0.013328	60	10	60-180	60	103	GapExp	0	96	2	3	1	target	1	507	747	76173	13.328	12.919	13.726
DTProbeTrack03	15	ProbeTrackDT	1.1	SCS215a	20110121.104838	20110121.105805	dt-shadow	8	0.013328	60	10	60-180	60	130	GapExp	0	97	2	45	0	distractor	1	534	733	76906	13.328	13.016	13.635
DTProbeTrack03	15	ProbeTrackDT	1.1	SCS215a	20110121.104838	20110121.105811	dt-shadow	8	0.013328	60	10	60-180	60	148	GapExp	0	98	2	6	0	distractor	1	640	680	77586	13.328	13.085	13.558
DTProbeTrack03	15	ProbeTrackDT	1.1	SCS215a	20110121.104838	20110121.105817	dt-shadow	8	0.013328	60	10	60-180	60	142	GapExp	0	99	2	1	0	distractor	1	680	660	78246	13.328	13.069	13.595
DTProbeTrack03	15	ProbeTrackDT	1.1	SCS215a	20110121.104838	20110121.105824	dt-shadow	8	0.013328	60	10	60-180	60	66	GapExp	0	100	2	3	1	target	1	640	680	78926	13.329	13.311	13.560
DTProbeTrack03	15	ProbeTrackDT	1.1	SCS215a	20110121.104838	20110121.105836	dt-shadow	8	0.013328	60	10	60-180	60	71	GapExp	0	101	2	6	0	distractor	1	1053	474	79400	13.328	13.308	13.346
DTProbeTrack03	15	ProbeTrackDT	1.1	SCS215a	20110121.104838	20110121.105842	dt-shadow	8	0.013328	60	10	60-180	60	114	GapExp	0	102	2	45	1	target	1	520	740	80140	13.328	12.966	13.676
DTProbeTrack03	15	ProbeTrackDT	1.1	SCS215a	20110121.104838	20110121.105848	dt-shadow	8	0.013328	60	10	60-180	60	133	GapExp	0	103	2	6	0	distractor	1	534	733	80873	13.328	12.973	13.677
DTProbeTrack03	15	ProbeTrackDT	1.1	SCS215a	20110121.104838	20110121.105854	dt-shadow	8	0.013328	60	10	60-180	60	130	GapExp	0	104	2	3	0	distractor	1	680	660	81533	13.328	12.920	13.737
DTProbeTrack03	15	ProbeTrackDT	1.1	SCS215a	20110121.104838	20110121.105900	dt-shadow	8	0.013328	60	10	60-180	60	152	GapExp	0	105	2	45	0	distractor	1	640	680	82213	13.328	12.946	13.723
DTProbeTrack03	15	ProbeTrackDT	1.1	SCS215a	20110121.104838	20110121.105906	dt-shadow	8	0.013328	60	10	60-180	60	93	GapExp	0	106	2	9	0	distractor	1	480	760	82973	13.328	13.108	13.548
DTProbeTrack03	15	ProbeTrackDT	1.1	SCS215a	20110121.104838	20110121.105912	dt-shadow	8	0.013328	60	10	60-180	60	126	GapExp	0	107	2	1	0	distractor	1	640	680	83653	13.328	12.927	13.729
DTProbeTrack03	15	ProbeTrackDT	1.1	SCS215a	20110121.104838	20110121.105917	dt-shadow	8	0.013328	60	10	60-180	60	135	GapExp	0	108	2	45	1	target	1	587	707	84360	13.328	12.890	13.780
DTProbeTrack03	15	ProbeTrackDT	1.1	SCS215a	20110121.104838	20110121.105924	dt-shadow	8	0.013328	60	10	60-180	60	123	GapExp	0	109	2	1	0	target	0	720	-1000	83360	13.329	13.076	13.627
DTProbeTrack03	15	ProbeTrackDT	1.1	SCS215a	20110121.104838	20110121.105930	dt-shadow	8	0.013328	60	10	60-180	60	120	GapExp	0	110	2	1	0	distractor	1	707	647	84007	13.328	13.086	13.572
DTProbeTrack03	15	ProbeTrackDT	1.1	SCS215a	20110121.104838	20110121.105935	dt-shadow	8	0.013328	60	10	60-180	60	92	GapExp	0	111	2	1	0	distractor	1	680	660	84667	13.328	12.882	13.774
DTProbeTrack03	15	ProbeTrackDT	1.1	SCS215a	20110121.104838	20110121.105941	dt-shadow	8	0.013328	60	10	60-180	60	149	GapExp	0	112	2	9	0	distractor	1	547	727	85394	13.328	12.879	13.770
DTProbeTrack03	15	ProbeTrackDT	1.1	SCS215a	20110121.104838	20110121.105947	dt-shadow	8	0.013328	60	10	60-180	60	67	GapExp	0	113	2	6	0	distractor	1	853	574	85968	13.327	13.146	13.348
DTProbeTrack03	15	ProbeTrackDT	1.1	SCS215a	20110121.104838	20110121.105952	dt-shadow	8	0.013328	60	10	60-180	60	163	GapExp	0	114	2	6	1	target	1	507	747	86715	13.328	13.071	13.598
DTProbeTrack03	15	ProbeTrackDT	1.1	SCS215a	20110121.104838	20110121.105958	dt-shadow	8	0.013328	60	10	60-180	60	150	GapExp	0	115	2	45	0	distractor	1	627	687	87402	13.328	13.308	13.349
DTProbeTrack03	15	ProbeTrackDT	1.1	SCS215a	20110121.104838	20110121.110005	dt-shadow	8	0.013328	60	10	60-180	60	150	GapExp	0	116	2	6	1	target	1	507	747	88149	13.328	12.970	13.687
DTProbeTrack03	15	ProbeTrackDT	1.1	SCS215a	20110121.104838	20110121.110011	dt-shadow	8	0.013328	60	10	60-180	60	109	GapExp	0	117	2	45	0	distractor	1	534	733	88882	13.328	13.105	13.541
DTProbeTrack03	15	ProbeTrackDT	1.1	SCS215a	20110121.104838	20110121.110017	dt-shadow	8	0.013328	60	10	60-180	60	153	GapExp	0	118	2	45	0	distractor	1	534	733	89615	13.328	13.113	13.549
DTProbeTrack03	15	ProbeTrackDT	1.1	SCS215a	20110121.104838	20110121.110024	dt-shadow	8	0.013328	60	10	60-180	60	82	GapExp	0	119	2	3	1	target	1	574	713	90328	13.328	13.100	13.557
DTProbeTrack03	15	ProbeTrackDT	1.1	SCS215a	20110121.104838	20110121.110029	dt-shadow	8	0.013328	60	10	60-180	60	159	GapExp	0	120	2	1	0	distractor	1	587	707	91035	13.328	13.308	13.352
DTProbeTrack03	15	ProbeTrackDT	1.1	SCS215a	20110121.104838	20110121.110035	dt-shadow	8	0.013328	60	10	60-180	60	72	GapExp	0	121	2	9	1	target	1	667	667	91702	13.328	13.308	13.347
DTProbeTrack03	15	ProbeTrackDT	1.1	SCS215a	20110121.104838	20110121.110040	dt-shadow	8	0.013328	60	10	60-180	60	64	GapExp	0	122	2	45	1	target	1	787	607	92309	13.328	13.105	13.545
DTProbeTrack03	15	ProbeTrackDT	1.1	SCS215a	20110121.104838	20110121.110046	dt-shadow	8	0.013328	60	10	60-180	60	75	GapExp	0	123	2	1	0	distractor	1	720	640	92949	13.328	13.090	13.565
DTProbeTrack03	15	ProbeTrackDT	1.1	SCS215a	20110121.104838	20110121.110051	dt-shadow	8	0.013328	60	10	60-180	60	144	GapExp	0	124	2	6	1	distractor	0	760	-1000	91949	13.328	13.091	13.557
DTProbeTrack03	15	ProbeTrackDT	1.1	SCS215a	20110121.104838	20110121.110057	dt-shadow	8	0.013328	60	10	60-180	60	137	GapExp	0	125	2	6	1	target	1	560	720	92669	13.328	13.309	13.345
DTProbeTrack03	15	ProbeTrackDT	1.1	SCS215a	20110121.104838	20110121.110103	dt-shadow	8	0.013328	60	10	60-180	60	86	GapExp	0	126	2	3	1	target	1	520	740	93409	13.328	13.242	13.419
DTProbeTrack03	15	ProbeTrackDT	1.1	SCS215a	20110121.104838	20110121.110108	dt-shadow	8	0.013328	60	10	60-180	60	101	GapExp	0	127	2	1	1	target	1	480	760	94169	13.328	13.113	13.554
DTProbeTrack03	15	ProbeTrackDT	1.1	SCS215a	20110121.104838	20110121.110113	dt-shadow	8	0.013328	60	10	60-180	60	108	GapExp	0	128	2	9	1	target	1	520	740	94909	13.328	13.106	13.555
DTProbeTrack03	15	ProbeTrackDT	1.1	SCS215a	20110121.104838	20110121.110119	dt-shadow	8	0.013328	60	10	60-180	60	66	GapExp	0	129	2	9	0	target	0	600	-1000	93909	13.328	13.308	13.349
DTProbeTrack03	15	ProbeTrackDT	1.1	SCS215a	20110121.104838	20110121.110124	dt-shadow	8	0.013328	60	10	60-180	60	104	GapExp	0	130	2	6	0	distractor	1	680	660	94569	13.328	13.311	13.352
DTProbeTrack03	15	ProbeTrackDT	1.1	SCS215a	20110121.104838	20110121.110129	dt-shadow	8	0.013328	60	10	60-180	60	120	GapExp	0	131	2	45	0	target	0	560	-1000	93569	13.328	13.304	13.347
DTProbeTrack03	15	ProbeTrackDT	1.1	SCS215a	20110121.104838	20110121.110136	dt-shadow	8	0.013328	60	10	60-180	60	150	GapExp	0	132	2	9	1	target	1	587	707	94276	13.328	13.299	13.357
DTProbeTrack03	15	ProbeTrackDT	1.1	SCS215a	20110121.104838	20110121.110142	dt-shadow	8	0.013328	60	10	60-180	60	117	GapExp	0	133	2	3	0	target	0	573	-1000	93276	13.328	13.105	13.565
DTProbeTrack03	15	ProbeTrackDT	1.1	SCS215a	20110121.104838	20110121.110147	dt-shadow	8	0.013328	60	10	60-180	60	84	GapExp	0	134	2	9	1	target	1	693	654	93930	13.328	12.940	13.703
DTProbeTrack03	15	ProbeTrackDT	1.1	SCS215a	20110121.104838	20110121.110152	dt-shadow	8	0.013328	60	10	60-180	60	94	GapExp	0	135	2	1	0	distractor	1	733	634	94564	13.328	13.308	13.348
DTProbeTrack03	15	ProbeTrackDT	1.1	SCS215a	20110121.104838	20110121.110158	dt-shadow	8	0.013328	60	10	60-180	60	173	GapExp	0	136	2	6	0	target	0	467	-1000	93564	13.328	13.292	13.362
DTProbeTrack03	15	ProbeTrackDT	1.1	SCS215a	20110121.104838	20110121.110204	dt-shadow	8	0.013328	60	10	60-180	60	70	GapExp	0	137	2	9	1	target	1	480	760	94324	13.328	13.114	13.555
DTProbeTrack03	15	ProbeTrackDT	1.1	SCS215a	20110121.104838	20110121.110209	dt-shadow	8	0.013328	60	10	60-180	60	82	GapExp	0	138	2	6	1	target	1	480	760	95084	13.328	13.309	13.348
DTProbeTrack03	15	ProbeTrackDT	1.1	SCS215a	20110121.104838	20110121.110214	dt-shadow	8	0.013328	60	10	60-180	60	115	GapExp	0	139	2	1	0	distractor	1	773	614	95698	13.328	13.310	13.348
DTProbeTrack03	15	ProbeTrackDT	1.1	SCS215a	20110121.104838	20110121.110220	dt-shadow	8	0.013328	60	10	60-180	60	83	GapExp	0	140	2	3	1	target	1	560	720	96418	13.328	13.304	13.353
DTProbeTrack03	15	ProbeTrackDT	1.1	SCS215a	20110121.104838	20110121.110225	dt-shadow	8	0.013328	60	10	60-180	60	145	GapExp	0	141	2	9	0	distractor	1	627	687	97105	13.328	13.105	13.559
DTProbeTrack03	15	ProbeTrackDT	1.1	SCS215a	20110121.104838	20110121.110231	dt-shadow	8	0.013328	60	10	60-180	60	140	GapExp	0	142	2	45	1	target	1	573	714	97819	13.328	12.950	13.705
DTProbeTrack03	15	ProbeTrackDT	1.1	SCS215a	20110121.104838	20110121.110238	dt-shadow	8	0.013328	60	10	60-180	60	175	GapExp	0	143	2	1	1	target	1	627	687	98506	13.328	12.868	13.775
DTProbeTrack03	15	ProbeTrackDT	1.1	SCS215a	20110121.104838	20110121.110244	dt-shadow	8	0.013328	60	10	60-180	60	89	GapExp	0	144	2	9	0	distractor	1	720	640	99146	13.328	13.197	13.450
DTProbeTrack03	15	ProbeTrackDT	1.1	SCS215a	20110121.104838	20110121.110249	dt-shadow	8	0.013328	60	10	60-180	60	105	GapExp	0	145	2	9	0	distractor	1	613	694	99840	13.328	13.309	13.347
DTProbeTrack03	15	ProbeTrackDT	1.1	SCS215a	20110121.104838	20110121.110255	dt-shadow	8	0.013328	60	10	60-180	60	125	GapExp	0	146	2	6	0	distractor	1	520	740	100580	13.328	13.098	13.568
DTProbeTrack03	15	ProbeTrackDT	1.1	SCS215a	20110121.104838	20110121.110301	dt-shadow	8	0.013328	60	10	60-180	60	127	GapExp	0	147	2	45	1	target	1	560	720	101300	13.328	13.288	13.351
DTProbeTrack03	15	ProbeTrackDT	1.1	SCS215a	20110121.104838	20110121.110307	dt-shadow	8	0.013328	60	10	60-180	60	72	GapExp	0	148	2	6	1	target	1	707	647	101947	13.328	13.100	13.565
DTProbeTrack03	15	ProbeTrackDT	1.1	SCS215a	20110121.104838	20110121.110312	dt-shadow	8	0.013328	60	10	60-180	60	139	GapExp	0	149	2	45	0	distractor	1	667	667	102614	13.328	12.867	13.776
DTProbeTrack03	15	ProbeTrackDT	1.1	SCS215a	20110121.104838	20110121.110319	dt-shadow	8	0.013328	60	10	60-180	60	77	GapExp	0	150	2	1	1	target	1	653	674	103288	13.328	13.109	13.557
DTProbeTrack03	15	ProbeTrackDT	1.1	SCS215a	20110121.104838	20110121.110330	dt-shadow	8	0.013328	60	10	60-180	60	174	GapExp	0	151	2	6	1	target	1	480	760	104048	13.328	13.066	13.596
DTProbeTrack03	15	ProbeTrackDT	1.1	SCS215a	20110121.104838	20110121.110337	dt-shadow	8	0.013328	60	10	60-180	60	101	GapExp	0	152	2	1	0	distractor	1	587	707	104755	13.328	13.302	13.353
DTProbeTrack03	15	ProbeTrackDT	1.1	SCS215a	20110121.104838	20110121.110342	dt-shadow	8	0.013328	60	10	60-180	60	134	GapExp	0	153	2	9	0	distractor	1	507	747	105502	13.328	12.857	13.800
DTProbeTrack03	15	ProbeTrackDT	1.1	SCS215a	20110121.104838	20110121.110348	dt-shadow	8	0.013328	60	10	60-180	60	175	GapExp	0	154	2	45	0	distractor	1	560	720	106222	13.328	13.248	13.396
DTProbeTrack03	15	ProbeTrackDT	1.1	SCS215a	20110121.104838	20110121.110355	dt-shadow	8	0.013328	60	10	60-180	60	174	GapExp	0	155	2	9	1	target	1	760	620	106842	13.328	13.086	13.572
DTProbeTrack03	15	ProbeTrackDT	1.1	SCS215a	20110121.104838	20110121.110402	dt-shadow	8	0.013328	60	10	60-180	60	111	GapExp	0	156	2	9	0	distractor	1	534	733	107575	13.328	12.892	13.772
DTProbeTrack03	15	ProbeTrackDT	1.1	SCS215a	20110121.104838	20110121.110407	dt-shadow	8	0.013328	60	10	60-180	60	125	GapExp	0	157	2	45	1	target	1	587	707	108282	13.328	13.119	13.543
DTProbeTrack03	15	ProbeTrackDT	1.1	SCS215a	20110121.104838	20110121.110413	dt-shadow	8	0.013328	60	10	60-180	60	68	GapExp	0	158	2	45	1	target	1	560	720	109002	13.328	13.306	13.349
DTProbeTrack03	15	ProbeTrackDT	1.1	SCS215a	20110121.104838	20110121.110419	dt-shadow	8	0.013328	60	10	60-180	60	152	GapExp	0	159	2	45	0	distractor	1	534	733	109735	13.328	13.306	13.350
DTProbeTrack03	15	ProbeTrackDT	1.1	SCS215a	20110121.104838	20110121.110426	dt-shadow	8	0.013328	60	10	60-180	60	123	GapExp	0	160	2	9	1	target	1	520	740	110475	13.328	13.003	13.647
DTProbeTrack03	15	ProbeTrackDT	1.1	SCS215a	20110121.104838	20110121.110431	dt-shadow	8	0.013328	60	10	60-180	60	131	GapExp	0	161	2	3	1	target	1	547	727	111202	13.328	13.248	13.404
DTProbeTrack03	15	ProbeTrackDT	1.1	SCS215a	20110121.104838	20110121.110437	dt-shadow	8	0.013328	60	10	60-180	60	68	GapExp	0	162	2	45	1	target	1	440	780	111982	13.328	13.104	13.559
DTProbeTrack03	15	ProbeTrackDT	1.1	SCS215a	20110121.104838	20110121.110442	dt-shadow	8	0.013328	60	10	60-180	60	124	GapExp	0	163	2	3	1	target	1	654	673	112655	13.328	13.100	13.562
DTProbeTrack03	15	ProbeTrackDT	1.1	SCS215a	20110121.104838	20110121.110448	dt-shadow	8	0.013328	60	10	60-180	60	142	GapExp	0	164	2	9	1	target	1	653	674	113329	13.328	13.307	13.347
DTProbeTrack03	15	ProbeTrackDT	1.1	SCS215a	20110121.104838	20110121.110454	dt-shadow	8	0.013328	60	10	60-180	60	164	GapExp	0	165	2	45	0	distractor	1	574	713	114042	13.328	13.095	13.563
DTProbeTrack03	15	ProbeTrackDT	1.1	SCS215a	20110121.104838	20110121.110501	dt-shadow	8	0.013328	60	10	60-180	60	75	GapExp	0	166	2	45	1	target	1	600	700	114742	13.328	13.296	13.358
DTProbeTrack03	15	ProbeTrackDT	1.1	SCS215a	20110121.104838	20110121.110507	dt-shadow	8	0.013328	60	10	60-180	60	74	GapExp	0	167	2	45	0	distractor	1	587	707	115449	13.328	13.308	13.355
DTProbeTrack03	15	ProbeTrackDT	1.1	SCS215a	20110121.104838	20110121.110512	dt-shadow	8	0.013328	60	10	60-180	60	107	GapExp	0	168	2	6	1	target	1	627	687	116136	13.328	12.955	13.686
DTProbeTrack03	15	ProbeTrackDT	1.1	SCS215a	20110121.104838	20110121.110518	dt-shadow	8	0.013328	60	10	60-180	60	140	GapExp	0	169	2	45	1	distractor	0	560	-1000	115136	13.328	13.105	13.569
DTProbeTrack03	15	ProbeTrackDT	1.1	SCS215a	20110121.104838	20110121.110524	dt-shadow	8	0.013328	60	10	60-180	60	107	GapExp	0	170	2	45	0	distractor	1	867	567	115703	13.328	13.099	13.557
DTProbeTrack03	15	ProbeTrackDT	1.1	SCS215a	20110121.104838	20110121.110531	dt-shadow	8	0.013328	60	10	60-180	60	130	GapExp	0	171	2	1	1	target	1	547	727	116430	13.328	13.306	13.347
DTProbeTrack03	15	ProbeTrackDT	1.1	SCS215a	20110121.104838	20110121.110536	dt-shadow	8	0.013328	60	10	60-180	60	152	GapExp	0	172	2	6	0	target	0	653	-1000	115430	13.328	13.303	13.348
DTProbeTrack03	15	ProbeTrackDT	1.1	SCS215a	20110121.104838	20110121.110542	dt-shadow	8	0.013328	60	10	60-180	60	149	GapExp	0	173	2	6	0	distractor	1	640	680	116110	13.328	12.854	13.816
DTProbeTrack03	15	ProbeTrackDT	1.1	SCS215a	20110121.104838	20110121.110549	dt-shadow	8	0.013328	60	10	60-180	60	116	GapExp	0	174	2	1	0	target	0	667	-1000	115110	13.434	12.873	26.816
DTProbeTrack03	15	ProbeTrackDT	1.1	SCS215a	20110121.104838	20110121.110554	dt-shadow	8	0.013328	60	10	60-180	60	114	GapExp	0	175	2	9	1	target	1	547	727	115837	13.328	12.981	13.662
DTProbeTrack03	15	ProbeTrackDT	1.1	SCS215a	20110121.104838	20110121.110600	dt-shadow	8	0.013328	60	10	60-180	60	120	GapExp	0	176	2	6	0	target	0	534	-1000	114837	13.328	12.888	13.769
DTProbeTrack03	15	ProbeTrackDT	1.1	SCS215a	20110121.104838	20110121.110605	dt-shadow	8	0.013328	60	10	60-180	60	87	GapExp	0	177	2	3	1	target	1	640	680	115517	13.328	13.304	13.358
DTProbeTrack03	15	ProbeTrackDT	1.1	SCS215a	20110121.104838	20110121.110611	dt-shadow	8	0.013328	60	10	60-180	60	83	GapExp	0	178	2	1	1	target	1	480	760	116277	13.328	13.309	13.349
DTProbeTrack03	15	ProbeTrackDT	1.1	SCS215a	20110121.104838	20110121.110616	dt-shadow	8	0.013328	60	10	60-180	60	118	GapExp	0	179	2	45	1	distractor	0	707	-1000	115277	13.328	12.925	13.724
DTProbeTrack03	15	ProbeTrackDT	1.1	SCS215a	20110121.104838	20110121.110622	dt-shadow	8	0.013328	60	10	60-180	60	130	GapExp	0	180	2	6	0	target	0	867	-1000	114277	13.328	13.103	13.558
DTProbeTrack03	15	ProbeTrackDT	1.1	SCS215a	20110121.104838	20110121.110628	dt-shadow	8	0.013328	60	10	60-180	60	163	GapExp	0	181	2	6	1	target	1	613	694	114971	13.328	12.935	13.717
DTProbeTrack03	15	ProbeTrackDT	1.1	SCS215a	20110121.104838	20110121.110634	dt-shadow	8	0.013328	60	10	60-180	60	74	GapExp	0	182	2	1	1	target	1	574	713	115684	13.328	13.309	13.350
DTProbeTrack03	15	ProbeTrackDT	1.1	SCS215a	20110121.104838	20110121.110639	dt-shadow	8	0.013328	60	10	60-180	60	69	GapExp	0	183	2	9	0	distractor	1	560	720	116404	13.328	13.171	13.478
DTProbeTrack03	15	ProbeTrackDT	1.1	SCS215a	20110121.104838	20110121.110644	dt-shadow	8	0.013328	60	10	60-180	60	114	GapExp	0	184	2	3	0	target	0	653	-1000	115404	13.328	12.886	13.782
DTProbeTrack03	15	ProbeTrackDT	1.1	SCS215a	20110121.104838	20110121.110650	dt-shadow	8	0.013328	60	10	60-180	60	86	GapExp	0	185	2	6	1	target	1	533	734	116138	13.328	13.099	13.556
DTProbeTrack03	15	ProbeTrackDT	1.1	SCS215a	20110121.104838	20110121.110655	dt-shadow	8	0.013328	60	10	60-180	60	93	GapExp	0	186	2	9	0	distractor	1	947	527	116665	13.328	13.018	13.640
DTProbeTrack03	15	ProbeTrackDT	1.1	SCS215a	20110121.104838	20110121.110701	dt-shadow	8	0.013328	60	10	60-180	60	139	GapExp	0	187	2	6	0	distractor	1	534	733	117398	13.328	12.863	13.770
DTProbeTrack03	15	ProbeTrackDT	1.1	SCS215a	20110121.104838	20110121.110707	dt-shadow	8	0.013328	60	10	60-180	60	173	GapExp	0	188	2	6	1	target	1	587	707	118105	13.328	13.308	13.352
DTProbeTrack03	15	ProbeTrackDT	1.1	SCS215a	20110121.104838	20110121.110713	dt-shadow	8	0.013328	60	10	60-180	60	69	GapExp	0	189	2	3	0	distractor	1	574	713	118818	13.328	12.924	13.732
DTProbeTrack03	15	ProbeTrackDT	1.1	SCS215a	20110121.104838	20110121.110718	dt-shadow	8	0.013328	60	10	60-180	60	80	GapExp	0	190	2	9	0	distractor	1	547	727	119545	13.328	13.104	13.545
DTProbeTrack03	15	ProbeTrackDT	1.1	SCS215a	20110121.104838	20110121.110724	dt-shadow	8	0.013328	60	10	60-180	60	138	GapExp	0	191	2	3	0	distractor	1	707	647	120192	13.328	13.093	13.564
DTProbeTrack03	15	ProbeTrackDT	1.1	SCS215a	20110121.104838	20110121.110730	dt-shadow	8	0.013328	60	10	60-180	60	74	GapExp	0	192	2	1	1	target	1	653	674	120866	13.328	12.867	13.796
DTProbeTrack03	15	ProbeTrackDT	1.1	SCS215a	20110121.104838	20110121.110735	dt-shadow	8	0.013328	60	10	60-180	60	136	GapExp	0	193	2	1	1	distractor	0	574	-1000	119866	13.328	12.963	13.700
DTProbeTrack03	15	ProbeTrackDT	1.1	SCS215a	20110121.104838	20110121.110741	dt-shadow	8	0.013328	60	10	60-180	60	96	GapExp	0	194	2	9	0	distractor	1	534	733	120599	13.328	13.310	13.353
DTProbeTrack03	15	ProbeTrackDT	1.1	SCS215a	20110121.104838	20110121.110746	dt-shadow	8	0.013328	60	10	60-180	60	79	GapExp	0	195	2	3	0	distractor	1	640	680	121279	13.328	12.887	13.779
DTProbeTrack03	15	ProbeTrackDT	1.1	SCS215a	20110121.104838	20110121.110751	dt-shadow	8	0.013328	60	10	60-180	60	113	GapExp	0	196	2	9	0	target	0	560	-1000	120279	13.328	13.106	13.552
DTProbeTrack03	15	ProbeTrackDT	1.1	SCS215a	20110121.104838	20110121.110757	dt-shadow	8	0.013328	60	10	60-180	60	83	GapExp	0	197	2	6	0	distractor	1	680	660	120939	13.328	13.307	13.350
DTProbeTrack03	15	ProbeTrackDT	1.1	SCS215a	20110121.104838	20110121.110802	dt-shadow	8	0.013328	60	10	60-180	60	100	GapExp	0	198	2	45	1	target	1	534	733	121672	13.328	13.310	13.346
DTProbeTrack03	15	ProbeTrackDT	1.1	SCS215a	20110121.104838	20110121.110808	dt-shadow	8	0.013328	60	10	60-180	60	97	GapExp	0	199	2	3	0	distractor	1	680	660	122332	13.328	12.905	13.743
DTProbeTrack03	15	ProbeTrackDT	1.1	SCS215a	20110121.104838	20110121.110814	dt-shadow	8	0.013328	60	10	60-180	60	152	GapExp	0	200	2	3	0	distractor	1	494	753	123085	13.328	13.177	13.473
DTProbeTrack03	15	ProbeTrackDT	1.1	SCS215a	20110121.104838	20110121.110849	dt-shadow	8	0.013328	60	10	60-180	60	150	GapExp	0	201	2	1	1	target	1	440	780	123865	13.328	13.307	13.350
DTProbeTrack03	15	ProbeTrackDT	1.1	SCS215a	20110121.104838	20110121.110854	dt-shadow	8	0.013328	60	10	60-180	60	91	GapExp	0	202	2	1	1	target	1	440	780	124645	13.328	13.109	13.547
DTProbeTrack03	15	ProbeTrackDT	1.1	SCS215a	20110121.104838	20110121.110859	dt-shadow	8	0.013328	60	10	60-180	60	173	GapExp	0	203	2	1	1	target	1	507	747	125392	13.328	13.094	13.700
DTProbeTrack03	15	ProbeTrackDT	1.1	SCS215a	20110121.104838	20110121.110906	dt-shadow	8	0.013328	60	10	60-180	60	178	GapExp	0	204	2	6	0	target	0	494	-1000	124392	13.328	12.842	13.800
DTProbeTrack03	15	ProbeTrackDT	1.1	SCS215a	20110121.104838	20110121.110912	dt-shadow	8	0.013328	60	10	60-180	60	148	GapExp	0	205	2	6	0	distractor	1	613	694	125086	13.328	12.952	13.706
DTProbeTrack03	15	ProbeTrackDT	1.1	SCS215a	20110121.111009	20110121.111013	single-task	8	0.013327	60	10	60-180	60	163	GapPrac	1	1	2	3	0	target	0	440	-1000	124086	13.374	12.882	27.145
DTProbeTrack03	15	ProbeTrackDT	1.1	SCS215a	20110121.111009	20110121.111020	single-task	8	0.013327	60	10	60-180	60	150	GapPrac	1	2	2	45	1	target	1	760	620	124706	13.328	12.918	13.750
DTProbeTrack03	15	ProbeTrackDT	1.1	SCS215a	20110121.111009	20110121.111026	single-task	8	0.013327	60	10	60-180	60	92	GapPrac	1	3	2	3	1	target	1	480	760	125466	13.328	13.299	13.356
DTProbeTrack03	15	ProbeTrackDT	1.1	SCS215a	20110121.111009	20110121.111031	single-task	8	0.013327	60	10	60-180	60	102	GapPrac	1	4	2	6	1	target	1	454	773	126239	13.328	13.075	13.574
DTProbeTrack03	15	ProbeTrackDT	1.1	SCS215a	20110121.111009	20110121.111037	single-task	8	0.013327	60	10	60-180	60	63	GapPrac	1	5	2	3	0	target	0	574	-1000	125239	13.328	12.909	13.751
DTProbeTrack03	15	ProbeTrackDT	1.1	SCS215a	20110121.111009	20110121.111041	single-task	8	0.013327	60	10	60-180	60	88	GapPrac	1	6	2	6	0	distractor	1	534	733	125972	13.328	12.865	13.798
DTProbeTrack03	15	ProbeTrackDT	1.1	SCS215a	20110121.111009	20110121.111047	single-task	8	0.013327	60	10	60-180	60	131	GapPrac	1	7	2	9	1	target	1	427	787	126759	13.328	12.857	13.818
DTProbeTrack03	15	ProbeTrackDT	1.1	SCS215a	20110121.111009	20110121.111052	single-task	8	0.013327	60	10	60-180	60	129	GapPrac	1	8	2	9	0	distractor	1	547	727	127486	13.328	13.069	13.679
DTProbeTrack03	15	ProbeTrackDT	1.1	SCS215a	20110121.111009	20110121.111058	single-task	8	0.013327	60	10	60-180	60	163	GapPrac	1	9	2	3	1	target	1	573	714	128200	13.328	12.852	13.799
DTProbeTrack03	15	ProbeTrackDT	1.1	SCS215a	20110121.111009	20110121.111104	single-task	8	0.013327	60	10	60-180	60	136	GapPrac	1	10	2	45	0	target	0	667	-1000	127200	13.327	13.118	13.357
DTProbeTrack03	15	ProbeTrackDT	1.1	SCS215a	20110121.111009	20110121.111111	single-task	8	0.013327	60	10	60-180	60	89	GapPrac	1	11	2	1	0	distractor	1	827	587	127787	13.328	12.984	13.666
DTProbeTrack03	15	ProbeTrackDT	1.1	SCS215a	20110121.111009	20110121.111116	single-task	8	0.013327	60	10	60-180	60	139	GapPrac	1	12	2	1	1	target	1	520	740	128527	13.328	12.880	13.785
DTProbeTrack03	15	ProbeTrackDT	1.1	SCS215a	20110121.111009	20110121.111122	single-task	8	0.013327	60	10	60-180	60	149	GapPrac	1	13	2	1	1	target	1	427	787	129314	13.328	12.946	13.712
DTProbeTrack03	15	ProbeTrackDT	1.1	SCS215a	20110121.111009	20110121.111128	single-task	8	0.013327	60	10	60-180	60	144	GapPrac	1	14	2	6	1	target	1	494	753	130067	13.328	12.849	13.809
DTProbeTrack03	15	ProbeTrackDT	1.1	SCS215a	20110121.111009	20110121.111134	single-task	8	0.013327	60	10	60-180	60	135	GapPrac	1	15	2	9	1	target	1	640	680	130747	13.328	13.265	13.403
DTProbeTrack03	15	ProbeTrackDT	1.1	SCS215a	20110121.111009	20110121.111140	single-task	8	0.013327	60	10	60-180	60	151	GapPrac	1	16	2	1	0	distractor	1	667	667	131414	13.328	13.255	13.411
DTProbeTrack03	15	ProbeTrackDT	1.1	SCS215a	20110121.111009	20110121.111146	single-task	8	0.013327	60	10	60-180	60	112	GapPrac	1	17	2	45	0	distractor	1	534	733	132147	13.328	13.302	13.350
DTProbeTrack03	15	ProbeTrackDT	1.1	SCS215a	20110121.111009	20110121.111152	single-task	8	0.013327	60	10	60-180	60	102	GapPrac	1	18	2	6	0	distractor	1	467	767	132914	13.328	13.111	13.554
DTProbeTrack03	15	ProbeTrackDT	1.1	SCS215a	20110121.111009	20110121.111157	single-task	8	0.013327	60	10	60-180	60	72	GapPrac	1	19	2	9	0	distractor	1	480	760	133674	13.328	13.094	13.556
DTProbeTrack03	15	ProbeTrackDT	1.1	SCS215a	20110121.111009	20110121.111202	single-task	8	0.013327	60	10	60-180	60	103	GapPrac	1	20	2	45	1	target	1	520	740	134414	13.328	12.945	13.712
DTProbeTrack03	15	ProbeTrackDT	1.1	SCS215a	20110121.111241	20110121.111247	single-task	8	0.013328	60	10	60-180	60	99	GapExp	1	1	2	3	1	target	1	494	753	135167	13.328	13.097	13.552
DTProbeTrack03	15	ProbeTrackDT	1.1	SCS215a	20110121.111241	20110121.111252	single-task	8	0.013328	60	10	60-180	60	154	GapExp	1	2	2	9	0	distractor	1	534	733	135900	13.328	13.105	13.562
DTProbeTrack03	15	ProbeTrackDT	1.1	SCS215a	20110121.111241	20110121.111258	single-task	8	0.013328	60	10	60-180	60	151	GapExp	1	3	2	9	1	target	1	694	653	136553	13.328	12.870	13.790
DTProbeTrack03	15	ProbeTrackDT	1.1	SCS215a	20110121.111241	20110121.111304	single-task	8	0.013328	60	10	60-180	60	153	GapExp	1	4	2	6	0	distractor	1	573	714	137267	13.328	12.989	13.669
DTProbeTrack03	15	ProbeTrackDT	1.1	SCS215a	20110121.111241	20110121.111310	single-task	8	0.013328	60	10	60-180	60	104	GapExp	1	5	2	1	1	target	1	400	800	138067	13.328	12.861	13.781
DTProbeTrack03	15	ProbeTrackDT	1.1	SCS215a	20110121.111241	20110121.111316	single-task	8	0.013328	60	10	60-180	60	64	GapExp	0	6	2	6	0	distractor	1	467	767	138834	13.328	13.309	13.347
DTProbeTrack03	15	ProbeTrackDT	1.1	SCS215a	20110121.111241	20110121.111320	single-task	8	0.013328	60	10	60-180	60	133	GapExp	0	7	2	3	0	distractor	1	440	780	139614	13.328	13.100	13.549
DTProbeTrack03	15	ProbeTrackDT	1.1	SCS215a	20110121.111241	20110121.111326	single-task	8	0.013328	60	10	60-180	60	154	GapExp	0	8	2	9	0	distractor	1	480	760	140374	13.328	13.307	13.351
DTProbeTrack03	15	ProbeTrackDT	1.1	SCS215a	20110121.111241	20110121.111332	single-task	8	0.013328	60	10	60-180	60	127	GapExp	0	9	2	6	1	distractor	0	627	-1000	139374	13.328	12.967	13.687
DTProbeTrack03	15	ProbeTrackDT	1.1	SCS215a	20110121.111241	20110121.111338	single-task	8	0.013328	60	10	60-180	60	144	GapExp	0	10	2	9	1	target	1	467	767	140141	13.328	12.947	13.814
DTProbeTrack03	15	ProbeTrackDT	1.1	SCS215a	20110121.111241	20110121.111344	single-task	8	0.013328	60	10	60-180	60	75	GapExp	0	11	2	9	1	target	1	573	714	140855	13.327	12.975	13.669
DTProbeTrack03	15	ProbeTrackDT	1.1	SCS215a	20110121.111241	20110121.111349	single-task	8	0.013328	60	10	60-180	60	109	GapExp	0	12	2	1	0	target	0	520	-1000	139855	13.328	13.295	13.357
DTProbeTrack03	15	ProbeTrackDT	1.1	SCS215a	20110121.111241	20110121.111355	single-task	8	0.013328	60	10	60-180	60	70	GapExp	0	13	2	9	1	target	1	494	753	140608	13.328	13.302	13.361
DTProbeTrack03	15	ProbeTrackDT	1.1	SCS215a	20110121.111241	20110121.111400	single-task	8	0.013328	60	10	60-180	60	82	GapExp	0	14	2	6	0	distractor	1	574	713	141321	13.328	12.853	13.799
DTProbeTrack03	15	ProbeTrackDT	1.1	SCS215a	20110121.111241	20110121.111405	single-task	8	0.013328	60	10	60-180	60	66	GapExp	0	15	2	6	1	target	1	880	560	141881	13.328	13.094	13.549
DTProbeTrack03	15	ProbeTrackDT	1.1	SCS215a	20110121.111241	20110121.111410	single-task	8	0.013328	60	10	60-180	60	88	GapExp	0	16	2	1	1	target	1	587	707	142588	13.328	12.851	13.792
DTProbeTrack03	15	ProbeTrackDT	1.1	SCS215a	20110121.111241	20110121.111415	single-task	8	0.013328	60	10	60-180	60	129	GapExp	0	17	2	45	0	distractor	1	613	694	143282	13.328	13.104	13.552
DTProbeTrack03	15	ProbeTrackDT	1.1	SCS215a	20110121.111241	20110121.111422	single-task	8	0.013328	60	10	60-180	60	159	GapExp	0	18	2	45	0	distractor	1	600	700	143982	13.328	12.963	13.707
DTProbeTrack03	15	ProbeTrackDT	1.1	SCS215a	20110121.111241	20110121.111428	single-task	8	0.013328	60	10	60-180	60	165	GapExp	0	19	2	9	0	target	0	547	-1000	142982	13.416	13.293	26.688
DTProbeTrack03	15	ProbeTrackDT	1.1	SCS215a	20110121.111241	20110121.111435	single-task	8	0.013328	60	10	60-180	60	67	GapExp	0	20	2	45	0	distractor	1	627	687	143669	13.328	13.262	13.393
DTProbeTrack03	15	ProbeTrackDT	1.1	SCS215a	20110121.111241	20110121.111440	single-task	8	0.013328	60	10	60-180	60	61	GapExp	0	21	2	6	1	target	1	480	760	144429	13.328	13.305	13.353
DTProbeTrack03	15	ProbeTrackDT	1.1	SCS215a	20110121.111241	20110121.111445	single-task	8	0.013328	60	10	60-180	60	65	GapExp	0	22	2	3	0	distractor	1	867	567	144996	13.328	13.108	13.550
DTProbeTrack03	15	ProbeTrackDT	1.1	SCS215a	20110121.111241	20110121.111450	single-task	8	0.013328	60	10	60-180	60	136	GapExp	0	23	2	3	1	target	1	454	773	145769	13.328	13.304	13.344
DTProbeTrack03	15	ProbeTrackDT	1.1	SCS215a	20110121.111241	20110121.111456	single-task	8	0.013328	60	10	60-180	60	127	GapExp	0	24	2	3	0	target	0	467	-1000	144769	13.328	12.899	13.753
DTProbeTrack03	15	ProbeTrackDT	1.1	SCS215a	20110121.111241	20110121.111502	single-task	8	0.013328	60	10	60-180	60	151	GapExp	0	25	2	3	1	target	1	494	753	145522	13.328	13.308	13.347
DTProbeTrack03	15	ProbeTrackDT	1.1	SCS215a	20110121.111241	20110121.111508	single-task	8	0.013328	60	10	60-180	60	149	GapExp	0	26	2	6	1	target	1	454	773	146295	13.328	13.099	13.549
DTProbeTrack03	15	ProbeTrackDT	1.1	SCS215a	20110121.111241	20110121.111513	single-task	8	0.013328	60	10	60-180	60	157	GapExp	0	27	2	6	0	distractor	1	547	727	147022	13.328	12.932	13.720
DTProbeTrack03	15	ProbeTrackDT	1.1	SCS215a	20110121.111241	20110121.111520	single-task	8	0.013328	60	10	60-180	60	96	GapExp	0	28	2	3	0	distractor	1	440	780	147802	13.509	12.868	40.049
DTProbeTrack03	15	ProbeTrackDT	1.1	SCS215a	20110121.111241	20110121.111525	single-task	8	0.013328	60	10	60-180	60	121	GapExp	0	29	2	6	1	target	1	467	767	148569	13.328	12.910	13.741
DTProbeTrack03	15	ProbeTrackDT	1.1	SCS215a	20110121.111241	20110121.111530	single-task	8	0.013328	60	10	60-180	60	80	GapExp	0	30	2	6	0	distractor	1	653	674	149243	13.328	13.289	13.362
DTProbeTrack03	15	ProbeTrackDT	1.1	SCS215a	20110121.111241	20110121.111536	single-task	8	0.013328	60	10	60-180	60	133	GapExp	0	31	2	6	0	distractor	1	467	767	150010	13.328	13.103	13.535
DTProbeTrack03	15	ProbeTrackDT	1.1	SCS215a	20110121.111241	20110121.111541	single-task	8	0.013328	60	10	60-180	60	82	GapExp	0	32	2	6	0	target	0	693	-1000	149010	13.328	13.104	13.550
DTProbeTrack03	15	ProbeTrackDT	1.1	SCS215a	20110121.111241	20110121.111547	single-task	8	0.013328	60	10	60-180	60	157	GapExp	0	33	2	3	0	distractor	1	574	713	149723	13.328	13.087	13.552
DTProbeTrack03	15	ProbeTrackDT	1.1	SCS215a	20110121.111241	20110121.111553	single-task	8	0.013328	60	10	60-180	60	174	GapExp	0	34	2	45	0	target	0	680	-1000	148723	13.328	13.118	13.544
DTProbeTrack03	15	ProbeTrackDT	1.1	SCS215a	20110121.111241	20110121.111600	single-task	8	0.013328	60	10	60-180	60	128	GapExp	0	35	2	45	1	distractor	0	613	-1000	147723	13.328	12.852	13.801
DTProbeTrack03	15	ProbeTrackDT	1.1	SCS215a	20110121.111241	20110121.111606	single-task	8	0.013328	60	10	60-180	60	166	GapExp	0	36	2	1	0	target	0	707	-1000	146723	13.328	13.307	13.352
DTProbeTrack03	15	ProbeTrackDT	1.1	SCS215a	20110121.111241	20110121.111613	single-task	8	0.013328	60	10	60-180	60	175	GapExp	0	37	2	9	1	target	1	600	700	147423	13.328	13.111	13.544
DTProbeTrack03	15	ProbeTrackDT	1.1	SCS215a	20110121.111241	20110121.111619	single-task	8	0.013328	60	10	60-180	60	150	GapExp	0	38	2	6	1	target	1	494	753	148176	13.328	12.981	13.677
DTProbeTrack03	15	ProbeTrackDT	1.1	SCS215a	20110121.111241	20110121.111625	single-task	8	0.013328	60	10	60-180	60	73	GapExp	0	39	2	3	1	target	1	494	753	148929	13.328	13.102	13.540
DTProbeTrack03	15	ProbeTrackDT	1.1	SCS215a	20110121.111241	20110121.111630	single-task	8	0.013328	60	10	60-180	60	104	GapExp	0	40	2	1	1	target	1	600	700	149629	13.328	13.108	13.555
DTProbeTrack03	15	ProbeTrackDT	1.1	SCS215a	20110121.111241	20110121.111635	single-task	8	0.013328	60	10	60-180	60	82	GapExp	0	41	2	9	1	target	1	560	720	150349	13.328	13.298	13.360
DTProbeTrack03	15	ProbeTrackDT	1.1	SCS215a	20110121.111241	20110121.111640	single-task	8	0.013328	60	10	60-180	60	71	GapExp	0	42	2	1	0	target	0	587	-1000	149349	13.328	13.263	13.383
DTProbeTrack03	15	ProbeTrackDT	1.1	SCS215a	20110121.111241	20110121.111645	single-task	8	0.013328	60	10	60-180	60	61	GapExp	0	43	2	45	1	target	1	494	753	150102	13.328	13.090	13.560
DTProbeTrack03	15	ProbeTrackDT	1.1	SCS215a	20110121.111241	20110121.111651	single-task	8	0.013328	60	10	60-180	60	108	GapExp	0	44	2	45	0	distractor	1	627	687	150789	13.328	13.106	13.552
DTProbeTrack03	15	ProbeTrackDT	1.1	SCS215a	20110121.111241	20110121.111657	single-task	8	0.013328	60	10	60-180	60	164	GapExp	0	45	2	1	0	target	0	520	-1000	149789	13.328	13.099	13.564
DTProbeTrack03	15	ProbeTrackDT	1.1	SCS215a	20110121.111241	20110121.111703	single-task	8	0.013328	60	10	60-180	60	89	GapExp	0	46	2	3	0	distractor	1	640	680	150469	13.328	13.019	13.637
DTProbeTrack03	15	ProbeTrackDT	1.1	SCS215a	20110121.111241	20110121.111708	single-task	8	0.013328	60	10	60-180	60	125	GapExp	0	47	2	6	1	target	1	400	800	151269	13.328	13.295	13.352
DTProbeTrack03	15	ProbeTrackDT	1.1	SCS215a	20110121.111241	20110121.111714	single-task	8	0.013328	60	10	60-180	60	82	GapExp	0	48	2	3	0	distractor	1	720	640	151909	13.328	13.082	13.560
DTProbeTrack03	15	ProbeTrackDT	1.1	SCS215a	20110121.111241	20110121.111719	single-task	8	0.013328	60	10	60-180	60	140	GapExp	0	49	2	9	0	distractor	1	680	660	152569	13.328	13.092	13.564
DTProbeTrack03	15	ProbeTrackDT	1.1	SCS215a	20110121.111241	20110121.111725	single-task	8	0.013328	60	10	60-180	60	147	GapExp	0	50	2	6	0	distractor	1	693	654	153223	13.328	13.105	13.536
DTProbeTrack03	15	ProbeTrackDT	1.1	SCS215a	20110121.111241	20110121.111739	single-task	8	0.013328	60	10	60-180	60	170	GapExp	0	51	2	1	1	target	1	467	767	153990	13.328	12.869	13.808
DTProbeTrack03	15	ProbeTrackDT	1.1	SCS215a	20110121.111241	20110121.111746	single-task	8	0.013328	60	10	60-180	60	102	GapExp	0	52	2	3	1	target	1	467	767	154757	13.328	13.309	13.348
DTProbeTrack03	15	ProbeTrackDT	1.1	SCS215a	20110121.111241	20110121.111751	single-task	8	0.013328	60	10	60-180	60	69	GapExp	0	53	2	9	0	distractor	1	614	693	155450	13.328	13.308	13.347
DTProbeTrack03	15	ProbeTrackDT	1.1	SCS215a	20110121.111241	20110121.111756	single-task	8	0.013328	60	10	60-180	60	62	GapExp	0	54	2	1	1	target	1	720	640	156090	13.328	13.107	13.564
DTProbeTrack03	15	ProbeTrackDT	1.1	SCS215a	20110121.111241	20110121.111801	single-task	8	0.013328	60	10	60-180	60	168	GapExp	0	55	2	45	0	distractor	1	667	667	156757	13.328	13.087	13.558
DTProbeTrack03	15	ProbeTrackDT	1.1	SCS215a	20110121.111241	20110121.111808	single-task	8	0.013328	60	10	60-180	60	61	GapExp	0	56	2	9	0	distractor	1	600	700	157457	13.328	13.108	13.548
DTProbeTrack03	15	ProbeTrackDT	1.1	SCS215a	20110121.111241	20110121.111813	single-task	8	0.013328	60	10	60-180	60	173	GapExp	0	57	2	1	0	distractor	1	480	760	158217	13.328	13.307	13.347
DTProbeTrack03	15	ProbeTrackDT	1.1	SCS215a	20110121.111241	20110121.111819	single-task	8	0.013328	60	10	60-180	60	107	GapExp	0	58	2	3	1	target	1	613	694	158911	13.328	13.294	13.351
DTProbeTrack03	15	ProbeTrackDT	1.1	SCS215a	20110121.111241	20110121.111825	single-task	8	0.013328	60	10	60-180	60	151	GapExp	0	59	2	9	1	target	1	627	687	159598	13.328	13.225	13.424
DTProbeTrack03	15	ProbeTrackDT	1.1	SCS215a	20110121.111241	20110121.111831	single-task	8	0.013328	60	10	60-180	60	140	GapExp	0	60	2	1	0	distractor	1	1000	500	160098	13.328	13.093	13.564
DTProbeTrack03	15	ProbeTrackDT	1.1	SCS215a	20110121.111241	20110121.111837	single-task	8	0.013328	60	10	60-180	60	100	GapExp	0	61	2	9	1	target	1	400	800	160898	13.328	13.089	13.560
DTProbeTrack03	15	ProbeTrackDT	1.1	SCS215a	20110121.111241	20110121.111842	single-task	8	0.013328	60	10	60-180	60	168	GapExp	0	62	2	1	0	distractor	1	347	827	161725	13.328	13.098	13.561
DTProbeTrack03	15	ProbeTrackDT	1.1	SCS215a	20110121.111241	20110121.111848	single-task	8	0.013328	60	10	60-180	60	176	GapExp	0	63	2	3	1	target	1	588	706	162431	13.328	12.863	13.795
DTProbeTrack03	15	ProbeTrackDT	1.1	SCS215a	20110121.111241	20110121.111855	single-task	8	0.013328	60	10	60-180	60	96	GapExp	0	64	2	1	1	target	1	467	767	163198	13.328	13.302	13.356
DTProbeTrack03	15	ProbeTrackDT	1.1	SCS215a	20110121.111241	20110121.111900	single-task	8	0.013328	60	10	60-180	60	62	GapExp	0	65	2	6	0	distractor	1	693	654	163852	13.328	13.309	13.346
DTProbeTrack03	15	ProbeTrackDT	1.1	SCS215a	20110121.111241	20110121.111905	single-task	8	0.013328	60	10	60-180	60	137	GapExp	0	66	2	45	1	distractor	0	480	-1000	162852	13.328	13.099	13.571
DTProbeTrack03	15	ProbeTrackDT	1.1	SCS215a	20110121.111241	20110121.111911	single-task	8	0.013328	60	10	60-180	60	120	GapExp	0	67	2	45	1	target	1	520	740	163592	13.328	12.851	13.842
DTProbeTrack03	15	ProbeTrackDT	1.1	SCS215a	20110121.111241	20110121.111917	single-task	8	0.013328	60	10	60-180	60	160	GapExp	0	68	2	45	0	target	0	520	-1000	162592	13.328	13.077	13.571
DTProbeTrack03	15	ProbeTrackDT	1.1	SCS215a	20110121.111241	20110121.111924	single-task	8	0.013328	60	10	60-180	60	109	GapExp	0	69	2	6	1	target	1	574	713	163305	13.328	13.125	13.525
DTProbeTrack03	15	ProbeTrackDT	1.1	SCS215a	20110121.111241	20110121.111929	single-task	8	0.013328	60	10	60-180	60	77	GapExp	0	70	2	45	1	target	1	587	707	164012	13.328	13.304	13.348
DTProbeTrack03	15	ProbeTrackDT	1.1	SCS215a	20110121.111241	20110121.111935	single-task	8	0.013328	60	10	60-180	60	94	GapExp	0	71	2	3	0	distractor	1	653	674	164686	13.328	13.308	13.345
DTProbeTrack03	15	ProbeTrackDT	1.1	SCS215a	20110121.111241	20110121.111940	single-task	8	0.013328	60	10	60-180	60	142	GapExp	0	72	2	9	0	distractor	1	653	674	165360	13.328	13.105	13.557
DTProbeTrack03	15	ProbeTrackDT	1.1	SCS215a	20110121.111241	20110121.111946	single-task	8	0.013328	60	10	60-180	60	106	GapExp	0	73	2	45	1	target	1	467	767	166127	13.328	13.101	13.567
DTProbeTrack03	15	ProbeTrackDT	1.1	SCS215a	20110121.111241	20110121.111952	single-task	8	0.013328	60	10	60-180	60	83	GapExp	0	74	2	1	0	distractor	1	827	587	166714	13.328	13.310	13.351
DTProbeTrack03	15	ProbeTrackDT	1.1	SCS215a	20110121.111241	20110121.111958	single-task	8	0.013328	60	10	60-180	60	179	GapExp	0	75	2	3	0	distractor	1	534	733	167447	13.328	13.309	13.347
DTProbeTrack03	15	ProbeTrackDT	1.1	SCS215a	20110121.111241	20110121.112004	single-task	8	0.013328	60	10	60-180	60	105	GapExp	0	76	2	1	1	target	1	480	760	168207	13.328	13.308	13.348
DTProbeTrack03	15	ProbeTrackDT	1.1	SCS215a	20110121.111241	20110121.112009	single-task	8	0.013328	60	10	60-180	60	82	GapExp	0	77	2	45	0	distractor	1	613	694	168901	13.328	12.875	13.774
DTProbeTrack03	15	ProbeTrackDT	1.1	SCS215a	20110121.111241	20110121.112015	single-task	8	0.013328	60	10	60-180	60	107	GapExp	0	78	2	9	1	target	1	560	720	169621	13.328	13.107	13.556
DTProbeTrack03	15	ProbeTrackDT	1.1	SCS215a	20110121.111241	20110121.112020	single-task	8	0.013328	60	10	60-180	60	131	GapExp	0	79	2	6	1	target	1	427	787	170408	13.328	13.100	13.543
DTProbeTrack03	15	ProbeTrackDT	1.1	SCS215a	20110121.111241	20110121.112026	single-task	8	0.013328	60	10	60-180	60	115	GapExp	0	80	2	1	0	distractor	1	627	687	171095	13.328	13.094	13.570
DTProbeTrack03	15	ProbeTrackDT	1.1	SCS215a	20110121.111241	20110121.112032	single-task	8	0.013328	60	10	60-180	60	164	GapExp	0	81	2	6	0	distractor	1	1120	440	171535	13.328	13.305	13.348
DTProbeTrack03	15	ProbeTrackDT	1.1	SCS215a	20110121.111241	20110121.112038	single-task	8	0.013328	60	10	60-180	60	80	GapExp	0	82	2	9	0	distractor	1	1626	187	171722	13.328	13.307	13.356
DTProbeTrack03	15	ProbeTrackDT	1.1	SCS215a	20110121.111241	20110121.112045	single-task	8	0.013328	60	10	60-180	60	103	GapExp	0	83	2	1	0	distractor	1	640	680	172402	13.328	13.303	13.353
DTProbeTrack03	15	ProbeTrackDT	1.1	SCS215a	20110121.111241	20110121.112050	single-task	8	0.013328	60	10	60-180	60	73	GapExp	0	84	2	3	1	distractor	0	414	-1000	171402	13.328	13.104	13.546
DTProbeTrack03	15	ProbeTrackDT	1.1	SCS215a	20110121.111241	20110121.112055	single-task	8	0.013328	60	10	60-180	60	153	GapExp	0	85	2	9	0	distractor	1	560	720	172122	13.328	13.105	13.559
DTProbeTrack03	15	ProbeTrackDT	1.1	SCS215a	20110121.111241	20110121.112101	single-task	8	0.013328	60	10	60-180	60	102	GapExp	0	86	2	3	1	target	1	507	747	172869	13.328	13.309	13.349
DTProbeTrack03	15	ProbeTrackDT	1.1	SCS215a	20110121.111241	20110121.112106	single-task	8	0.013328	60	10	60-180	60	71	GapExp	0	87	2	6	1	target	1	520	740	173609	13.328	13.303	13.353
DTProbeTrack03	15	ProbeTrackDT	1.1	SCS215a	20110121.111241	20110121.112111	single-task	8	0.013328	60	10	60-180	60	114	GapExp	0	88	2	3	1	target	1	534	733	174342	13.328	13.099	13.565
DTProbeTrack03	15	ProbeTrackDT	1.1	SCS215a	20110121.111241	20110121.112117	single-task	8	0.013328	60	10	60-180	60	93	GapExp	0	89	2	3	0	target	0	787	-1000	173342	13.328	13.110	13.555
DTProbeTrack03	15	ProbeTrackDT	1.1	SCS215a	20110121.111241	20110121.112122	single-task	8	0.013328	60	10	60-180	60	107	GapExp	0	90	2	6	0	distractor	1	680	660	174002	13.328	12.865	13.786
DTProbeTrack03	15	ProbeTrackDT	1.1	SCS215a	20110121.111241	20110121.112128	single-task	8	0.013328	60	10	60-180	60	131	GapExp	0	91	2	45	0	distractor	1	574	713	174715	13.328	12.849	13.801
DTProbeTrack03	15	ProbeTrackDT	1.1	SCS215a	20110121.111241	20110121.112134	single-task	8	0.013328	60	10	60-180	60	118	GapExp	0	92	2	45	1	distractor	0	640	-1000	173715	13.328	13.309	13.346
DTProbeTrack03	15	ProbeTrackDT	1.1	SCS215a	20110121.111241	20110121.112140	single-task	8	0.013328	60	10	60-180	60	123	GapExp	0	93	2	6	0	distractor	1	507	747	174462	13.328	13.304	13.356
DTProbeTrack03	15	ProbeTrackDT	1.1	SCS215a	20110121.111241	20110121.112146	single-task	8	0.013328	60	10	60-180	60	79	GapExp	0	94	2	1	1	target	1	534	733	175195	13.328	13.097	13.568
DTProbeTrack03	15	ProbeTrackDT	1.1	SCS215a	20110121.111241	20110121.112151	single-task	8	0.013328	60	10	60-180	60	123	GapExp	0	95	2	9	1	target	1	507	747	175942	13.328	13.086	13.570
DTProbeTrack03	15	ProbeTrackDT	1.1	SCS215a	20110121.111241	20110121.112157	single-task	8	0.013328	60	10	60-180	60	72	GapExp	0	96	2	6	0	distractor	1	800	600	176542	13.328	13.298	13.353
DTProbeTrack03	15	ProbeTrackDT	1.1	SCS215a	20110121.111241	20110121.112202	single-task	8	0.013328	60	10	60-180	60	180	GapExp	0	97	2	9	1	target	1	614	693	177235	13.328	13.308	13.351
DTProbeTrack03	15	ProbeTrackDT	1.1	SCS215a	20110121.111241	20110121.112208	single-task	8	0.013328	60	10	60-180	60	131	GapExp	0	98	2	9	0	distractor	1	534	733	177968	13.328	13.309	13.345
DTProbeTrack03	15	ProbeTrackDT	1.1	SCS215a	20110121.111241	20110121.112214	single-task	8	0.013328	60	10	60-180	60	162	GapExp	0	99	2	45	0	distractor	1	947	527	178495	13.328	13.000	13.652
DTProbeTrack03	15	ProbeTrackDT	1.1	SCS215a	20110121.111241	20110121.112221	single-task	8	0.013328	60	10	60-180	60	84	GapExp	0	100	2	45	0	distractor	1	573	714	179209	13.328	13.102	13.557
DTProbeTrack03	15	ProbeTrackDT	1.1	SCS215a	20110121.111241	20110121.112240	single-task	8	0.013328	60	10	60-180	60	140	GapExp	0	101	2	1	1	target	1	520	740	179949	13.328	12.916	13.730
DTProbeTrack03	15	ProbeTrackDT	1.1	SCS215a	20110121.111241	20110121.112246	single-task	8	0.013328	60	10	60-180	60	117	GapExp	0	102	2	1	0	distractor	1	760	620	180569	13.328	13.308	13.351
DTProbeTrack03	15	ProbeTrackDT	1.1	SCS215a	20110121.111241	20110121.112251	single-task	8	0.013328	60	10	60-180	60	130	GapExp	0	103	2	45	0	distractor	1	693	654	181223	13.328	13.302	13.348
DTProbeTrack03	15	ProbeTrackDT	1.1	SCS215a	20110121.111241	20110121.112258	single-task	8	0.013328	60	10	60-180	60	114	GapExp	0	104	2	9	1	distractor	0	707	-1000	180223	13.328	13.186	13.456
DTProbeTrack03	15	ProbeTrackDT	1.1	SCS215a	20110121.111241	20110121.112303	single-task	8	0.013328	60	10	60-180	60	67	GapExp	0	105	2	9	0	distractor	1	640	680	180903	13.328	13.106	13.565
DTProbeTrack03	15	ProbeTrackDT	1.1	SCS215a	20110121.111241	20110121.112309	single-task	8	0.013328	60	10	60-180	60	87	GapExp	0	106	2	45	1	target	1	653	674	181577	13.328	12.859	13.803
DTProbeTrack03	15	ProbeTrackDT	1.1	SCS215a	20110121.111241	20110121.112314	single-task	8	0.013328	60	10	60-180	60	129	GapExp	0	107	2	3	1	target	1	455	773	182350	13.328	13.226	13.431
DTProbeTrack03	15	ProbeTrackDT	1.1	SCS215a	20110121.111241	20110121.112320	single-task	8	0.013328	60	10	60-180	60	131	GapExp	0	108	2	3	1	target	1	1506	247	182597	13.328	13.307	13.349
DTProbeTrack03	15	ProbeTrackDT	1.1	SCS215a	20110121.111241	20110121.112327	single-task	8	0.013328	60	10	60-180	60	130	GapExp	0	109	2	1	1	target	1	800	600	183197	13.424	13.071	40.415
DTProbeTrack03	15	ProbeTrackDT	1.1	SCS215a	20110121.111241	20110121.112333	single-task	8	0.013328	60	10	60-180	60	63	GapExp	0	110	2	1	1	target	1	600	700	183897	13.328	13.102	13.555
DTProbeTrack03	15	ProbeTrackDT	1.1	SCS215a	20110121.111241	20110121.112337	single-task	8	0.013328	60	10	60-180	60	135	GapExp	0	111	2	6	0	distractor	1	1573	214	184111	13.328	13.095	13.566
DTProbeTrack03	15	ProbeTrackDT	1.1	SCS215a	20110121.111241	20110121.112344	single-task	8	0.013328	60	10	60-180	60	111	GapExp	0	112	2	9	1	target	1	454	773	184884	13.328	12.863	13.779
DTProbeTrack03	15	ProbeTrackDT	1.1	SCS215a	20110121.111241	20110121.112350	single-task	8	0.013328	60	10	60-180	60	85	GapExp	0	113	2	9	0	target	0	520	-1000	183884	13.328	13.297	13.349
DTProbeTrack03	15	ProbeTrackDT	1.1	SCS215a	20110121.111241	20110121.112355	single-task	8	0.013328	60	10	60-180	60	180	GapExp	0	114	2	6	1	target	1	454	773	184657	13.328	13.092	13.552
DTProbeTrack03	15	ProbeTrackDT	1.1	SCS215a	20110121.111241	20110121.112401	single-task	8	0.013328	60	10	60-180	60	178	GapExp	0	115	2	3	1	target	1	507	747	185404	13.328	12.891	13.769
DTProbeTrack03	15	ProbeTrackDT	1.1	SCS215a	20110121.111241	20110121.112407	single-task	8	0.013328	60	10	60-180	60	73	GapExp	0	116	2	1	0	distractor	1	853	574	185978	13.328	13.308	13.348
DTProbeTrack03	15	ProbeTrackDT	1.1	SCS215a	20110121.111241	20110121.112413	single-task	8	0.013328	60	10	60-180	60	65	GapExp	0	117	2	1	0	target	0	1027	-1000	184978	13.328	13.102	13.553
DTProbeTrack03	15	ProbeTrackDT	1.1	SCS215a	20110121.111241	20110121.112418	single-task	8	0.013328	60	10	60-180	60	109	GapExp	0	118	2	1	1	target	1	480	760	185738	13.328	13.310	13.346
DTProbeTrack03	15	ProbeTrackDT	1.1	SCS215a	20110121.111241	20110121.112423	single-task	8	0.013328	60	10	60-180	60	95	GapExp	0	119	2	3	1	target	1	427	787	186525	13.328	13.299	13.348
DTProbeTrack03	15	ProbeTrackDT	1.1	SCS215a	20110121.111241	20110121.112428	single-task	8	0.013328	60	10	60-180	60	89	GapExp	0	120	2	45	0	distractor	1	547	727	187252	13.328	13.308	13.354
DTProbeTrack03	15	ProbeTrackDT	1.1	SCS215a	20110121.111241	20110121.112434	single-task	8	0.013328	60	10	60-180	60	65	GapExp	0	121	2	1	1	target	1	1213	394	187646	13.328	13.106	13.554
DTProbeTrack03	15	ProbeTrackDT	1.1	SCS215a	20110121.111241	20110121.112440	single-task	8	0.013328	60	10	60-180	60	178	GapExp	0	122	2	6	0	distractor	1	587	707	188353	13.328	13.106	13.557
DTProbeTrack03	15	ProbeTrackDT	1.1	SCS215a	20110121.111241	20110121.112446	single-task	8	0.013328	60	10	60-180	60	148	GapExp	0	123	2	3	1	target	1	414	793	189146	13.328	12.997	13.671
DTProbeTrack03	15	ProbeTrackDT	1.1	SCS215a	20110121.111241	20110121.112452	single-task	8	0.013328	60	10	60-180	60	171	GapExp	0	124	2	9	0	distractor	1	547	727	189873	13.328	13.309	13.348
DTProbeTrack03	15	ProbeTrackDT	1.1	SCS215a	20110121.111241	20110121.112458	single-task	8	0.013328	60	10	60-180	60	140	GapExp	0	125	2	3	0	distractor	1	680	660	190533	13.328	12.878	13.779
DTProbeTrack03	15	ProbeTrackDT	1.1	SCS215a	20110121.111241	20110121.112504	single-task	8	0.013328	60	10	60-180	60	172	GapExp	0	126	2	6	0	distractor	1	467	767	191300	13.328	13.308	13.348
DTProbeTrack03	15	ProbeTrackDT	1.1	SCS215a	20110121.111241	20110121.112511	single-task	8	0.013328	60	10	60-180	60	115	GapExp	0	127	2	3	1	target	1	560	720	192020	13.328	13.309	13.347
DTProbeTrack03	15	ProbeTrackDT	1.1	SCS215a	20110121.111241	20110121.112516	single-task	8	0.013328	60	10	60-180	60	113	GapExp	0	128	2	3	0	target	0	773	-1000	191020	13.379	13.088	26.669
DTProbeTrack03	15	ProbeTrackDT	1.1	SCS215a	20110121.111241	20110121.112522	single-task	8	0.013328	60	10	60-180	60	123	GapExp	0	129	2	9	1	target	1	654	673	191693	13.328	13.108	13.557
DTProbeTrack03	15	ProbeTrackDT	1.1	SCS215a	20110121.111241	20110121.112528	single-task	8	0.013328	60	10	60-180	60	153	GapExp	0	130	2	9	0	distractor	1	773	614	192307	13.328	12.915	13.743
DTProbeTrack03	15	ProbeTrackDT	1.1	SCS215a	20110121.111241	20110121.112534	single-task	8	0.013328	60	10	60-180	60	176	GapExp	0	131	2	45	1	target	1	627	687	192994	13.328	13.093	13.557
DTProbeTrack03	15	ProbeTrackDT	1.1	SCS215a	20110121.111241	20110121.112541	single-task	8	0.013328	60	10	60-180	60	132	GapExp	0	132	2	6	1	target	1	467	767	193761	13.328	13.308	13.346
DTProbeTrack03	15	ProbeTrackDT	1.1	SCS215a	20110121.111241	20110121.112547	single-task	8	0.013328	60	10	60-180	60	63	GapExp	0	133	2	3	1	target	1	480	760	194521	13.328	13.252	13.403
DTProbeTrack03	15	ProbeTrackDT	1.1	SCS215a	20110121.111241	20110121.112551	single-task	8	0.013328	60	10	60-180	60	67	GapExp	0	134	2	6	1	target	1	640	680	195201	13.328	13.103	13.556
DTProbeTrack03	15	ProbeTrackDT	1.1	SCS215a	20110121.111241	20110121.112556	single-task	8	0.013328	60	10	60-180	60	164	GapExp	0	135	2	45	1	target	1	454	773	195974	13.328	12.992	13.666
DTProbeTrack03	15	ProbeTrackDT	1.1	SCS215a	20110121.111241	20110121.112603	single-task	8	0.013328	60	10	60-180	60	173	GapExp	0	136	2	9	1	target	1	720	640	196614	13.328	12.984	13.661
DTProbeTrack03	15	ProbeTrackDT	1.1	SCS215a	20110121.111241	20110121.112610	single-task	8	0.013328	60	10	60-180	60	129	GapExp	0	137	2	9	1	target	1	467	767	197381	13.328	12.876	13.795
DTProbeTrack03	15	ProbeTrackDT	1.1	SCS215a	20110121.111241	20110121.112615	single-task	8	0.013328	60	10	60-180	60	98	GapExp	0	138	2	9	1	target	1	440	780	198161	13.328	13.044	13.611
DTProbeTrack03	15	ProbeTrackDT	1.1	SCS215a	20110121.111241	20110121.112620	single-task	8	0.013328	60	10	60-180	60	107	GapExp	0	139	2	6	0	distractor	1	733	634	198795	13.328	13.311	13.347
DTProbeTrack03	15	ProbeTrackDT	1.1	SCS215a	20110121.111241	20110121.112626	single-task	8	0.013328	60	10	60-180	60	97	GapExp	0	140	2	9	0	distractor	1	600	700	199495	13.328	12.843	13.810
DTProbeTrack03	15	ProbeTrackDT	1.1	SCS215a	20110121.111241	20110121.112632	single-task	8	0.013328	60	10	60-180	60	132	GapExp	0	141	2	45	1	target	1	547	727	200222	13.328	12.889	13.792
DTProbeTrack03	15	ProbeTrackDT	1.1	SCS215a	20110121.111241	20110121.112638	single-task	8	0.013328	60	10	60-180	60	128	GapExp	0	142	2	1	0	distractor	1	733	634	200856	13.328	13.108	13.551
DTProbeTrack03	15	ProbeTrackDT	1.1	SCS215a	20110121.111241	20110121.112644	single-task	8	0.013328	60	10	60-180	60	131	GapExp	0	143	2	9	1	target	1	440	780	201636	13.328	12.939	13.703
DTProbeTrack03	15	ProbeTrackDT	1.1	SCS215a	20110121.111241	20110121.112649	single-task	8	0.013328	60	10	60-180	60	180	GapExp	0	144	2	6	1	target	1	520	740	202376	13.328	12.964	13.704
DTProbeTrack03	15	ProbeTrackDT	1.1	SCS215a	20110121.111241	20110121.112656	single-task	8	0.013328	60	10	60-180	60	101	GapExp	0	145	2	9	0	distractor	1	760	620	202996	13.328	13.297	13.348
DTProbeTrack03	15	ProbeTrackDT	1.1	SCS215a	20110121.111241	20110121.112702	single-task	8	0.013328	60	10	60-180	60	108	GapExp	0	146	2	6	1	target	1	467	767	203763	13.328	13.095	13.539
DTProbeTrack03	15	ProbeTrackDT	1.1	SCS215a	20110121.111241	20110121.112707	single-task	8	0.013328	60	10	60-180	60	63	GapExp	0	147	2	1	1	target	1	534	733	204496	13.328	13.303	13.348
DTProbeTrack03	15	ProbeTrackDT	1.1	SCS215a	20110121.111241	20110121.112712	single-task	8	0.013328	60	10	60-180	60	85	GapExp	0	148	2	45	1	target	1	467	767	205263	13.328	12.877	13.792
DTProbeTrack03	15	ProbeTrackDT	1.1	SCS215a	20110121.111241	20110121.112717	single-task	8	0.013328	60	10	60-180	60	112	GapExp	0	149	2	9	0	target	0	547	-1000	204263	13.328	13.243	13.406
DTProbeTrack03	15	ProbeTrackDT	1.1	SCS215a	20110121.111241	20110121.112723	single-task	8	0.013328	60	10	60-180	60	106	GapExp	0	150	2	1	0	target	0	787	-1000	203263	13.328	12.916	13.755
DTProbeTrack03	15	ProbeTrackDT	1.1	SCS215a	20110121.111241	20110121.112735	single-task	8	0.013328	60	10	60-180	60	138	GapExp	0	151	2	9	1	target	1	454	773	204036	13.328	13.105	13.557
DTProbeTrack03	15	ProbeTrackDT	1.1	SCS215a	20110121.111241	20110121.112740	single-task	8	0.013328	60	10	60-180	60	111	GapExp	0	152	2	45	1	target	1	494	753	204789	13.328	12.896	13.762
DTProbeTrack03	15	ProbeTrackDT	1.1	SCS215a	20110121.111241	20110121.112746	single-task	8	0.013328	60	10	60-180	60	61	GapExp	0	153	2	45	0	distractor	1	600	700	205489	13.328	12.842	13.813
DTProbeTrack03	15	ProbeTrackDT	1.1	SCS215a	20110121.111241	20110121.112752	single-task	8	0.013328	60	10	60-180	60	129	GapExp	0	154	2	6	1	target	1	454	773	206262	13.328	13.308	13.348
DTProbeTrack03	15	ProbeTrackDT	1.1	SCS215a	20110121.111241	20110121.112757	single-task	8	0.013328	60	10	60-180	60	135	GapExp	0	155	2	6	1	target	1	454	773	207035	13.328	12.919	13.752
DTProbeTrack03	15	ProbeTrackDT	1.1	SCS215a	20110121.111241	20110121.112803	single-task	8	0.013328	60	10	60-180	60	109	GapExp	0	156	2	3	0	distractor	1	667	667	207702	13.328	12.872	13.778
DTProbeTrack03	15	ProbeTrackDT	1.1	SCS215a	20110121.111241	20110121.112809	single-task	8	0.013328	60	10	60-180	60	173	GapExp	0	157	2	6	1	target	1	427	787	208489	13.328	13.074	13.597
DTProbeTrack03	15	ProbeTrackDT	1.1	SCS215a	20110121.111241	20110121.112815	single-task	8	0.013328	60	10	60-180	60	111	GapExp	0	158	2	1	0	target	0	773	-1000	207489	13.328	13.066	13.594
DTProbeTrack03	15	ProbeTrackDT	1.1	SCS215a	20110121.111241	20110121.112821	single-task	8	0.013328	60	10	60-180	60	156	GapExp	0	159	2	1	0	distractor	1	654	673	208162	13.328	12.902	13.769
DTProbeTrack03	15	ProbeTrackDT	1.1	SCS215a	20110121.111241	20110121.112827	single-task	8	0.013328	60	10	60-180	60	122	GapExp	0	160	2	6	0	distractor	1	587	707	208869	13.328	12.856	13.347
DTProbeTrack03	15	ProbeTrackDT	1.1	SCS215a	20110121.111241	20110121.112833	single-task	8	0.013328	60	10	60-180	60	161	GapExp	0	161	2	45	1	target	1	534	733	209602	13.328	13.107	13.551
DTProbeTrack03	15	ProbeTrackDT	1.1	SCS215a	20110121.111241	20110121.112839	single-task	8	0.013328	60	10	60-180	60	145	GapExp	0	162	2	1	0	distractor	1	907	547	210149	13.328	13.002	13.642
DTProbeTrack03	15	ProbeTrackDT	1.1	SCS215a	20110121.111241	20110121.112846	single-task	8	0.013328	60	10	60-180	60	131	GapExp	0	163	2	45	1	target	1	400	800	210949	13.328	12.999	13.662
DTProbeTrack03	15	ProbeTrackDT	1.1	SCS215a	20110121.111241	20110121.112852	single-task	8	0.013328	60	10	60-180	60	155	GapExp	0	164	2	45	1	distractor	0	600	-1000	209949	13.328	13.104	13.546
DTProbeTrack03	15	ProbeTrackDT	1.1	SCS215a	20110121.111241	20110121.112858	single-task	8	0.013328	60	10	60-180	60	125	GapExp	0	165	2	45	0	target	0	480	-1000	208949	13.328	13.019	13.649
DTProbeTrack03	15	ProbeTrackDT	1.1	SCS215a	20110121.111241	20110121.112905	single-task	8	0.013328	60	10	60-180	60	121	GapExp	0	166	2	3	1	distractor	0	560	-1000	207949	13.328	12.881	13.781
DTProbeTrack03	15	ProbeTrackDT	1.1	SCS215a	20110121.111241	20110121.112910	single-task	8	0.013328	60	10	60-180	60	118	GapExp	0	167	2	3	0	target	0	627	-1000	206949	13.328	13.301	13.348
DTProbeTrack03	15	ProbeTrackDT	1.1	SCS215a	20110121.111241	20110121.112916	single-task	8	0.013328	60	10	60-180	60	177	GapExp	0	168	2	3	0	distractor	1	534	733	207682	13.328	13.283	13.354
DTProbeTrack03	15	ProbeTrackDT	1.1	SCS215a	20110121.111241	20110121.112922	single-task	8	0.013328	60	10	60-180	60	165	GapExp	0	169	2	3	0	target	0	560	-1000	206682	13.328	12.888	13.757
DTProbeTrack03	15	ProbeTrackDT	1.1	SCS215a	20110121.111241	20110121.112928	single-task	8	0.013328	60	10	60-180	60	95	GapExp	0	170	2	9	1	distractor	0	627	-1000	205682	13.328	12.896	13.759
DTProbeTrack03	15	ProbeTrackDT	1.1	SCS215a	20110121.111241	20110121.112934	single-task	8	0.013328	60	10	60-180	60	64	GapExp	0	171	2	3	1	target	1	534	733	206415	13.328	12.957	13.710
DTProbeTrack03	15	ProbeTrackDT	1.1	SCS215a	20110121.111241	20110121.112939	single-task	8	0.013328	60	10	60-180	60	118	GapExp	0	172	2	9	0	target	0	827	-1000	205415	13.328	12.906	13.741
DTProbeTrack03	15	ProbeTrackDT	1.1	SCS215a	20110121.111241	20110121.112945	single-task	8	0.013328	60	10	60-180	60	64	GapExp	0	173	2	1	1	target	1	467	767	206182	13.328	13.014	13.652
DTProbeTrack03	15	ProbeTrackDT	1.1	SCS215a	20110121.111241	20110121.112949	single-task	8	0.013328	60	10	60-180	60	99	GapExp	0	174	2	9	0	distractor	1	613	694	206876	13.328	13.097	13.560
DTProbeTrack03	15	ProbeTrackDT	1.1	SCS215a	20110121.111241	20110121.112955	single-task	8	0.013328	60	10	60-180	60	156	GapExp	0	175	2	1	0	distractor	1	800	600	207476	13.328	13.136	13.527
DTProbeTrack03	15	ProbeTrackDT	1.1	SCS215a	20110121.111241	20110121.113001	single-task	8	0.013328	60	10	60-180	60	99	GapExp	0	176	2	45	1	target	1	507	747	208223	13.328	12.902	13.754
DTProbeTrack03	15	ProbeTrackDT	1.1	SCS215a	20110121.111241	20110121.113007	single-task	8	0.013328	60	10	60-180	60	95	GapExp	0	177	2	45	0	distractor	1	840	580	208803	13.328	13.309	13.345
DTProbeTrack03	15	ProbeTrackDT	1.1	SCS215a	20110121.111241	20110121.113013	single-task	8	0.013328	60	10	60-180	60	92	GapExp	0	178	2	45	1	target	1	387	807	209610	13.328	13.116	13.557
DTProbeTrack03	15	ProbeTrackDT	1.1	SCS215a	20110121.111241	20110121.113019	single-task	8	0.013328	60	10	60-180	60	88	GapExp	0	179	2	3	0	target	0	427	-1000	208610	13.328	13.308	13.358
DTProbeTrack03	15	ProbeTrackDT	1.1	SCS215a	20110121.111241	20110121.113024	single-task	8	0.013328	60	10	60-180	60	102	GapExp	0	180	2	45	1	target	1	600	700	209310	13.328	12.944	13.718
DTProbeTrack03	15	ProbeTrackDT	1.1	SCS215a	20110121.111241	20110121.113029	single-task	8	0.013328	60	10	60-180	60	125	GapExp	0	181	2	3	0	distractor	1	720	640	209950	13.328	13.093	13.551
DTProbeTrack03	15	ProbeTrackDT	1.1	SCS215a	20110121.111241	20110121.113035	single-task	8	0.013328	60	10	60-180	60	174	GapExp	0	182	2	1	0	target	0	680	-1000	208950	13.328	13.067	13.582
DTProbeTrack03	15	ProbeTrackDT	1.1	SCS215a	20110121.111241	20110121.113042	single-task	8	0.013328	60	10	60-180	60	100	GapExp	0	183	2	3	0	distractor	1	667	667	209617	13.328	13.307	13.355
DTProbeTrack03	15	ProbeTrackDT	1.1	SCS215a	20110121.111241	20110121.113047	single-task	8	0.013328	60	10	60-180	60	100	GapExp	0	184	2	45	0	distractor	1	1107	447	210064	13.328	13.054	13.602
DTProbeTrack03	15	ProbeTrackDT	1.1	SCS215a	20110121.111241	20110121.113054	single-task	8	0.013328	60	10	60-180	60	125	GapExp	0	185	2	3	0	distractor	1	547	727	210791	13.328	13.012	13.643
DTProbeTrack03	15	ProbeTrackDT	1.1	SCS215a	20110121.111241	20110121.113059	single-task	8	0.013328	60	10	60-180	60	86	GapExp	0	186	2	6	0	distractor	1	1240	380	211171	13.328	13.300	13.353
DTProbeTrack03	15	ProbeTrackDT	1.1	SCS215a	20110121.111241	20110121.113105	single-task	8	0.013328	60	10	60-180	60	74	GapExp	0	187	2	9	1	target	1	627	687	211858	13.328	13.027	13.639
DTProbeTrack03	15	ProbeTrackDT	1.1	SCS215a	20110121.111241	20110121.113110	single-task	8	0.013328	60	10	60-180	60	175	GapExp	0	188	2	1	1	target	1	547	727	212585	13.328	13.103	13.561
DTProbeTrack03	15	ProbeTrackDT	1.1	SCS215a	20110121.111241	20110121.113117	single-task	8	0.013328	60	10	60-180	60	94	GapExp	0	189	2	6	0	target	0	574	-1000	211585	13.328	13.265	13.390
DTProbeTrack03	15	ProbeTrackDT	1.1	SCS215a	20110121.111241	20110121.113122	single-task	8	0.013328	60	10	60-180	60	87	GapExp	0	190	2	3	1	target	1	574	713	212298	13.328	12.968	13.685
DTProbeTrack03	15	ProbeTrackDT	1.1	SCS215a	20110121.111241	20110121.113127	single-task	8	0.013328	60	10	60-180	60	83	GapExp	0	191	2	6	0	distractor	1	667	667	212965	13.328	12.863	13.802
DTProbeTrack03	15	ProbeTrackDT	1.1	SCS215a	20110121.111241	20110121.113132	single-task	8	0.013328	60	10	60-180	60	83	GapExp	0	192	2	45	1	target	1	654	673	213638	13.328	13.114	13.529
DTProbeTrack03	15	ProbeTrackDT	1.1	SCS215a	20110121.111241	20110121.113138	single-task	8	0.013328	60	10	60-180	60	155	GapExp	0	193	2	9	0	target	0	560	-1000	212638	13.328	12.949	13.726
DTProbeTrack03	15	ProbeTrackDT	1.1	SCS215a	20110121.111241	20110121.113144	single-task	8	0.013328	60	10	60-180	60	141	GapExp	0	194	2	45	0	distractor	1	627	687	213325	13.328	12.863	13.795
DTProbeTrack03	15	ProbeTrackDT	1.1	SCS215a	20110121.111241	20110121.113151	single-task	8	0.013328	60	10	60-180	60	176	GapExp	0	195	2	6	1	target	1	454	773	214098	13.328	12.952	13.705
DTProbeTrack03	15	ProbeTrackDT	1.1	SCS215a	20110121.111241	20110121.113157	single-task	8	0.013328	60	10	60-180	60	94	GapExp	0	196	2	1	1	target	1	414	793	214891	13.328	13.307	13.346
DTProbeTrack03	15	ProbeTrackDT	1.1	SCS215a	20110121.111241	20110121.113202	single-task	8	0.013328	60	10	60-180	60	61	GapExp	0	197	2	1	1	target	1	520	740	215631	13.328	13.109	13.542
DTProbeTrack03	15	ProbeTrackDT	1.1	SCS215a	20110121.111241	20110121.113207	single-task	8	0.013328	60	10	60-180	60	77	GapExp	0	198	2	1	1	target	1	400	800	216431	13.328	13.308	13.351
DTProbeTrack03	15	ProbeTrackDT	1.1	SCS215a	20110121.111241	20110121.113211	single-task	8	0.013328	60	10	60-180	60	93	GapExp	0	199	2	1	1	target	1	360	820	217251	13.328	12.953	13.688
DTProbeTrack03	15	ProbeTrackDT	1.1	SCS215a	20110121.111241	20110121.113216	single-task	8	0.013328	60	10	60-180	60	159	GapExp	0	200	2	45	0	distractor	1	760	620	217871	13.328	12.910	13.759
DTProbeTrack03	15	ProbeTrackDT	1.1	SCS215a	20110121.111241	20110121.113231	single-task	8	0.013328	60	10	60-180	60	73	GapExp	0	201	2	45	0	distractor	1	627	687	218558	13.328	13.103	13.546
DTProbeTrack03	15	ProbeTrackDT	1.1	SCS215a	20110121.111241	20110121.113237	single-task	8	0.013328	60	10	60-180	60	168	GapExp	0	202	2	6	1	distractor	0	907	-1000	217558	13.328	12.899	13.771
DTProbeTrack03	15	ProbeTrackDT	1.1	SCS215a	20110121.111241	20110121.113243	single-task	8	0.013328	60	10	60-180	60	165	GapExp	0	203	2	9	0	distractor	1	840	580	218138	13.328	12.947	13.715
DTProbeTrack03	15	ProbeTrackDT	1.1	SCS215a	20110121.111241	20110121.113250	single-task	8	0.013328	60	10	60-180	60	105	GapExp	0	204	2	3	1	target	1	534	733	218871	13.328	12.926	13.745
DTProbeTrack03	15	ProbeTrackDT	1.1	SCS215a	20110121.111241	20110121.113255	single-task	8	0.013328	60	10	60-180	60	125	GapExp	0	205	2	1	1	target	1	534	733	219604	13.328	13.136	13.503
DTProbeTrack03	15	ProbeTrackDT	1.1	SCS215a	20110121.113541	20110121.113544	dt-generate	8	0.013328	60	10	60-180	60	64	GapPrac	1	1	2	3	1	target	1	640	680	220284	13.328	13.254	13.405
DTProbeTrack03	15	ProbeTrackDT	1.1	SCS215a	20110121.113541	20110121.113549	dt-generate	8	0.013328	60	10	60-180	60	156	GapPrac	1	2	2	3	1	target	1	760	620	220904	13.328	13.307	13.348
DTProbeTrack03	15	ProbeTrackDT	1.1	SCS215a	20110121.113541	20110121.113555	dt-generate	8	0.013328	60	10	60-180	60	125	GapPrac	1	3	2	6	0	target	0	307	-1000	219904	13.328	13.151	13.510
DTProbeTrack03	15	ProbeTrackDT	1.1	SCS215a	20110121.113541	20110121.113601	dt-generate	8	0.013328	60	10	60-180	60	166	GapPrac	1	4	2	9	1	distractor	0	467	-1000	218904	13.328	13.303	13.356
DTProbeTrack03	15	ProbeTrackDT	1.1	SCS215a	20110121.113541	20110121.113607	dt-generate	8	0.013328	60	10	60-180	60	101	GapPrac	1	5	2	3	0	target	0	480	-1000	217904	13.328	13.098	13.552
DTProbeTrack03	15	ProbeTrackDT	1.1	SCS215a	20110121.113541	20110121.113612	dt-generate	8	0.013328	60	10	60-180	60	133	GapPrac	1	6	2	1	1	target	1	627	687	218591	13.328	13.101	13.569
DTProbeTrack03	15	ProbeTrackDT	1.1	SCS215a	20110121.113541	20110121.113618	dt-generate	8	0.013328	60	10	60-180	60	168	GapPrac	1	7	2	45	1	distractor	0	1240	-1000	217591	13.328	13.107	13.552
DTProbeTrack03	15	ProbeTrackDT	1.1	SCS215a	20110121.113541	20110121.113626	dt-generate	8	0.013328	60	10	60-180	60	116	GapPrac	1	8	2	45	0	target	0	1853	-1000	216591	13.328	13.107	13.559
DTProbeTrack03	15	ProbeTrackDT	1.1	SCS215a	20110121.113541	20110121.113633	dt-generate	8	0.013328	60	10	60-180	60	137	GapPrac	1	9	2	1	0	distractor	1	1213	394	216985	13.328	13.170	13.487
DTProbeTrack03	15	ProbeTrackDT	1.1	SCS215a	20110121.113541	20110121.113639	dt-generate	8	0.013328	60	10	60-180	60	150	GapPrac	1	10	2	9	1	target	1	680	660	217645	13.328	13.099	13.571
DTProbeTrack03	15	ProbeTrackDT	1.1	SCS215a	20110121.113541	20110121.113646	dt-generate	8	0.013328	60	10	60-180	60	144	GapPrac	1	11	2	1	1	target	1	947	527	218172	13.328	13.293	13.361
DTProbeTrack03	15	ProbeTrackDT	1.1	SCS215a	20110121.113541	20110121.113652	dt-generate	8	0.013328	60	10	60-180	60	63	GapPrac	1	12	2	6	1	target	1	494	753	218925	13.328	13.308	13.348
DTProbeTrack03	15	ProbeTrackDT	1.1	SCS215a	20110121.113541	20110121.113657	dt-generate	8	0.013328	60	10	60-180	60	158	GapPrac	1	13	2	45	0	distractor	1	320	840	219765	13.328	13.106	13.558
DTProbeTrack03	15	ProbeTrackDT	1.1	SCS215a	20110121.113541	20110121.113703	dt-generate	8	0.013328	60	10	60-180	60	144	GapPrac	1	14	2	6	1	target	1	1107	447	220212	13.328	12.935	13.750
DTProbeTrack03	15	ProbeTrackDT	1.1	SCS215a	20110121.113541	20110121.113710	dt-generate	8	0.013328	60	10	60-180	60	78	GapPrac	1	15	2	9	0	target	0	8437	-1000	219212	13.328	12.858	13.796
DTProbeTrack03	15	ProbeTrackDT	1.1	SCS215a	20110121.113541	20110121.113723	dt-generate	8	0.013328	60	10	60-180	60	128	GapPrac	1	16	2	3	0	target	0	7637	-1000	218212	13.328	13.110	13.547
DTProbeTrack03	15	ProbeTrackDT	1.1	SCS215a	20110121.113541	20110121.113735	dt-generate	8	0.013328	60	10	60-180	60	174	GapPrac	1	17	2	1	0	target	0	334	-1000	217212	13.328	12.937	13.720
DTProbeTrack03	15	ProbeTrackDT	1.1	SCS215a	20110121.113541	20110121.113741	dt-generate	8	0.013328	60	10	60-180	60	95	GapPrac	1	18	2	6	0	distractor	1	1720	140	217352	13.328	13.310	13.346
DTProbeTrack03	15	ProbeTrackDT	1.1	SCS215a	20110121.113541	20110121.113748	dt-generate	8	0.013328	60	10	60-180	60	99	GapPrac	1	19	2	45	1	distractor	0	1760	-1000	216352	13.328	13.153	13.505
DTProbeTrack03	15	ProbeTrackDT	1.1	SCS215a	20110121.113541	20110121.113755	dt-generate	8	0.013328	60	10	60-180	60	113	GapPrac	1	20	2	9	0	target	0	1400	-1000	215352	13.328	13.308	13.348
DTProbeTrack03	15	ProbeTrackDT	1.1	SCS215a	20110121.113820	20110121.113834	dt-generate	8	0.013328	60	10	60-180	60	142	GapExp	1	1	2	9	0	target	0	587	-1000	214352	13.328	13.093	13.562
DTProbeTrack03	15	ProbeTrackDT	1.1	SCS215a	20110121.113820	20110121.113840	dt-generate	8	0.013328	60	10	60-180	60	79	GapExp	1	2	2	6	0	distractor	1	614	693	215045	13.328	12.930	13.724
DTProbeTrack03	15	ProbeTrackDT	1.1	SCS215a	20110121.113820	20110121.113845	dt-generate	8	0.013328	60	10	60-180	60	135	GapExp	1	3	2	45	1	target	1	187	907	215952	13.328	12.976	13.697
DTProbeTrack03	15	ProbeTrackDT	1.1	SCS215a	20110121.113820	20110121.113851	dt-generate	8	0.013328	60	10	60-180	60	144	GapExp	1	4	2	1	0	target	0	733	-1000	214952	13.328	13.181	13.487
DTProbeTrack03	15	ProbeTrackDT	1.1	SCS215a	20110121.113820	20110121.113858	dt-generate	8	0.013328	60	10	60-180	60	83	GapExp	1	5	2	45	0	distractor	1	627	687	215639	13.328	13.241	13.414
DTProbeTrack03	15	ProbeTrackDT	1.1	SCS215a	20110121.113820	20110121.113903	dt-generate	8	0.013328	60	10	60-180	60	106	GapExp	0	6	2	3	0	distractor	1	494	753	216392	13.328	12.985	13.692
DTProbeTrack03	15	ProbeTrackDT	1.1	SCS215a	20110121.113820	20110121.113909	dt-generate	8	0.013328	60	10	60-180	60	120	GapExp	0	7	2	9	1	target	1	480	760	217152	13.328	13.107	13.543
DTProbeTrack03	15	ProbeTrackDT	1.1	SCS215a	20110121.113820	20110121.113914	dt-generate	8	0.013328	60	10	60-180	60	139	GapExp	0	8	2	9	0	target	0	14	-1000	216152	13.328	13.096	13.561
DTProbeTrack03	15	ProbeTrackDT	1.1	SCS215a	20110121.113820	20110121.113920	dt-generate	8	0.013328	60	10	60-180	60	145	GapExp	0	9	2	3	0	distractor	1	1373	314	216466	13.328	12.864	13.773
DTProbeTrack03	15	ProbeTrackDT	1.1	SCS215a	20110121.113820	20110121.113926	dt-generate	8	0.013328	60	10	60-180	60	125	GapExp	0	10	2	3	1	target	1	520	740	217206	13.328	13.306	13.350
DTProbeTrack03	15	ProbeTrackDT	1.1	SCS215a	20110121.113820	20110121.113932	dt-generate	8	0.013328	60	10	60-180	60	125	GapExp	0	11	2	9	0	target	0	547	-1000	216206	13.328	12.935	13.728
DTProbeTrack03	15	ProbeTrackDT	1.1	SCS215a	20110121.113820	20110121.113938	dt-generate	8	0.013328	60	10	60-180	60	148	GapExp	0	12	2	3	0	target	0	787	-1000	215206	13.328	13.111	13.565
DTProbeTrack03	15	ProbeTrackDT	1.1	SCS215a	20110121.113820	20110121.113944	dt-generate	8	0.013328	60	10	60-180	60	133	GapExp	0	13	2	1	0	target	0	480	-1000	214206	13.328	13.097	13.551
DTProbeTrack03	15	ProbeTrackDT	1.1	SCS215a	20110121.113820	20110121.113949	dt-generate	8	0.013328	60	10	60-180	60	92	GapExp	0	14	2	3	1	distractor	0	733	-1000	213206	13.328	12.948	13.709
DTProbeTrack03	15	ProbeTrackDT	1.1	SCS215a	20110121.113820	20110121.113955	dt-generate	8	0.013328	60	10	60-180	60	155	GapExp	0	15	2	1	1	target	1	853	574	213780	13.328	13.309	13.348
DTProbeTrack03	15	ProbeTrackDT	1.1	SCS215a	20110121.113820	20110121.114001	dt-generate	8	0.013328	60	10	60-180	60	132	GapExp	0	16	2	3	1	target	1	507	747	214527	13.328	12.925	13.734
DTProbeTrack03	15	ProbeTrackDT	1.1	SCS215a	20110121.113820	20110121.114007	dt-generate	8	0.013328	60	10	60-180	60	129	GapExp	0	17	2	45	0	target	0	1147	-1000	213527	13.328	12.931	13.725
DTProbeTrack03	15	ProbeTrackDT	1.1	SCS215a	20110121.113820	20110121.114014	dt-generate	8	0.013328	60	10	60-180	60	119	GapExp	0	18	2	9	0	target	0	1120	-1000	212527	13.328	12.971	13.691
DTProbeTrack03	15	ProbeTrackDT	1.1	SCS215a	20110121.113820	20110121.114020	dt-generate	8	0.013328	60	10	60-180	60	70	GapExp	0	19	2	6	0	distractor	1	1120	440	212967	13.328	13.100	13.559
DTProbeTrack03	15	ProbeTrackDT	1.1	SCS215a	20110121.113820	20110121.114025	dt-generate	8	0.013328	60	10	60-180	60	76	GapExp	0	20	2	3	1	target	1	747	627	213594	13.328	13.302	13.354
DTProbeTrack03	15	ProbeTrackDT	1.1	SCS215a	20110121.113820	20110121.114031	dt-generate	8	0.013328	60	10	60-180	60	179	GapExp	0	21	2	3	1	target	1	413	794	214388	13.328	13.102	13.563
DTProbeTrack03	15	ProbeTrackDT	1.1	SCS215a	20110121.113820	20110121.114037	dt-generate	8	0.013328	60	10	60-180	60	104	GapExp	0	22	2	45	0	target	0	507	-1000	213388	13.328	12.887	13.784
DTProbeTrack03	15	ProbeTrackDT	1.1	SCS215a	20110121.113820	20110121.114043	dt-generate	8	0.013328	60	10	60-180	60	167	GapExp	0	23	2	45	1	target	1	1373	314	213702	13.328	13.308	13.356
DTProbeTrack03	15	ProbeTrackDT	1.1	SCS215a	20110121.113820	20110121.114050	dt-generate	8	0.013328	60	10	60-180	60	68	GapExp	0	24	2	9	1	target	1	5411	0	213702	13.328	12.906	13.757
DTProbeTrack03	15	ProbeTrackDT	1.1	SCS215a	20110121.113820	20110121.114100	dt-generate	8	0.013328	60	10	60-180	60	173	GapExp	0	25	2	9	0	target	0	1266	-1000	212702	13.328	13.000	13.669
DTProbeTrack03	15	ProbeTrackDT	1.1	SCS215a	20110121.113820	20110121.114107	dt-generate	8	0.013328	60	10	60-180	60	147	GapExp	0	26	2	6	0	target	0	693	-1000	211702	13.328	13.108	13.562
DTProbeTrack03	15	ProbeTrackDT	1.1	SCS215a	20110121.113820	20110121.114113	dt-generate	8	0.013328	60	10	60-180	60	78	GapExp	0	27	2	9	1	target	1	494	753	212455	13.328	12.868	13.797
DTProbeTrack03	15	ProbeTrackDT	1.1	SCS215a	20110121.113820	20110121.114118	dt-generate	8	0.013328	60	10	60-180	60	143	GapExp	0	28	2	1	1	target	1	693	654	213109	13.328	12.945	13.706
DTProbeTrack03	15	ProbeTrackDT	1.1	SCS215a	20110121.113820	20110121.114124	dt-generate	8	0.013328	60	10	60-180	60	148	GapExp	0	29	2	1	0	target	0	667	-1000	212109	13.328	13.309	13.347
DTProbeTrack03	15	ProbeTrackDT	1.1	SCS215a	20110121.113820	20110121.114130	dt-generate	8	0.013328	60	10	60-180	60	136	GapExp	0	30	2	6	0	target	0	2253	-1000	211109	13.328	13.009	13.667
DTProbeTrack03	15	ProbeTrackDT	1.1	SCS215a	20110121.113820	20110121.114138	dt-generate	8	0.013328	60	10	60-180	60	80	GapExp	0	31	2	6	1	distractor	0	1666	-1000	210109	13.328	13.310	13.346
DTProbeTrack03	15	ProbeTrackDT	1.1	SCS215a	20110121.113820	20110121.114144	dt-generate	8	0.013328	60	10	60-180	60	156	GapExp	0	32	2	9	1	target	1	1853	74	210183	13.328	13.104	13.354
DTProbeTrack03	15	ProbeTrackDT	1.1	SCS215a	20110121.113820	20110121.114152	dt-generate	8	0.013328	60	10	60-180	60	176	GapExp	0	33	2	6	1	target	1	534	733	210916	13.328	13.204	13.453
DTProbeTrack03	15	ProbeTrackDT	1.1	SCS215a	20110121.113820	20110121.114158	dt-generate	8	0.013328	60	10	60-180	60	171	GapExp	0	34	2	3	1	target	1	1520	240	211156	13.328	12.905	13.757
DTProbeTrack03	15	ProbeTrackDT	1.1	SCS215a	20110121.113820	20110121.114205	dt-generate	8	0.013328	60	10	60-180	60	166	GapExp	0	35	2	9	1	target	1	667	667	211823	13.328	12.893	13.762
DTProbeTrack03	15	ProbeTrackDT	1.1	SCS215a	20110121.113820	20110121.114212	dt-generate	8	0.013328	60	10	60-180	60	166	GapExp	0	36	2	1	1	target	1	547	727	212550	13.328	13.086	13.557
DTProbeTrack03	15	ProbeTrackDT	1.1	SCS215a	20110121.113820	20110121.114218	dt-generate	8	0.013328	60	10	60-180	60	63	GapExp	0	37	2	45	0	distractor	1	627	687	213237	13.328	13.087	13.569
DTProbeTrack03	15	ProbeTrackDT	1.1	SCS215a	20110121.113820	20110121.114223	dt-generate	8	0.013328	60	10	60-180	60	123	GapExp	0	38	2	9	0	target	0	787	-1000	212237	13.328	12.853	13.810
