exp	sub	code	rev	comp	runtime	trialtime	stdt	nstim	refreshdur	cuedur	gapdur	gapOnsetRange	durPostProbe	gapOnsetTime	blocktype	prac	trial	ntargets	soa	probeTarget	resp	acc	rt	pts	tpts	meanFrameDur	minFrameDur	maxFrameDur
DTProbeTrack03	5	ProbeTrackDT	1.1	SCS215a	20101105.085132	20101105.085150	single-task	8	0.013343	60	0	60-180	60	122	NoGap	1	1	2	9	0	distractor	1	1853	74	74	13.328	13.099	13.550
DTProbeTrack03	5	ProbeTrackDT	1.1	SCS215a	20101105.085132	20101105.085157	single-task	8	0.013343	60	0	60-180	60	123	NoGap	1	2	2	45	0	distractor	1	1253	374	448	13.328	13.101	13.539
DTProbeTrack03	5	ProbeTrackDT	1.1	SCS215a	20101105.085132	20101105.085204	single-task	8	0.013343	60	0	60-180	60	173	NoGap	1	3	2	1	0	distractor	1	1760	120	568	13.328	13.097	13.555
DTProbeTrack03	5	ProbeTrackDT	1.1	SCS215a	20101105.085132	20101105.085211	single-task	8	0.013343	60	0	60-180	60	89	NoGap	1	4	2	9	0	distractor	1	1333	334	902	13.328	13.307	13.348
DTProbeTrack03	5	ProbeTrackDT	1.1	SCS215a	20101105.085132	20101105.085217	single-task	8	0.013343	60	0	60-180	60	76	NoGap	1	5	2	9	0	distractor	1	1240	380	1282	13.328	13.103	13.553
DTProbeTrack03	5	ProbeTrackDT	1.1	SCS215a	20101105.085132	20101105.085223	single-task	8	0.013343	60	0	60-180	60	157	NoGap	1	6	2	9	1	target	1	947	527	1809	13.328	13.113	13.546
DTProbeTrack03	5	ProbeTrackDT	1.1	SCS215a	20101105.085132	20101105.085229	single-task	8	0.013343	60	0	60-180	60	85	NoGap	1	7	2	1	0	distractor	1	973	514	2323	13.328	13.310	13.357
DTProbeTrack03	5	ProbeTrackDT	1.1	SCS215a	20101105.085132	20101105.085234	single-task	8	0.013343	60	0	60-180	60	158	NoGap	1	8	2	6	0	distractor	1	840	580	2903	13.328	13.173	13.489
DTProbeTrack03	5	ProbeTrackDT	1.1	SCS215a	20101105.085132	20101105.085241	single-task	8	0.013343	60	0	60-180	60	127	NoGap	1	9	2	45	0	distractor	1	827	587	3490	13.328	13.298	13.349
DTProbeTrack03	5	ProbeTrackDT	1.1	SCS215a	20101105.085132	20101105.085247	single-task	8	0.013343	60	0	60-180	60	159	NoGap	1	10	2	6	1	target	1	973	514	4004	13.328	12.863	13.804
DTProbeTrack03	5	ProbeTrackDT	1.1	SCS215a	20101105.085132	20101105.085253	single-task	8	0.013343	60	0	60-180	60	159	NoGap	1	11	2	3	0	distractor	1	840	580	4584	13.328	13.107	13.561
DTProbeTrack03	5	ProbeTrackDT	1.1	SCS215a	20101105.085132	20101105.085300	single-task	8	0.013343	60	0	60-180	60	111	NoGap	1	12	2	3	1	target	1	587	707	5291	13.328	13.093	13.552
DTProbeTrack03	5	ProbeTrackDT	1.1	SCS215a	20101105.085132	20101105.085305	single-task	8	0.013343	60	0	60-180	60	180	NoGap	1	13	2	45	1	target	1	614	693	5984	13.328	13.093	13.565
DTProbeTrack03	5	ProbeTrackDT	1.1	SCS215a	20101105.085132	20101105.085312	single-task	8	0.013343	60	0	60-180	60	85	NoGap	1	14	2	6	1	target	1	747	627	6611	13.328	13.306	13.351
DTProbeTrack03	5	ProbeTrackDT	1.1	SCS215a	20101105.085132	20101105.085317	single-task	8	0.013343	60	0	60-180	60	66	NoGap	1	15	2	6	0	distractor	1	1187	407	7018	13.328	13.309	13.351
DTProbeTrack03	5	ProbeTrackDT	1.1	SCS215a	20101105.085132	20101105.085322	single-task	8	0.013343	60	0	60-180	60	130	NoGap	1	16	2	1	1	target	1	693	654	7672	13.328	13.227	13.417
DTProbeTrack03	5	ProbeTrackDT	1.1	SCS215a	20101105.085132	20101105.085328	single-task	8	0.013343	60	0	60-180	60	106	NoGap	1	17	2	1	1	target	1	773	614	8286	13.328	13.104	13.566
DTProbeTrack03	5	ProbeTrackDT	1.1	SCS215a	20101105.085132	20101105.085334	single-task	8	0.013343	60	0	60-180	60	110	NoGap	1	18	2	6	0	distractor	1	933	534	8820	13.328	13.085	13.560
DTProbeTrack03	5	ProbeTrackDT	1.1	SCS215a	20101105.085132	20101105.085339	single-task	8	0.013343	60	0	60-180	60	163	NoGap	1	19	2	45	1	target	1	720	640	9460	13.328	13.098	13.559
DTProbeTrack03	5	ProbeTrackDT	1.1	SCS215a	20101105.085132	20101105.085346	single-task	8	0.013343	60	0	60-180	60	133	NoGap	1	20	2	3	0	distractor	1	840	580	10040	13.328	13.152	13.501
DTProbeTrack03	5	ProbeTrackDT	1.1	SCS215a	20101105.085132	20101105.085352	single-task	8	0.013343	60	0	60-180	60	86	NoGap	1	21	2	6	1	target	1	653	674	10714	13.328	12.883	13.774
DTProbeTrack03	5	ProbeTrackDT	1.1	SCS215a	20101105.085132	20101105.085357	single-task	8	0.013343	60	0	60-180	60	66	NoGap	1	22	2	45	1	target	1	680	660	11374	13.328	12.866	13.796
DTProbeTrack03	5	ProbeTrackDT	1.1	SCS215a	20101105.085132	20101105.085403	single-task	8	0.013343	60	0	60-180	60	95	NoGap	1	23	2	1	1	target	1	867	567	11941	13.329	13.112	13.546
DTProbeTrack03	5	ProbeTrackDT	1.1	SCS215a	20101105.085132	20101105.085408	single-task	8	0.013343	60	0	60-180	60	173	NoGap	1	24	2	3	1	target	1	840	580	12521	13.328	13.110	13.546
DTProbeTrack03	5	ProbeTrackDT	1.1	SCS215a	20101105.085132	20101105.085414	single-task	8	0.013343	60	0	60-180	60	174	NoGap	1	25	2	45	0	distractor	1	1213	394	12915	13.328	12.841	13.829
DTProbeTrack03	5	ProbeTrackDT	1.1	SCS215a	20101105.085132	20101105.085422	single-task	8	0.013343	60	0	60-180	60	112	NoGap	1	26	2	1	0	distractor	1	853	574	13489	13.328	12.854	13.808
DTProbeTrack03	5	ProbeTrackDT	1.1	SCS215a	20101105.085132	20101105.085427	single-task	8	0.013343	60	0	60-180	60	111	NoGap	1	27	2	45	1	target	1	733	634	14123	13.328	13.308	13.348
DTProbeTrack03	5	ProbeTrackDT	1.1	SCS215a	20101105.085132	20101105.085433	single-task	8	0.013343	60	0	60-180	60	120	NoGap	1	28	2	6	1	target	1	707	647	14770	13.328	13.297	13.363
DTProbeTrack03	5	ProbeTrackDT	1.1	SCS215a	20101105.085132	20101105.085439	single-task	8	0.013343	60	0	60-180	60	75	NoGap	1	29	2	9	1	target	1	747	627	15397	13.328	13.096	13.553
DTProbeTrack03	5	ProbeTrackDT	1.1	SCS215a	20101105.085132	20101105.085444	single-task	8	0.013343	60	0	60-180	60	103	NoGap	1	30	2	6	0	distractor	1	640	680	16077	13.328	13.049	13.627
DTProbeTrack03	5	ProbeTrackDT	1.1	SCS215a	20101105.085132	20101105.085450	single-task	8	0.013343	60	0	60-180	60	155	NoGap	1	31	2	3	1	target	1	867	567	16644	13.328	13.081	13.575
DTProbeTrack03	5	ProbeTrackDT	1.1	SCS215a	20101105.085132	20101105.085456	single-task	8	0.013343	60	0	60-180	60	61	NoGap	1	32	2	3	1	target	1	733	634	17278	13.328	12.929	13.747
DTProbeTrack03	5	ProbeTrackDT	1.1	SCS215a	20101105.085132	20101105.085501	single-task	8	0.013343	60	0	60-180	60	160	NoGap	1	33	2	9	0	distractor	1	733	634	17912	13.328	12.940	13.744
DTProbeTrack03	5	ProbeTrackDT	1.1	SCS215a	20101105.085132	20101105.085507	single-task	8	0.013343	60	0	60-180	60	137	NoGap	1	34	2	3	0	distractor	1	693	654	18566	13.328	12.854	13.802
DTProbeTrack03	5	ProbeTrackDT	1.1	SCS215a	20101105.085132	20101105.085513	single-task	8	0.013343	60	0	60-180	60	140	NoGap	1	35	2	3	0	distractor	1	640	680	19246	13.328	12.948	13.717
DTProbeTrack03	5	ProbeTrackDT	1.1	SCS215a	20101105.085132	20101105.085518	single-task	8	0.013343	60	0	60-180	60	93	NoGap	1	36	2	45	0	distractor	1	640	680	19926	13.328	13.067	13.596
DTProbeTrack03	5	ProbeTrackDT	1.1	SCS215a	20101105.085132	20101105.085524	single-task	8	0.013343	60	0	60-180	60	165	NoGap	1	37	2	1	1	target	1	627	687	20613	13.328	13.016	13.632
DTProbeTrack03	5	ProbeTrackDT	1.1	SCS215a	20101105.085132	20101105.085530	single-task	8	0.013343	60	0	60-180	60	173	NoGap	1	38	2	9	1	target	1	813	594	21207	13.328	12.871	13.789
DTProbeTrack03	5	ProbeTrackDT	1.1	SCS215a	20101105.085132	20101105.085537	single-task	8	0.013343	60	0	60-180	60	149	NoGap	1	39	2	1	0	distractor	1	747	627	21834	13.328	13.300	13.351
DTProbeTrack03	5	ProbeTrackDT	1.1	SCS215a	20101105.085132	20101105.085543	single-task	8	0.013343	60	0	60-180	60	83	NoGap	1	40	2	9	1	target	1	627	687	22521	13.328	13.033	13.631
DTProbeTrack03	5	ProbeTrackDT	1.1	SCS215a	20101105.090017	20101105.090023	dt-generate	8	0.013328	60	10	60-180	60	171	GapPrac	1	1	2	1	0	83	-3	867	-1000	21521	13.328	12.860	13.803
DTProbeTrack03	5	ProbeTrackDT	1.1	SCS215a	20101105.090017	20101105.090029	dt-generate	8	0.013328	60	10	60-180	60	130	GapPrac	1	2	2	9	0	distractor	1	733	634	22155	13.328	13.307	13.354
DTProbeTrack03	5	ProbeTrackDT	1.1	SCS215a	20101105.090017	20101105.090035	dt-generate	8	0.013328	60	10	60-180	60	104	GapPrac	1	3	2	1	0	distractor	1	1107	447	22602	13.328	13.141	13.507
DTProbeTrack03	5	ProbeTrackDT	1.1	SCS215a	20101105.090017	20101105.090041	dt-generate	8	0.013328	60	10	60-180	60	137	GapPrac	1	4	2	1	1	target	1	773	614	23216	13.328	12.951	13.717
DTProbeTrack03	5	ProbeTrackDT	1.1	SCS215a	20101105.090017	20101105.090047	dt-generate	8	0.013328	60	10	60-180	60	135	GapPrac	1	5	2	9	1	target	1	2159	0	23216	13.328	13.091	13.559
DTProbeTrack03	5	ProbeTrackDT	1.1	SCS215a	20101105.090017	20101105.090055	dt-generate	8	0.013328	60	10	60-180	60	130	GapPrac	1	6	2	6	0	distractor	1	853	574	23790	13.328	12.981	13.672
DTProbeTrack03	5	ProbeTrackDT	1.1	SCS215a	20101105.090017	20101105.090101	dt-generate	8	0.013328	60	10	60-180	60	174	GapPrac	1	7	2	45	1	distractor	0	733	-1000	22790	13.328	12.852	13.800
DTProbeTrack03	5	ProbeTrackDT	1.1	SCS215a	20101105.090017	20101105.090108	dt-generate	8	0.013328	60	10	60-180	60	162	GapPrac	1	8	2	3	0	distractor	1	838	581	23371	13.414	12.883	27.005
DTProbeTrack03	5	ProbeTrackDT	1.1	SCS215a	20101105.090017	20101105.090114	dt-generate	8	0.013328	60	10	60-180	60	92	GapPrac	1	9	2	45	0	distractor	1	1413	294	23665	13.328	12.897	13.771
DTProbeTrack03	5	ProbeTrackDT	1.1	SCS215a	20101105.090017	20101105.090121	dt-generate	8	0.013328	60	10	60-180	60	71	GapPrac	1	10	2	45	1	distractor	0	640	-1000	22665	13.328	13.084	13.564
DTProbeTrack03	5	ProbeTrackDT	1.1	SCS215a	20101105.090017	20101105.090126	dt-generate	8	0.013328	60	10	60-180	60	174	GapPrac	1	11	2	6	1	target	1	614	693	23358	13.328	13.111	13.561
DTProbeTrack03	5	ProbeTrackDT	1.1	SCS215a	20101105.090017	20101105.090133	dt-generate	8	0.013328	60	10	60-180	60	157	GapPrac	1	12	2	3	1	target	1	1640	180	23538	13.328	12.866	13.801
DTProbeTrack03	5	ProbeTrackDT	1.1	SCS215a	20101105.090017	20101105.090140	dt-generate	8	0.013328	60	10	60-180	60	116	GapPrac	1	13	2	3	0	distractor	1	747	627	24165	13.328	13.085	13.578
DTProbeTrack03	5	ProbeTrackDT	1.1	SCS215a	20101105.090017	20101105.090146	dt-generate	8	0.013328	60	10	60-180	60	96	GapPrac	1	14	2	9	0	distractor	1	840	580	24745	13.328	12.839	13.825
DTProbeTrack03	5	ProbeTrackDT	1.1	SCS215a	20101105.090017	20101105.090151	dt-generate	8	0.013328	60	10	60-180	60	178	GapPrac	1	15	2	3	1	target	1	1720	140	24885	13.328	12.897	13.762
DTProbeTrack03	5	ProbeTrackDT	1.1	SCS215a	20101105.090017	20101105.090159	dt-generate	8	0.013328	60	10	60-180	60	172	GapPrac	1	16	2	6	1	target	1	840	580	25465	13.328	12.871	13.787
DTProbeTrack03	5	ProbeTrackDT	1.1	SCS215a	20101105.090017	20101105.090205	dt-generate	8	0.013328	60	10	60-180	60	179	GapPrac	1	17	2	9	1	target	1	800	600	26065	13.328	12.896	13.760
DTProbeTrack03	5	ProbeTrackDT	1.1	SCS215a	20101105.090017	20101105.090212	dt-generate	8	0.013328	60	10	60-180	60	141	GapPrac	1	18	2	1	1	target	1	1133	434	26499	13.328	12.902	13.761
DTProbeTrack03	5	ProbeTrackDT	1.1	SCS215a	20101105.090017	20101105.090219	dt-generate	8	0.013328	60	10	60-180	60	133	GapPrac	1	19	2	6	0	target	0	1266	-1000	25499	13.328	12.856	13.805
DTProbeTrack03	5	ProbeTrackDT	1.1	SCS215a	20101105.090017	20101105.090225	dt-generate	8	0.013328	60	10	60-180	60	123	GapPrac	1	20	2	45	0	distractor	1	720	640	26139	13.328	13.109	13.554
DTProbeTrack03	5	ProbeTrackDT	1.1	SCS215a	20101105.090344	20101105.090349	dt-generate	8	0.013328	60	10	60-180	60	145	GapExp	1	1	2	3	1	target	1	1840	80	26219	13.328	12.978	13.675
DTProbeTrack03	5	ProbeTrackDT	1.1	SCS215a	20101105.090344	20101105.090356	dt-generate	8	0.013328	60	10	60-180	60	133	GapExp	1	2	2	45	1	target	1	628	686	26905	13.328	12.843	13.791
DTProbeTrack03	5	ProbeTrackDT	1.1	SCS215a	20101105.090344	20101105.090402	dt-generate	8	0.013328	60	10	60-180	60	94	GapExp	1	3	2	1	0	distractor	1	1267	367	27272	13.328	12.969	13.690
DTProbeTrack03	5	ProbeTrackDT	1.1	SCS215a	20101105.090344	20101105.090408	dt-generate	8	0.013328	60	10	60-180	60	96	GapExp	1	4	2	9	1	target	1	800	600	27872	13.328	12.859	13.805
DTProbeTrack03	5	ProbeTrackDT	1.1	SCS215a	20101105.090344	20101105.090414	dt-generate	8	0.013328	60	10	60-180	60	76	GapExp	1	5	2	45	0	distractor	1	707	647	28519	13.328	13.010	13.645
DTProbeTrack03	5	ProbeTrackDT	1.1	SCS215a	20101105.090344	20101105.090420	dt-generate	8	0.013328	60	10	60-180	60	136	GapExp	0	6	2	9	0	distractor	1	800	600	29119	13.328	12.989	13.680
DTProbeTrack03	5	ProbeTrackDT	1.1	SCS215a	20101105.090344	20101105.090426	dt-generate	8	0.013328	60	10	60-180	60	135	GapExp	0	7	2	6	1	target	1	867	567	29686	13.328	12.988	13.674
DTProbeTrack03	5	ProbeTrackDT	1.1	SCS215a	20101105.090344	20101105.090432	dt-generate	8	0.013328	60	10	60-180	60	108	GapExp	0	8	2	45	0	distractor	1	547	727	30413	13.328	12.962	13.686
DTProbeTrack03	5	ProbeTrackDT	1.1	SCS215a	20101105.090344	20101105.090438	dt-generate	8	0.013328	60	10	60-180	60	134	GapExp	0	9	2	3	0	distractor	1	667	667	31080	13.328	12.946	13.701
DTProbeTrack03	5	ProbeTrackDT	1.1	SCS215a	20101105.090344	20101105.090444	dt-generate	8	0.013328	60	10	60-180	60	122	GapExp	0	10	2	3	1	distractor	0	880	-1000	30080	13.328	13.301	13.351
DTProbeTrack03	5	ProbeTrackDT	1.1	SCS215a	20101105.090344	20101105.090450	dt-generate	8	0.013328	60	10	60-180	60	160	GapExp	0	11	2	9	0	distractor	1	627	687	30767	13.328	12.863	13.788
DTProbeTrack03	5	ProbeTrackDT	1.1	SCS215a	20101105.090344	20101105.090456	dt-generate	8	0.013328	60	10	60-180	60	118	GapExp	0	12	2	3	0	distractor	1	1000	500	31267	13.328	12.936	13.723
DTProbeTrack03	5	ProbeTrackDT	1.1	SCS215a	20101105.090344	20101105.090502	dt-generate	8	0.013328	60	10	60-180	60	137	GapExp	0	13	2	3	1	target	1	1040	480	31747	13.328	13.037	13.612
DTProbeTrack03	5	ProbeTrackDT	1.1	SCS215a	20101105.090344	20101105.090508	dt-generate	8	0.013328	60	10	60-180	60	85	GapExp	0	14	2	45	1	target	1	800	600	32347	13.328	13.098	13.546
DTProbeTrack03	5	ProbeTrackDT	1.1	SCS215a	20101105.090344	20101105.090514	dt-generate	8	0.013328	60	10	60-180	60	118	GapExp	0	15	2	45	0	distractor	1	1253	374	32721	13.328	13.091	13.555
DTProbeTrack03	5	ProbeTrackDT	1.1	SCS215a	20101105.090344	20101105.090521	dt-generate	8	0.013328	60	10	60-180	60	133	GapExp	0	16	2	9	1	target	1	1240	380	33101	13.328	13.095	13.555
DTProbeTrack03	5	ProbeTrackDT	1.1	SCS215a	20101105.090344	20101105.090528	dt-generate	8	0.013328	60	10	60-180	60	118	GapExp	0	17	2	45	1	target	1	1720	140	33241	13.328	13.029	13.617
DTProbeTrack03	5	ProbeTrackDT	1.1	SCS215a	20101105.090344	20101105.090535	dt-generate	8	0.013328	60	10	60-180	60	94	GapExp	0	18	2	9	0	distractor	1	973	514	33755	13.328	12.856	13.789
DTProbeTrack03	5	ProbeTrackDT	1.1	SCS215a	20101105.090344	20101105.090541	dt-generate	8	0.013328	60	10	60-180	60	63	GapExp	0	19	2	6	1	target	1	787	607	34362	13.328	13.307	13.355
DTProbeTrack03	5	ProbeTrackDT	1.1	SCS215a	20101105.090344	20101105.090546	dt-generate	8	0.013328	60	10	60-180	60	113	GapExp	0	20	2	3	0	distractor	1	840	580	34942	13.328	12.908	13.756
DTProbeTrack03	5	ProbeTrackDT	1.1	SCS215a	20101105.090344	20101105.090551	dt-generate	8	0.013328	60	10	60-180	60	106	GapExp	0	21	2	9	0	distractor	1	1893	54	34996	13.328	12.969	13.688
DTProbeTrack03	5	ProbeTrackDT	1.1	SCS215a	20101105.090344	20101105.090558	dt-generate	8	0.013328	60	10	60-180	60	145	GapExp	0	22	2	45	1	target	1	720	640	35636	13.328	13.085	13.556
DTProbeTrack03	5	ProbeTrackDT	1.1	SCS215a	20101105.090344	20101105.090605	dt-generate	8	0.013328	60	10	60-180	60	86	GapExp	0	23	2	6	1	target	1	693	654	36290	13.386	12.848	27.139
DTProbeTrack03	5	ProbeTrackDT	1.1	SCS215a	20101105.090344	20101105.090610	dt-generate	8	0.013328	60	10	60-180	60	81	GapExp	0	24	2	9	0	distractor	1	840	580	36870	13.328	12.950	13.706
DTProbeTrack03	5	ProbeTrackDT	1.1	SCS215a	20101105.090344	20101105.090616	dt-generate	8	0.013328	60	10	60-180	60	104	GapExp	0	25	2	1	1	target	1	587	707	37577	13.328	13.072	13.594
DTProbeTrack03	5	ProbeTrackDT	1.1	SCS215a	20101105.090344	20101105.090621	dt-generate	8	0.013328	60	10	60-180	60	103	GapExp	0	26	2	45	0	distractor	1	680	660	38237	13.328	13.042	13.612
DTProbeTrack03	5	ProbeTrackDT	1.1	SCS215a	20101105.090344	20101105.090627	dt-generate	8	0.013328	60	10	60-180	60	146	GapExp	0	27	2	45	0	distractor	1	560	720	38957	13.328	13.098	13.571
DTProbeTrack03	5	ProbeTrackDT	1.1	SCS215a	20101105.090344	20101105.090634	dt-generate	8	0.013328	60	10	60-180	60	94	GapExp	0	28	2	3	1	distractor	0	760	-1000	37957	13.328	13.016	13.633
DTProbeTrack03	5	ProbeTrackDT	1.1	SCS215a	20101105.090344	20101105.090639	dt-generate	8	0.013328	60	10	60-180	60	124	GapExp	0	29	2	9	1	target	1	1213	394	38351	13.328	13.020	13.650
DTProbeTrack03	5	ProbeTrackDT	1.1	SCS215a	20101105.090344	20101105.090645	dt-generate	8	0.013328	60	10	60-180	60	102	GapExp	0	30	2	1	0	distractor	1	933	534	38885	13.328	12.985	13.685
DTProbeTrack03	5	ProbeTrackDT	1.1	SCS215a	20101105.090344	20101105.090651	dt-generate	8	0.013328	60	10	60-180	60	174	GapExp	0	31	2	1	1	target	1	680	660	39545	13.328	12.871	13.786
DTProbeTrack03	5	ProbeTrackDT	1.1	SCS215a	20101105.090344	20101105.090658	dt-generate	8	0.013328	60	10	60-180	60	69	GapExp	0	32	2	45	1	target	1	480	760	40305	13.328	12.903	13.755
DTProbeTrack03	5	ProbeTrackDT	1.1	SCS215a	20101105.090344	20101105.090703	dt-generate	8	0.013328	60	10	60-180	60	61	GapExp	0	33	2	6	0	target	0	987	-1000	39305	13.328	12.864	13.783
DTProbeTrack03	5	ProbeTrackDT	1.1	SCS215a	20101105.090344	20101105.090708	dt-generate	8	0.013328	60	10	60-180	60	65	GapExp	0	34	2	3	0	distractor	1	1227	387	39692	13.328	12.975	13.694
DTProbeTrack03	5	ProbeTrackDT	1.1	SCS215a	20101105.090344	20101105.090714	dt-generate	8	0.013328	60	10	60-180	60	74	GapExp	0	35	2	3	1	target	1	747	627	40319	13.328	13.004	13.658
DTProbeTrack03	5	ProbeTrackDT	1.1	SCS215a	20101105.090344	20101105.090719	dt-generate	8	0.013328	60	10	60-180	60	171	GapExp	0	36	2	45	0	distractor	1	1346	327	40646	13.328	12.850	13.812
DTProbeTrack03	5	ProbeTrackDT	1.1	SCS215a	20101105.090344	20101105.090726	dt-generate	8	0.013328	60	10	60-180	60	70	GapExp	0	37	2	1	0	distractor	1	1746	127	40773	13.328	12.944	13.759
DTProbeTrack03	5	ProbeTrackDT	1.1	SCS215a	20101105.090344	20101105.090733	dt-generate	8	0.013328	60	10	60-180	60	117	GapExp	0	38	2	1	1	distractor	0	2359	-1000	39773	13.328	12.930	13.740
DTProbeTrack03	5	ProbeTrackDT	1.1	SCS215a	20101105.090344	20101105.090740	dt-generate	8	0.013328	60	10	60-180	60	72	GapExp	0	39	2	6	0	target	0	1973	-1000	38773	13.328	13.274	13.366
DTProbeTrack03	5	ProbeTrackDT	1.1	SCS215a	20101105.090344	20101105.090746	dt-generate	8	0.013328	60	10	60-180	60	117	GapExp	0	40	2	45	0	distractor	1	427	787	39560	13.328	12.993	13.676
DTProbeTrack03	5	ProbeTrackDT	1.1	SCS215a	20101105.090344	20101105.090752	dt-generate	8	0.013328	60	10	60-180	60	178	GapExp	0	41	2	45	0	distractor	1	693	654	40214	13.328	12.966	13.699
DTProbeTrack03	5	ProbeTrackDT	1.1	SCS215a	20101105.090344	20101105.090759	dt-generate	8	0.013328	60	10	60-180	60	148	GapExp	0	42	2	6	0	distractor	1	1786	107	40321	13.328	12.882	13.777
DTProbeTrack03	5	ProbeTrackDT	1.1	SCS215a	20101105.090344	20101105.090807	dt-generate	8	0.013328	60	10	60-180	60	123	GapExp	0	43	2	6	1	distractor	0	987	-1000	39321	13.328	13.307	13.356
DTProbeTrack03	5	ProbeTrackDT	1.1	SCS215a	20101105.090344	20101105.090813	dt-generate	8	0.013328	60	10	60-180	60	140	GapExp	0	44	2	1	1	target	1	2013	0	39321	13.328	13.277	13.367
DTProbeTrack03	5	ProbeTrackDT	1.1	SCS215a	20101105.090344	20101105.090820	dt-generate	8	0.013328	60	10	60-180	60	123	GapExp	0	45	2	1	0	distractor	1	653	674	39995	13.328	13.296	13.362
DTProbeTrack03	5	ProbeTrackDT	1.1	SCS215a	20101105.090344	20101105.090826	dt-generate	8	0.013328	60	10	60-180	60	176	GapExp	0	46	2	9	1	distractor	0	667	-1000	38995	13.328	13.100	13.600
DTProbeTrack03	5	ProbeTrackDT	1.1	SCS215a	20101105.090344	20101105.090832	dt-generate	8	0.013328	60	10	60-180	60	171	GapExp	0	47	2	6	1	target	1	1200	400	39395	13.328	13.016	13.633
DTProbeTrack03	5	ProbeTrackDT	1.1	SCS215a	20101105.090344	20101105.090839	dt-generate	8	0.013328	60	10	60-180	60	104	GapExp	0	48	2	9	0	distractor	1	680	660	40055	13.328	13.111	13.553
DTProbeTrack03	5	ProbeTrackDT	1.1	SCS215a	20101105.090344	20101105.090845	dt-generate	8	0.013328	60	10	60-180	60	161	GapExp	0	49	2	1	0	distractor	1	654	673	40728	13.328	12.904	13.746
DTProbeTrack03	5	ProbeTrackDT	1.1	SCS215a	20101105.090344	20101105.090851	dt-generate	8	0.013328	60	10	60-180	60	71	GapExp	0	50	2	1	1	target	1	1120	440	41168	13.328	12.966	13.678
DTProbeTrack03	5	ProbeTrackDT	1.1	SCS215a	20101105.090344	20101105.090928	dt-generate	8	0.013328	60	10	60-180	60	66	GapExp	0	51	2	45	0	distractor	1	1000	500	41668	13.328	12.924	13.733
DTProbeTrack03	5	ProbeTrackDT	1.1	SCS215a	20101105.090344	20101105.090934	dt-generate	8	0.013328	60	10	60-180	60	170	GapExp	0	52	2	1	1	target	1	1133	434	42102	13.328	12.977	13.677
DTProbeTrack03	5	ProbeTrackDT	1.1	SCS215a	20101105.090344	20101105.090941	dt-generate	8	0.013328	60	10	60-180	60	145	GapExp	0	53	2	1	0	distractor	1	867	567	42669	13.328	13.106	13.561
DTProbeTrack03	5	ProbeTrackDT	1.1	SCS215a	20101105.090344	20101105.090947	dt-generate	8	0.013328	60	10	60-180	60	107	GapExp	0	54	2	3	1	distractor	0	614	-1000	41669	13.328	13.309	13.347
DTProbeTrack03	5	ProbeTrackDT	1.1	SCS215a	20101105.090344	20101105.090952	dt-generate	8	0.013328	60	10	60-180	60	100	GapExp	0	55	2	9	0	distractor	1	747	627	42296	13.328	13.054	13.593
DTProbeTrack03	5	ProbeTrackDT	1.1	SCS215a	20101105.090344	20101105.090958	dt-generate	8	0.013328	60	10	60-180	60	163	GapExp	0	56	2	45	0	distractor	1	1027	487	42783	13.328	13.073	13.580
DTProbeTrack03	5	ProbeTrackDT	1.1	SCS215a	20101105.090344	20101105.091005	dt-generate	8	0.013328	60	10	60-180	60	143	GapExp	0	57	2	9	1	target	1	787	607	43390	13.328	12.926	13.737
DTProbeTrack03	5	ProbeTrackDT	1.1	SCS215a	20101105.090344	20101105.091011	dt-generate	8	0.013328	60	10	60-180	60	153	GapExp	0	58	2	1	0	distractor	1	1466	267	43657	13.328	12.846	13.799
DTProbeTrack03	5	ProbeTrackDT	1.1	SCS215a	20101105.090344	20101105.091018	dt-generate	8	0.013328	60	10	60-180	60	113	GapExp	0	59	2	1	0	distractor	1	800	600	44257	13.328	12.884	13.772
DTProbeTrack03	5	ProbeTrackDT	1.1	SCS215a	20101105.090344	20101105.091024	dt-generate	8	0.013328	60	10	60-180	60	93	GapExp	0	60	2	9	1	distractor	0	2293	-1000	43257	13.328	12.858	13.805
DTProbeTrack03	5	ProbeTrackDT	1.1	SCS215a	20101105.090344	20101105.091031	dt-generate	8	0.013328	60	10	60-180	60	127	GapExp	0	61	2	3	0	distractor	1	1027	487	43744	13.328	12.848	13.807
DTProbeTrack03	5	ProbeTrackDT	1.1	SCS215a	20101105.090344	20101105.091037	dt-generate	8	0.013328	60	10	60-180	60	116	GapExp	0	62	2	9	0	distractor	1	600	700	44444	13.328	13.307	13.350
DTProbeTrack03	5	ProbeTrackDT	1.1	SCS215a	20101105.090344	20101105.091043	dt-generate	8	0.013328	60	10	60-180	60	153	GapExp	0	63	2	45	0	target	0	707	-1000	43444	13.328	13.072	13.586
DTProbeTrack03	5	ProbeTrackDT	1.1	SCS215a	20101105.090344	20101105.091050	dt-generate	8	0.013328	60	10	60-180	60	159	GapExp	0	64	2	45	1	distractor	0	947	-1000	42444	13.328	12.979	13.680
DTProbeTrack03	5	ProbeTrackDT	1.1	SCS215a	20101105.090344	20101105.091057	dt-generate	8	0.013328	60	10	60-180	60	102	GapExp	0	65	2	3	1	target	1	1986	7	42451	13.328	13.194	13.463
DTProbeTrack03	5	ProbeTrackDT	1.1	SCS215a	20101105.090344	20101105.091103	dt-generate	8	0.013328	60	10	60-180	60	163	GapExp	0	66	2	6	1	distractor	0	853	-1000	41451	13.328	12.882	13.773
DTProbeTrack03	5	ProbeTrackDT	1.1	SCS215a	20101105.090344	20101105.091110	dt-generate	8	0.013328	60	10	60-180	60	107	GapExp	0	67	2	45	0	target	0	960	-1000	40451	13.328	12.865	13.796
DTProbeTrack03	5	ProbeTrackDT	1.1	SCS215a	20101105.090344	20101105.091116	dt-generate	8	0.013328	60	10	60-180	60	68	GapExp	0	68	2	6	1	distractor	0	534	-1000	39451	13.328	12.935	13.707
DTProbeTrack03	5	ProbeTrackDT	1.1	SCS215a	20101105.090344	20101105.091121	dt-generate	8	0.013328	60	10	60-180	60	161	GapExp	0	69	2	45	1	target	1	880	560	40011	13.328	12.843	13.803
DTProbeTrack03	5	ProbeTrackDT	1.1	SCS215a	20101105.090344	20101105.091128	dt-generate	8	0.013328	60	10	60-180	60	153	GapExp	0	70	2	9	1	target	1	867	567	40578	13.328	13.099	13.540
DTProbeTrack03	5	ProbeTrackDT	1.1	SCS215a	20101105.090344	20101105.091135	dt-generate	8	0.013328	60	10	60-180	60	106	GapExp	0	71	2	45	1	target	1	720	640	41218	13.328	12.902	13.767
DTProbeTrack03	5	ProbeTrackDT	1.1	SCS215a	20101105.090344	20101105.091141	dt-generate	8	0.013328	60	10	60-180	60	125	GapExp	0	72	2	6	1	target	1	547	727	41945	13.328	13.307	13.347
DTProbeTrack03	5	ProbeTrackDT	1.1	SCS215a	20101105.090344	20101105.091146	dt-generate	8	0.013328	60	10	60-180	60	88	GapExp	0	73	2	6	0	distractor	1	1266	367	42312	13.328	12.922	13.750
DTProbeTrack03	5	ProbeTrackDT	1.1	SCS215a	20101105.090344	20101105.091152	dt-generate	8	0.013328	60	10	60-180	60	143	GapExp	0	74	2	1	1	target	1	773	614	42926	13.328	13.304	13.350
DTProbeTrack03	5	ProbeTrackDT	1.1	SCS215a	20101105.090344	20101105.091158	dt-generate	8	0.013328	60	10	60-180	60	106	GapExp	0	75	2	3	1	target	1	667	667	43593	13.328	13.309	13.353
DTProbeTrack03	5	ProbeTrackDT	1.1	SCS215a	20101105.090344	20101105.091204	dt-generate	8	0.013328	60	10	60-180	60	135	GapExp	0	76	2	1	0	distractor	1	693	654	44247	13.328	13.296	13.353
DTProbeTrack03	5	ProbeTrackDT	1.1	SCS215a	20101105.090344	20101105.091210	dt-generate	8	0.013328	60	10	60-180	60	156	GapExp	0	77	2	9	0	target	0	813	-1000	43247	13.328	13.106	13.565
DTProbeTrack03	5	ProbeTrackDT	1.1	SCS215a	20101105.090344	20101105.091216	dt-generate	8	0.013328	60	10	60-180	60	105	GapExp	0	78	2	9	0	distractor	1	640	680	43927	13.328	12.875	13.778
DTProbeTrack03	5	ProbeTrackDT	1.1	SCS215a	20101105.090344	20101105.091222	dt-generate	8	0.013328	60	10	60-180	60	105	GapExp	0	79	2	6	0	distractor	1	640	680	44607	13.328	13.099	13.565
DTProbeTrack03	5	ProbeTrackDT	1.1	SCS215a	20101105.090344	20101105.091227	dt-generate	8	0.013328	60	10	60-180	60	119	GapExp	0	80	2	6	0	distractor	1	1866	67	44674	13.328	13.015	13.641
DTProbeTrack03	5	ProbeTrackDT	1.1	SCS215a	20101105.090344	20101105.091234	dt-generate	8	0.013328	60	10	60-180	60	172	GapExp	0	81	2	1	1	target	1	1093	454	45128	13.328	12.966	13.693
DTProbeTrack03	5	ProbeTrackDT	1.1	SCS215a	20101105.090344	20101105.091241	dt-generate	8	0.013328	60	10	60-180	60	140	GapExp	0	82	2	45	1	target	1	560	720	45848	13.328	13.103	13.566
DTProbeTrack03	5	ProbeTrackDT	1.1	SCS215a	20101105.090344	20101105.091247	dt-generate	8	0.013328	60	10	60-180	60	80	GapExp	0	83	2	3	1	distractor	0	640	-1000	44848	13.328	13.302	13.348
DTProbeTrack03	5	ProbeTrackDT	1.1	SCS215a	20101105.090344	20101105.091253	dt-generate	8	0.013328	60	10	60-180	60	118	GapExp	0	84	2	1	0	target	0	667	-1000	43848	13.328	12.873	13.776
DTProbeTrack03	5	ProbeTrackDT	1.1	SCS215a	20101105.090344	20101105.091258	dt-generate	8	0.013328	60	10	60-180	60	90	GapExp	0	85	2	45	1	target	1	1000	500	44348	13.328	13.093	13.551
DTProbeTrack03	5	ProbeTrackDT	1.1	SCS215a	20101105.090344	20101105.091304	dt-generate	8	0.013328	60	10	60-180	60	95	GapExp	0	86	2	9	0	distractor	1	1240	380	44728	13.328	12.871	13.792
DTProbeTrack03	5	ProbeTrackDT	1.1	SCS215a	20101105.090344	20101105.091310	dt-generate	8	0.013328	60	10	60-180	60	93	GapExp	0	87	2	45	1	target	1	3639	0	44728	13.328	13.098	13.558
DTProbeTrack03	5	ProbeTrackDT	1.1	SCS215a	20101105.090344	20101105.091319	dt-generate	8	0.013328	60	10	60-180	60	72	GapExp	0	88	2	3	0	distractor	1	2133	0	44728	13.328	13.104	13.550
DTProbeTrack03	5	ProbeTrackDT	1.1	SCS215a	20101105.090344	20101105.091326	dt-generate	8	0.013328	60	10	60-180	60	65	GapExp	0	89	2	1	1	distractor	0	2759	-1000	43728	13.328	13.001	13.655
DTProbeTrack03	5	ProbeTrackDT	1.1	SCS215a	20101105.090344	20101105.091333	dt-generate	8	0.013328	60	10	60-180	60	161	GapExp	0	90	2	45	1	target	1	627	687	44415	13.328	12.854	13.805
DTProbeTrack03	5	ProbeTrackDT	1.1	SCS215a	20101105.090344	20101105.091340	dt-generate	8	0.013328	60	10	60-180	60	126	GapExp	0	91	2	6	0	distractor	1	587	707	45122	13.328	12.878	13.763
DTProbeTrack03	5	ProbeTrackDT	1.1	SCS215a	20101105.090344	20101105.091345	dt-generate	8	0.013328	60	10	60-180	60	83	GapExp	0	92	2	1	1	target	1	1040	480	45602	13.328	12.910	13.743
DTProbeTrack03	5	ProbeTrackDT	1.1	SCS215a	20101105.090344	20101105.091351	dt-generate	8	0.013328	60	10	60-180	60	138	GapExp	0	93	2	3	0	distractor	1	667	667	46269	13.328	13.309	13.347
DTProbeTrack03	5	ProbeTrackDT	1.1	SCS215a	20101105.090344	20101105.091357	dt-generate	8	0.013328	60	10	60-180	60	92	GapExp	0	94	2	6	1	target	1	1200	400	46669	13.328	13.309	13.348
DTProbeTrack03	5	ProbeTrackDT	1.1	SCS215a	20101105.090344	20101105.091403	dt-generate	8	0.013328	60	10	60-180	60	116	GapExp	0	95	2	9	1	target	1	640	680	47349	13.328	12.958	13.686
DTProbeTrack03	5	ProbeTrackDT	1.1	SCS215a	20101105.090344	20101105.091408	dt-generate	8	0.013328	60	10	60-180	60	117	GapExp	0	96	2	6	0	distractor	1	1320	340	47689	13.328	13.068	13.589
DTProbeTrack03	5	ProbeTrackDT	1.1	SCS215a	20101105.090344	20101105.091415	dt-generate	8	0.013328	60	10	60-180	60	65	GapExp	0	97	2	9	1	target	1	653	674	48363	13.328	12.878	13.780
DTProbeTrack03	5	ProbeTrackDT	1.1	SCS215a	20101105.090344	20101105.091420	dt-generate	8	0.013328	60	10	60-180	60	146	GapExp	0	98	2	3	1	target	1	653	674	49037	13.328	12.881	13.786
DTProbeTrack03	5	ProbeTrackDT	1.1	SCS215a	20101105.090344	20101105.091426	dt-generate	8	0.013328	60	10	60-180	60	136	GapExp	0	99	2	1	0	distractor	1	933	534	49571	13.328	12.897	13.773
DTProbeTrack03	5	ProbeTrackDT	1.1	SCS215a	20101105.090344	20101105.091432	dt-generate	8	0.013328	60	10	60-180	60	99	GapExp	0	100	2	1	0	distractor	1	688	656	50227	13.328	12.915	13.738
DTProbeTrack03	5	ProbeTrackDT	1.1	SCS215a	20101105.090344	20101105.091507	dt-generate	8	0.013328	60	10	60-180	60	157	GapExp	0	101	2	6	1	target	1	947	527	50754	13.328	12.859	13.806
DTProbeTrack03	5	ProbeTrackDT	1.1	SCS215a	20101105.090344	20101105.091513	dt-generate	8	0.013328	60	10	60-180	60	97	GapExp	0	102	2	45	1	distractor	0	387	-1000	49754	13.328	13.301	13.358
DTProbeTrack03	5	ProbeTrackDT	1.1	SCS215a	20101105.090344	20101105.091519	dt-generate	8	0.013328	60	10	60-180	60	81	GapExp	0	103	2	3	1	target	1	654	673	50427	13.328	12.920	13.734
DTProbeTrack03	5	ProbeTrackDT	1.1	SCS215a	20101105.090344	20101105.091524	dt-generate	8	0.013328	60	10	60-180	60	159	GapExp	0	104	2	6	1	target	1	760	620	51047	13.328	13.105	13.548
DTProbeTrack03	5	ProbeTrackDT	1.1	SCS215a	20101105.090344	20101105.091530	dt-generate	8	0.013328	60	10	60-180	60	110	GapExp	0	105	2	3	0	distractor	1	840	580	51627	13.328	12.986	13.641
DTProbeTrack03	5	ProbeTrackDT	1.1	SCS215a	20101105.090344	20101105.091536	dt-generate	8	0.013328	60	10	60-180	60	94	GapExp	0	106	2	3	1	target	1	667	667	52294	13.328	12.885	13.752
DTProbeTrack03	5	ProbeTrackDT	1.1	SCS215a	20101105.090344	20101105.091542	dt-generate	8	0.013328	60	10	60-180	60	82	GapExp	0	107	2	45	0	distractor	1	520	740	53034	13.328	12.951	13.716
DTProbeTrack03	5	ProbeTrackDT	1.1	SCS215a	20101105.090344	20101105.091547	dt-generate	8	0.013328	60	10	60-180	60	89	GapExp	0	108	2	3	0	target	0	587	-1000	52034	13.328	12.844	13.814
DTProbeTrack03	5	ProbeTrackDT	1.1	SCS215a	20101105.090344	20101105.091552	dt-generate	8	0.013328	60	10	60-180	60	108	GapExp	0	109	2	1	1	target	1	1000	500	52534	13.328	12.928	13.733
DTProbeTrack03	5	ProbeTrackDT	1.1	SCS215a	20101105.090344	20101105.091558	dt-generate	8	0.013328	60	10	60-180	60	76	GapExp	0	110	2	6	0	distractor	1	627	687	53221	13.328	12.848	13.803
DTProbeTrack03	5	ProbeTrackDT	1.1	SCS215a	20101105.090344	20101105.091603	dt-generate	8	0.013328	60	10	60-180	60	112	GapExp	0	111	2	45	0	distractor	1	667	667	53888	13.328	12.889	13.768
DTProbeTrack03	5	ProbeTrackDT	1.1	SCS215a	20101105.090344	20101105.091610	dt-generate	8	0.013328	60	10	60-180	60	96	GapExp	0	112	2	6	0	distractor	1	2559	0	53888	13.328	12.951	13.697
DTProbeTrack03	5	ProbeTrackDT	1.1	SCS215a	20101105.090344	20101105.091617	dt-generate	8	0.013328	60	10	60-180	60	128	GapExp	0	113	2	6	0	distractor	1	1480	260	54148	13.328	12.859	13.781
DTProbeTrack03	5	ProbeTrackDT	1.1	SCS215a	20101105.090344	20101105.091624	dt-generate	8	0.013328	60	10	60-180	60	112	GapExp	0	114	2	9	0	distractor	1	1000	500	54648	13.328	12.858	13.783
DTProbeTrack03	5	ProbeTrackDT	1.1	SCS215a	20101105.090344	20101105.091630	dt-generate	8	0.013328	60	10	60-180	60	107	GapExp	0	115	2	45	1	target	1	1173	414	55062	13.328	12.860	13.791
DTProbeTrack03	5	ProbeTrackDT	1.1	SCS215a	20101105.090344	20101105.091636	dt-generate	8	0.013328	60	10	60-180	60	152	GapExp	0	116	2	3	1	distractor	0	840	-1000	54062	13.328	13.304	13.353
DTProbeTrack03	5	ProbeTrackDT	1.1	SCS215a	20101105.090344	20101105.091643	dt-generate	8	0.013328	60	10	60-180	60	132	GapExp	0	117	2	9	1	target	1	560	720	54782	13.624	12.858	93.767
DTProbeTrack03	5	ProbeTrackDT	1.1	SCS215a	20101105.090344	20101105.091648	dt-generate	8	0.013328	60	10	60-180	60	77	GapExp	0	118	2	45	0	distractor	1	693	654	55436	13.328	13.114	13.544
DTProbeTrack03	5	ProbeTrackDT	1.1	SCS215a	20101105.090344	20101105.091654	dt-generate	8	0.013328	60	10	60-180	60	85	GapExp	0	119	2	45	0	distractor	1	1240	380	55816	13.328	13.099	13.548
DTProbeTrack03	5	ProbeTrackDT	1.1	SCS215a	20101105.090344	20101105.091701	dt-generate	8	0.013328	60	10	60-180	60	94	GapExp	0	120	2	45	1	distractor	0	760	-1000	54816	13.328	12.966	13.707
DTProbeTrack03	5	ProbeTrackDT	1.1	SCS215a	20101105.090344	20101105.091707	dt-generate	8	0.013328	60	10	60-180	60	163	GapExp	0	121	2	6	0	distractor	1	1133	434	55250	13.328	12.930	13.724
DTProbeTrack03	5	ProbeTrackDT	1.1	SCS215a	20101105.090344	20101105.091713	dt-generate	8	0.013328	60	10	60-180	60	168	GapExp	0	122	2	6	1	target	1	1573	214	55464	13.328	12.944	13.716
DTProbeTrack03	5	ProbeTrackDT	1.1	SCS215a	20101105.090344	20101105.091721	dt-generate	8	0.013328	60	10	60-180	60	131	GapExp	0	123	2	1	1	target	1	1040	480	55944	13.328	13.306	13.348
DTProbeTrack03	5	ProbeTrackDT	1.1	SCS215a	20101105.090344	20101105.091727	dt-generate	8	0.013328	60	10	60-180	60	166	GapExp	0	124	2	1	1	distractor	0	600	-1000	54944	13.328	13.055	13.603
DTProbeTrack03	5	ProbeTrackDT	1.1	SCS215a	20101105.090344	20101105.091733	dt-generate	8	0.013328	60	10	60-180	60	73	GapExp	0	125	2	9	0	target	0	1493	-1000	53944	13.328	12.902	13.764
DTProbeTrack03	5	ProbeTrackDT	1.1	SCS215a	20101105.090344	20101105.091739	dt-generate	8	0.013328	60	10	60-180	60	99	GapExp	0	126	2	3	1	target	1	653	674	54618	13.328	12.841	13.812
DTProbeTrack03	5	ProbeTrackDT	1.1	SCS215a	20101105.090344	20101105.091744	dt-generate	8	0.013328	60	10	60-180	60	180	GapExp	0	127	2	45	1	target	1	667	667	55285	13.328	13.002	13.655
DTProbeTrack03	5	ProbeTrackDT	1.1	SCS215a	20101105.090344	20101105.091752	dt-generate	8	0.013328	60	10	60-180	60	151	GapExp	0	128	2	45	0	target	0	494	-1000	54285	13.328	12.919	13.752
DTProbeTrack03	5	ProbeTrackDT	1.1	SCS215a	20101105.090344	20101105.091758	dt-generate	8	0.013328	60	10	60-180	60	138	GapExp	0	129	2	45	1	target	1	1013	494	54779	13.328	13.088	13.570
DTProbeTrack03	5	ProbeTrackDT	1.1	SCS215a	20101105.090344	20101105.091805	dt-generate	8	0.013328	60	10	60-180	60	85	GapExp	0	130	2	9	0	distractor	1	747	627	55406	13.328	13.098	13.543
DTProbeTrack03	5	ProbeTrackDT	1.1	SCS215a	20101105.090344	20101105.091810	dt-generate	8	0.013328	60	10	60-180	60	153	GapExp	0	131	2	45	1	target	1	454	773	56179	13.328	13.021	13.619
DTProbeTrack03	5	ProbeTrackDT	1.1	SCS215a	20101105.090344	20101105.091817	dt-generate	8	0.013328	60	10	60-180	60	64	GapExp	0	132	2	3	0	distractor	1	2786	0	56179	13.328	12.872	13.787
DTProbeTrack03	5	ProbeTrackDT	1.1	SCS215a	20101105.090344	20101105.091824	dt-generate	8	0.013328	60	10	60-180	60	99	GapExp	0	133	2	6	1	target	1	1120	440	56619	13.328	13.307	13.347
DTProbeTrack03	5	ProbeTrackDT	1.1	SCS215a	20101105.090344	20101105.091830	dt-generate	8	0.013328	60	10	60-180	60	151	GapExp	0	134	2	6	0	distractor	1	627	687	57306	13.328	13.281	13.375
DTProbeTrack03	5	ProbeTrackDT	1.1	SCS215a	20101105.090344	20101105.091836	dt-generate	8	0.013328	60	10	60-180	60	64	GapExp	0	135	2	3	1	distractor	0	1386	-1000	56306	13.328	13.078	13.563
DTProbeTrack03	5	ProbeTrackDT	1.1	SCS215a	20101105.090344	20101105.091842	dt-generate	8	0.013328	60	10	60-180	60	62	GapExp	0	136	2	3	0	distractor	1	880	560	56866	13.328	12.911	13.747
DTProbeTrack03	5	ProbeTrackDT	1.1	SCS215a	20101105.090344	20101105.091847	dt-generate	8	0.013328	60	10	60-180	60	148	GapExp	0	137	2	6	0	distractor	1	534	733	57599	13.328	13.101	13.553
DTProbeTrack03	5	ProbeTrackDT	1.1	SCS215a	20101105.090344	20101105.091853	dt-generate	8	0.013328	60	10	60-180	60	168	GapExp	0	138	2	6	0	distractor	1	947	527	58126	13.328	12.930	13.737
DTProbeTrack03	5	ProbeTrackDT	1.1	SCS215a	20101105.090344	20101105.091859	dt-generate	8	0.013328	60	10	60-180	60	130	GapExp	0	139	2	3	1	target	1	667	667	58793	13.328	13.307	13.354
DTProbeTrack03	5	ProbeTrackDT	1.1	SCS215a	20101105.090344	20101105.091905	dt-generate	8	0.013328	60	10	60-180	60	120	GapExp	0	140	2	45	0	target	0	667	-1000	57793	13.328	13.311	13.349
DTProbeTrack03	5	ProbeTrackDT	1.1	SCS215a	20101105.090344	20101105.091912	dt-generate	8	0.013328	60	10	60-180	60	111	GapExp	0	141	2	9	1	target	1	813	594	58387	13.328	12.887	13.781
DTProbeTrack03	5	ProbeTrackDT	1.1	SCS215a	20101105.090344	20101105.091917	dt-generate	8	0.013328	60	10	60-180	60	127	GapExp	0	142	2	3	1	target	1	880	560	58947	13.376	12.895	27.086
DTProbeTrack03	5	ProbeTrackDT	1.1	SCS215a	20101105.090344	20101105.091923	dt-generate	8	0.013328	60	10	60-180	60	112	GapExp	0	143	2	1	0	target	0	627	-1000	57947	13.492	12.996	53.637
DTProbeTrack03	5	ProbeTrackDT	1.1	SCS215a	20101105.090344	20101105.091929	dt-generate	8	0.013328	60	10	60-180	60	130	GapExp	0	144	2	45	1	target	1	520	740	58687	13.328	12.987	13.655
DTProbeTrack03	5	ProbeTrackDT	1.1	SCS215a	20101105.090344	20101105.091935	dt-generate	8	0.013328	60	10	60-180	60	85	GapExp	0	145	2	6	1	target	1	1306	347	59034	13.328	13.113	13.552
DTProbeTrack03	5	ProbeTrackDT	1.1	SCS215a	20101105.090344	20101105.091941	dt-generate	8	0.013328	60	10	60-180	60	99	GapExp	0	146	2	1	0	target	0	627	-1000	58034	13.328	13.307	13.348
DTProbeTrack03	5	ProbeTrackDT	1.1	SCS215a	20101105.090344	20101105.091946	dt-generate	8	0.013328	60	10	60-180	60	116	GapExp	0	147	2	6	1	target	1	2040	0	58034	13.328	13.302	13.351
DTProbeTrack03	5	ProbeTrackDT	1.1	SCS215a	20101105.090344	20101105.091953	dt-generate	8	0.013328	60	10	60-180	60	120	GapExp	0	148	2	45	0	distractor	1	427	787	58821	13.328	13.305	13.346
DTProbeTrack03	5	ProbeTrackDT	1.1	SCS215a	20101105.090344	20101105.091959	dt-generate	8	0.013328	60	10	60-180	60	170	GapExp	0	149	2	9	0	target	0	2106	-1000	57821	13.328	13.007	13.644
DTProbeTrack03	5	ProbeTrackDT	1.1	SCS215a	20101105.090344	20101105.092007	dt-generate	8	0.013328	60	10	60-180	60	146	GapExp	0	150	2	3	1	target	1	2346	0	57821	13.328	13.017	13.629
DTProbeTrack03	5	ProbeTrackDT	1.1	SCS215a	20101105.090344	20101105.092039	dt-generate	8	0.013328	60	10	60-180	60	64	GapExp	0	151	2	6	1	distractor	0	840	-1000	56821	13.328	12.871	13.786
DTProbeTrack03	5	ProbeTrackDT	1.1	SCS215a	20101105.090344	20101105.092044	dt-generate	8	0.013328	60	10	60-180	60	179	GapExp	0	152	2	3	0	distractor	1	1013	494	57315	13.328	13.106	13.552
DTProbeTrack03	5	ProbeTrackDT	1.1	SCS215a	20101105.090344	20101105.092051	dt-generate	8	0.013328	60	10	60-180	60	155	GapExp	0	153	2	1	0	distractor	1	1426	287	57602	13.328	13.098	13.557
DTProbeTrack03	5	ProbeTrackDT	1.1	SCS215a	20101105.090344	20101105.092058	dt-generate	8	0.013328	60	10	60-180	60	174	GapExp	0	154	2	3	0	target	0	1000	-1000	56602	13.328	12.858	13.796
DTProbeTrack03	5	ProbeTrackDT	1.1	SCS215a	20101105.090344	20101105.092105	dt-generate	8	0.013328	60	10	60-180	60	167	GapExp	0	155	2	1	0	distractor	1	1306	347	56949	13.328	13.031	13.624
DTProbeTrack03	5	ProbeTrackDT	1.1	SCS215a	20101105.090344	20101105.092112	dt-generate	8	0.013328	60	10	60-180	60	161	GapExp	0	156	2	45	0	distractor	1	747	627	57576	13.328	12.979	13.663
DTProbeTrack03	5	ProbeTrackDT	1.1	SCS215a	20101105.090344	20101105.092119	dt-generate	8	0.013328	60	10	60-180	60	92	GapExp	0	157	2	6	1	target	1	520	740	58316	13.328	12.960	13.696
DTProbeTrack03	5	ProbeTrackDT	1.1	SCS215a	20101105.090344	20101105.092124	dt-generate	8	0.013328	60	10	60-180	60	100	GapExp	0	158	2	1	1	target	1	547	727	59043	13.328	12.982	13.679
DTProbeTrack03	5	ProbeTrackDT	1.1	SCS215a	20101105.090344	20101105.092129	dt-generate	8	0.013328	60	10	60-180	60	140	GapExp	0	159	2	9	1	target	1	427	787	59830	13.328	13.100	13.561
DTProbeTrack03	5	ProbeTrackDT	1.1	SCS215a	20101105.090344	20101105.092135	dt-generate	8	0.013328	60	10	60-180	60	137	GapExp	0	160	2	9	1	target	1	587	707	60537	13.328	13.099	13.558
DTProbeTrack03	5	ProbeTrackDT	1.1	SCS215a	20101105.090344	20101105.092141	dt-generate	8	0.013328	60	10	60-180	60	129	GapExp	0	161	2	9	1	target	1	560	720	61257	13.328	13.299	13.355
DTProbeTrack03	5	ProbeTrackDT	1.1	SCS215a	20101105.090344	20101105.092147	dt-generate	8	0.013328	60	10	60-180	60	80	GapExp	0	162	2	9	0	distractor	1	614	693	61950	13.328	12.886	13.781
DTProbeTrack03	5	ProbeTrackDT	1.1	SCS215a	20101105.090344	20101105.092152	dt-generate	8	0.013328	60	10	60-180	60	134	GapExp	0	163	2	9	0	distractor	1	1440	280	62230	13.328	12.880	13.777
DTProbeTrack03	5	ProbeTrackDT	1.1	SCS215a	20101105.090344	20101105.092159	dt-generate	8	0.013328	60	10	60-180	60	77	GapExp	0	164	2	3	0	distractor	1	760	620	62850	13.328	12.944	13.700
DTProbeTrack03	5	ProbeTrackDT	1.1	SCS215a	20101105.090344	20101105.092204	dt-generate	8	0.013328	60	10	60-180	60	141	GapExp	0	165	2	6	1	distractor	0	587	-1000	61850	13.328	13.075	13.588
DTProbeTrack03	5	ProbeTrackDT	1.1	SCS215a	20101105.090344	20101105.092210	dt-generate	8	0.013328	60	10	60-180	60	122	GapExp	0	166	2	1	0	target	0	414	-1000	60850	13.328	12.909	13.740
DTProbeTrack03	5	ProbeTrackDT	1.1	SCS215a	20101105.090344	20101105.092215	dt-generate	8	0.013328	60	10	60-180	60	85	GapExp	0	167	2	9	1	distractor	0	707	-1000	59850	13.328	12.984	13.670
DTProbeTrack03	5	ProbeTrackDT	1.1	SCS215a	20101105.090344	20101105.092221	dt-generate	8	0.013328	60	10	60-180	60	98	GapExp	0	168	2	3	0	distractor	1	667	667	60517	13.328	12.875	13.780
DTProbeTrack03	5	ProbeTrackDT	1.1	SCS215a	20101105.090344	20101105.092226	dt-generate	8	0.013328	60	10	60-180	60	83	GapExp	0	169	2	1	1	target	1	747	627	61144	13.328	12.898	13.753
DTProbeTrack03	5	ProbeTrackDT	1.1	SCS215a	20101105.090344	20101105.092231	dt-generate	8	0.013328	60	10	60-180	60	172	GapExp	0	170	2	3	0	distractor	1	2053	0	61144	13.328	13.084	13.563
DTProbeTrack03	5	ProbeTrackDT	1.1	SCS215a	20101105.090344	20101105.092239	dt-generate	8	0.013328	60	10	60-180	60	154	GapExp	0	171	2	6	0	distractor	1	1107	447	61591	13.328	13.019	13.630
DTProbeTrack03	5	ProbeTrackDT	1.1	SCS215a	20101105.090344	20101105.092246	dt-generate	8	0.013328	60	10	60-180	60	128	GapExp	0	172	2	1	1	target	1	640	680	62271	13.328	12.913	13.746
DTProbeTrack03	5	ProbeTrackDT	1.1	SCS215a	20101105.090344	20101105.092252	dt-generate	8	0.013328	60	10	60-180	60	167	GapExp	0	173	2	1	0	target	0	2599	-1000	61271	13.328	12.824	13.749
DTProbeTrack03	5	ProbeTrackDT	1.1	SCS215a	20101105.090344	20101105.092300	dt-generate	8	0.013328	60	10	60-180	60	160	GapExp	0	174	2	1	0	target	0	1200	-1000	60271	13.328	13.087	13.550
DTProbeTrack03	5	ProbeTrackDT	1.1	SCS215a	20101105.090344	20101105.092307	dt-generate	8	0.013328	60	10	60-180	60	75	GapExp	0	175	2	6	1	target	1	534	733	61004	13.328	13.105	13.550
DTProbeTrack03	5	ProbeTrackDT	1.1	SCS215a	20101105.090344	20101105.092312	dt-generate	8	0.013328	60	10	60-180	60	166	GapExp	0	176	2	1	1	target	1	614	693	61697	13.328	12.924	13.735
DTProbeTrack03	5	ProbeTrackDT	1.1	SCS215a	20101105.090344	20101105.092318	dt-generate	8	0.013328	60	10	60-180	60	104	GapExp	0	177	2	45	0	distractor	1	1626	187	61884	13.328	12.934	13.718
DTProbeTrack03	5	ProbeTrackDT	1.1	SCS215a	20101105.090344	20101105.092325	dt-generate	8	0.013328	60	10	60-180	60	163	GapExp	0	178	2	9	0	target	0	773	-1000	60884	13.328	13.062	13.604
DTProbeTrack03	5	ProbeTrackDT	1.1	SCS215a	20101105.090344	20101105.092331	dt-generate	8	0.013328	60	10	60-180	60	113	GapExp	0	179	2	9	1	distractor	0	1933	-1000	59884	13.328	12.865	13.807
DTProbeTrack03	5	ProbeTrackDT	1.1	SCS215a	20101105.090344	20101105.092338	dt-generate	8	0.013328	60	10	60-180	60	151	GapExp	0	180	2	3	0	target	0	680	-1000	58884	13.328	12.908	13.732
DTProbeTrack03	5	ProbeTrackDT	1.1	SCS215a	20101105.090344	20101105.092344	dt-generate	8	0.013328	60	10	60-180	60	126	GapExp	0	181	2	45	1	target	1	494	753	59637	13.509	13.064	66.908
DTProbeTrack03	5	ProbeTrackDT	1.1	SCS215a	20101105.090344	20101105.092351	dt-generate	8	0.013328	60	10	60-180	60	127	GapExp	0	182	2	6	0	distractor	1	813	594	60231	13.328	13.303	13.349
DTProbeTrack03	5	ProbeTrackDT	1.1	SCS215a	20101105.090344	20101105.092357	dt-generate	8	0.013328	60	10	60-180	60	138	GapExp	0	183	2	9	1	target	1	627	687	60918	13.328	12.858	13.802
DTProbeTrack03	5	ProbeTrackDT	1.1	SCS215a	20101105.090344	20101105.092403	dt-generate	8	0.013328	60	10	60-180	60	164	GapExp	0	184	2	45	1	target	1	693	654	61572	13.328	13.100	13.568
DTProbeTrack03	5	ProbeTrackDT	1.1	SCS215a	20101105.090344	20101105.092410	dt-generate	8	0.013328	60	10	60-180	60	96	GapExp	0	185	2	3	0	target	0	1640	-1000	60572	13.328	12.931	13.737
DTProbeTrack03	5	ProbeTrackDT	1.1	SCS215a	20101105.090344	20101105.092416	dt-generate	8	0.013328	60	10	60-180	60	108	GapExp	0	186	2	3	0	distractor	1	1400	300	60872	13.328	12.934	13.718
DTProbeTrack03	5	ProbeTrackDT	1.1	SCS215a	20101105.090344	20101105.092422	dt-generate	8	0.013328	60	10	60-180	60	136	GapExp	0	187	2	9	1	target	1	574	713	61585	13.328	13.042	13.611
DTProbeTrack03	5	ProbeTrackDT	1.1	SCS215a	20101105.090344	20101105.092428	dt-generate	8	0.013328	60	10	60-180	60	132	GapExp	0	188	2	6	0	distractor	1	653	674	62259	13.328	12.873	13.795
DTProbeTrack03	5	ProbeTrackDT	1.1	SCS215a	20101105.090344	20101105.092434	dt-generate	8	0.013328	60	10	60-180	60	65	GapExp	0	189	2	3	1	target	1	653	674	62933	13.328	13.303	13.350
DTProbeTrack03	5	ProbeTrackDT	1.1	SCS215a	20101105.090344	20101105.092439	dt-generate	8	0.013328	60	10	60-180	60	177	GapExp	0	190	2	1	0	target	0	1893	-1000	61933	13.328	13.029	13.629
DTProbeTrack03	5	ProbeTrackDT	1.1	SCS215a	20101105.090344	20101105.092447	dt-generate	8	0.013328	60	10	60-180	60	133	GapExp	0	191	2	6	1	distractor	0	973	-1000	60933	13.328	13.283	13.359
DTProbeTrack03	5	ProbeTrackDT	1.1	SCS215a	20101105.090344	20101105.092453	dt-generate	8	0.013328	60	10	60-180	60	169	GapExp	0	192	2	1	1	target	1	787	607	61540	13.328	12.850	13.802
DTProbeTrack03	5	ProbeTrackDT	1.1	SCS215a	20101105.090344	20101105.092459	dt-generate	8	0.013328	60	10	60-180	60	155	GapExp	0	193	2	3	1	target	1	1613	194	61734	13.328	13.093	13.576
DTProbeTrack03	5	ProbeTrackDT	1.1	SCS215a	20101105.090344	20101105.092506	dt-generate	8	0.013328	60	10	60-180	60	139	GapExp	0	194	2	3	0	distractor	1	1986	7	61741	13.328	13.098	13.559
DTProbeTrack03	5	ProbeTrackDT	1.1	SCS215a	20101105.090344	20101105.092514	dt-generate	8	0.013328	60	10	60-180	60	85	GapExp	0	195	2	9	1	target	1	1333	334	62075	13.328	13.101	13.560
DTProbeTrack03	5	ProbeTrackDT	1.1	SCS215a	20101105.090344	20101105.092520	dt-generate	8	0.013328	60	10	60-180	60	119	GapExp	0	196	2	9	0	distractor	1	2226	0	62075	13.328	12.892	13.766
DTProbeTrack03	5	ProbeTrackDT	1.1	SCS215a	20101105.090344	20101105.092527	dt-generate	8	0.013328	60	10	60-180	60	146	GapExp	0	197	2	1	1	target	1	867	567	62642	13.328	12.881	13.763
DTProbeTrack03	5	ProbeTrackDT	1.1	SCS215a	20101105.090344	20101105.092533	dt-generate	8	0.013328	60	10	60-180	60	173	GapExp	0	198	2	6	0	distractor	1	3306	0	62642	13.328	12.997	13.653
DTProbeTrack03	5	ProbeTrackDT	1.1	SCS215a	20101105.090344	20101105.092542	dt-generate	8	0.013328	60	10	60-180	60	77	GapExp	0	199	2	3	1	target	1	760	620	63262	13.328	12.915	13.739
DTProbeTrack03	5	ProbeTrackDT	1.1	SCS215a	20101105.090344	20101105.092548	dt-generate	8	0.013328	60	10	60-180	60	79	GapExp	0	200	2	6	0	distractor	1	600	700	63962	13.328	13.095	13.560
DTProbeTrack03	5	ProbeTrackDT	1.1	SCS215a	20101105.090344	20101105.092604	dt-generate	8	0.013328	60	10	60-180	60	107	GapExp	0	201	2	1	1	target	1	853	574	64536	13.328	13.039	13.619
DTProbeTrack03	5	ProbeTrackDT	1.1	SCS215a	20101105.090344	20101105.092610	dt-generate	8	0.013328	60	10	60-180	60	122	GapExp	0	202	2	1	0	distractor	1	787	607	65143	13.328	13.035	13.614
DTProbeTrack03	5	ProbeTrackDT	1.1	SCS215a	20101105.090344	20101105.092616	dt-generate	8	0.013328	60	10	60-180	60	81	GapExp	0	203	2	9	1	distractor	0	733	-1000	64143	13.328	13.123	13.552
DTProbeTrack03	5	ProbeTrackDT	1.1	SCS215a	20101105.090344	20101105.092621	dt-generate	8	0.013328	60	10	60-180	60	173	GapExp	0	204	2	9	1	distractor	0	667	-1000	63143	13.328	12.857	13.805
DTProbeTrack03	5	ProbeTrackDT	1.1	SCS215a	20101105.090344	20101105.092628	dt-generate	8	0.013328	60	10	60-180	60	77	GapExp	0	205	2	9	0	distractor	1	800	600	63743	13.330	12.934	13.774
DTProbeTrack03	5	ProbeTrackDT	1.1	SCS215a	20101105.092722	20101105.092728	single-task	8	0.013328	60	10	60-180	60	84	GapPrac	1	1	2	1	0	target	0	720	-1000	62743	13.328	13.309	13.349
DTProbeTrack03	5	ProbeTrackDT	1.1	SCS215a	20101105.092722	20101105.092733	single-task	8	0.013328	60	10	60-180	60	134	GapPrac	1	2	2	9	0	distractor	1	574	713	63456	13.328	12.967	13.682
DTProbeTrack03	5	ProbeTrackDT	1.1	SCS215a	20101105.092722	20101105.092739	single-task	8	0.013328	60	10	60-180	60	130	GapPrac	1	3	2	1	1	target	1	654	673	64129	13.328	12.880	13.783
DTProbeTrack03	5	ProbeTrackDT	1.1	SCS215a	20101105.092722	20101105.092745	single-task	8	0.013328	60	10	60-180	60	66	GapPrac	1	4	2	6	1	target	1	467	767	64896	13.328	13.308	13.348
DTProbeTrack03	5	ProbeTrackDT	1.1	SCS215a	20101105.092722	20101105.092750	single-task	8	0.013328	60	10	60-180	60	171	GapPrac	1	5	2	9	1	target	1	800	600	65496	13.328	12.848	13.803
DTProbeTrack03	5	ProbeTrackDT	1.1	SCS215a	20101105.092722	20101105.092756	single-task	8	0.013328	60	10	60-180	60	146	GapPrac	1	6	2	3	1	target	1	494	753	66249	13.328	12.867	13.793
DTProbeTrack03	5	ProbeTrackDT	1.1	SCS215a	20101105.092722	20101105.092802	single-task	8	0.013328	60	10	60-180	60	92	GapPrac	1	7	2	3	0	target	0	507	-1000	65249	13.328	12.852	13.812
DTProbeTrack03	5	ProbeTrackDT	1.1	SCS215a	20101105.092722	20101105.092807	single-task	8	0.013328	60	10	60-180	60	137	GapPrac	1	8	2	3	1	target	1	494	753	66002	13.328	12.876	13.785
DTProbeTrack03	5	ProbeTrackDT	1.1	SCS215a	20101105.092722	20101105.092813	single-task	8	0.013328	60	10	60-180	60	136	GapPrac	1	9	2	9	0	distractor	1	534	733	66735	13.328	12.977	13.665
DTProbeTrack03	5	ProbeTrackDT	1.1	SCS215a	20101105.092722	20101105.092819	single-task	8	0.013328	60	10	60-180	60	140	GapPrac	1	10	2	6	1	target	1	494	753	67488	13.328	12.918	13.735
DTProbeTrack03	5	ProbeTrackDT	1.1	SCS215a	20101105.092722	20101105.092825	single-task	8	0.013328	60	10	60-180	60	63	GapPrac	1	11	2	3	0	distractor	1	587	707	68195	13.328	13.067	13.598
DTProbeTrack03	5	ProbeTrackDT	1.1	SCS215a	20101105.092722	20101105.092830	single-task	8	0.013328	60	10	60-180	60	62	GapPrac	1	12	2	6	0	distractor	1	507	747	68942	13.328	13.036	13.634
DTProbeTrack03	5	ProbeTrackDT	1.1	SCS215a	20101105.092722	20101105.092834	single-task	8	0.013328	60	10	60-180	60	167	GapPrac	1	13	2	1	1	target	1	560	720	69662	13.328	12.866	13.793
DTProbeTrack03	5	ProbeTrackDT	1.1	SCS215a	20101105.092722	20101105.092841	single-task	8	0.013328	60	10	60-180	60	128	GapPrac	1	14	2	45	1	target	1	480	760	70422	13.328	13.101	13.558
DTProbeTrack03	5	ProbeTrackDT	1.1	SCS215a	20101105.092722	20101105.092847	single-task	8	0.013328	60	10	60-180	60	158	GapPrac	1	15	2	45	0	target	0	813	-1000	69422	13.328	12.991	13.672
DTProbeTrack03	5	ProbeTrackDT	1.1	SCS215a	20101105.092722	20101105.092854	single-task	8	0.013328	60	10	60-180	60	86	GapPrac	1	16	2	6	0	distractor	1	733	634	70056	13.328	13.308	13.350
DTProbeTrack03	5	ProbeTrackDT	1.1	SCS215a	20101105.092722	20101105.092859	single-task	8	0.013328	60	10	60-180	60	91	GapPrac	1	17	2	45	1	target	1	454	773	70829	13.328	12.981	13.665
DTProbeTrack03	5	ProbeTrackDT	1.1	SCS215a	20101105.092722	20101105.092905	single-task	8	0.013328	60	10	60-180	60	136	GapPrac	1	18	2	45	0	distractor	1	667	667	71496	13.328	12.878	13.777
DTProbeTrack03	5	ProbeTrackDT	1.1	SCS215a	20101105.092722	20101105.092911	single-task	8	0.013328	60	10	60-180	60	86	GapPrac	1	19	2	9	1	target	1	467	767	72263	13.328	12.976	13.684
DTProbeTrack03	5	ProbeTrackDT	1.1	SCS215a	20101105.092722	20101105.092916	single-task	8	0.013328	60	10	60-180	60	81	GapPrac	1	20	2	1	0	distractor	1	880	560	72823	13.328	13.307	13.348
DTProbeTrack03	5	ProbeTrackDT	1.1	SCS215a	20101105.093001	20101105.093005	single-task	8	0.013328	60	10	60-180	60	140	GapExp	1	1	2	9	1	target	1	427	787	73610	13.328	13.305	13.353
DTProbeTrack03	5	ProbeTrackDT	1.1	SCS215a	20101105.093001	20101105.093010	single-task	8	0.013328	60	10	60-180	60	165	GapExp	1	2	2	6	0	distractor	1	534	733	74343	13.328	13.307	13.347
DTProbeTrack03	5	ProbeTrackDT	1.1	SCS215a	20101105.093001	20101105.093017	single-task	8	0.013328	60	10	60-180	60	102	GapExp	1	3	2	45	0	distractor	1	653	674	75017	13.328	13.299	13.357
DTProbeTrack03	5	ProbeTrackDT	1.1	SCS215a	20101105.093001	20101105.093023	single-task	8	0.013328	60	10	60-180	60	87	GapExp	1	4	2	3	0	distractor	1	1360	320	75337	13.328	13.308	13.346
DTProbeTrack03	5	ProbeTrackDT	1.1	SCS215a	20101105.093001	20101105.093029	single-task	8	0.013328	60	10	60-180	60	87	GapExp	1	5	2	45	1	target	1	534	733	76070	13.328	12.905	13.747
DTProbeTrack03	5	ProbeTrackDT	1.1	SCS215a	20101105.093001	20101105.093034	single-task	8	0.013328	60	10	60-180	60	103	GapExp	0	6	2	9	0	distractor	1	800	600	76670	13.328	12.872	13.787
DTProbeTrack03	5	ProbeTrackDT	1.1	SCS215a	20101105.093001	20101105.093040	single-task	8	0.013328	60	10	60-180	60	102	GapExp	0	7	2	3	0	distractor	1	654	673	77343	13.328	13.304	13.353
DTProbeTrack03	5	ProbeTrackDT	1.1	SCS215a	20101105.093001	20101105.093045	single-task	8	0.013328	60	10	60-180	60	79	GapExp	0	8	2	6	0	distractor	1	747	627	77970	13.328	13.310	13.347
DTProbeTrack03	5	ProbeTrackDT	1.1	SCS215a	20101105.093001	20101105.093051	single-task	8	0.013328	60	10	60-180	60	87	GapExp	0	9	2	1	1	target	1	534	733	78703	13.328	12.878	13.765
DTProbeTrack03	5	ProbeTrackDT	1.1	SCS215a	20101105.093001	20101105.093056	single-task	8	0.013328	60	10	60-180	60	80	GapExp	0	10	2	45	0	distractor	1	640	680	79383	13.328	12.966	13.688
DTProbeTrack03	5	ProbeTrackDT	1.1	SCS215a	20101105.093001	20101105.093102	single-task	8	0.013328	60	10	60-180	60	146	GapExp	0	11	2	9	0	distractor	1	760	620	80003	13.328	13.099	13.558
DTProbeTrack03	5	ProbeTrackDT	1.1	SCS215a	20101105.093001	20101105.093108	single-task	8	0.013328	60	10	60-180	60	155	GapExp	0	12	2	6	0	target	0	534	-1000	79003	13.328	12.900	13.750
DTProbeTrack03	5	ProbeTrackDT	1.1	SCS215a	20101105.093001	20101105.093114	single-task	8	0.013328	60	10	60-180	60	143	GapExp	0	13	2	3	1	target	1	1786	107	79110	13.328	12.880	13.786
DTProbeTrack03	5	ProbeTrackDT	1.1	SCS215a	20101105.093001	20101105.093121	single-task	8	0.013328	60	10	60-180	60	180	GapExp	0	14	2	1	1	target	1	507	747	79857	13.328	12.905	13.753
DTProbeTrack03	5	ProbeTrackDT	1.1	SCS215a	20101105.093001	20101105.093127	single-task	8	0.013328	60	10	60-180	60	164	GapExp	0	15	2	1	0	target	0	654	-1000	78857	13.328	12.871	13.791
DTProbeTrack03	5	ProbeTrackDT	1.1	SCS215a	20101105.093001	20101105.093133	single-task	8	0.013328	60	10	60-180	60	109	GapExp	0	16	2	45	0	target	0	640	-1000	77857	13.328	12.859	13.814
DTProbeTrack03	5	ProbeTrackDT	1.1	SCS215a	20101105.093001	20101105.093140	single-task	8	0.013328	60	10	60-180	60	117	GapExp	0	17	2	3	0	distractor	1	760	620	78477	13.328	13.058	13.613
DTProbeTrack03	5	ProbeTrackDT	1.1	SCS215a	20101105.093001	20101105.093145	single-task	8	0.013328	60	10	60-180	60	109	GapExp	0	18	2	9	1	target	1	614	693	79170	13.328	12.850	13.798
DTProbeTrack03	5	ProbeTrackDT	1.1	SCS215a	20101105.093001	20101105.093151	single-task	8	0.013328	60	10	60-180	60	175	GapExp	0	19	2	45	1	target	1	494	753	79923	13.328	12.985	13.678
DTProbeTrack03	5	ProbeTrackDT	1.1	SCS215a	20101105.093001	20101105.093158	single-task	8	0.013328	60	10	60-180	60	76	GapExp	0	20	2	1	1	target	1	494	753	80676	13.328	12.964	13.695
DTProbeTrack03	5	ProbeTrackDT	1.1	SCS215a	20101105.093001	20101105.093203	single-task	8	0.013328	60	10	60-180	60	158	GapExp	0	21	2	45	0	target	0	440	-1000	79676	13.328	12.878	13.762
DTProbeTrack03	5	ProbeTrackDT	1.1	SCS215a	20101105.093001	20101105.093209	single-task	8	0.013328	60	10	60-180	60	175	GapExp	0	22	2	45	0	target	0	653	-1000	78676	13.328	12.973	13.674
DTProbeTrack03	5	ProbeTrackDT	1.1	SCS215a	20101105.093001	20101105.093216	single-task	8	0.013328	60	10	60-180	60	145	GapExp	0	23	2	6	0	distractor	1	653	674	79350	13.328	12.908	13.750
DTProbeTrack03	5	ProbeTrackDT	1.1	SCS215a	20101105.093001	20101105.093222	single-task	8	0.013328	60	10	60-180	60	120	GapExp	0	24	2	9	0	distractor	1	1173	414	79764	13.328	12.991	13.678
DTProbeTrack03	5	ProbeTrackDT	1.1	SCS215a	20101105.093001	20101105.093229	single-task	8	0.013328	60	10	60-180	60	110	GapExp	0	25	2	3	0	distractor	1	613	694	80458	13.328	12.920	13.745
DTProbeTrack03	5	ProbeTrackDT	1.1	SCS215a	20101105.093001	20101105.093234	single-task	8	0.013328	60	10	60-180	60	172	GapExp	0	26	2	1	0	distractor	1	827	587	81045	13.328	13.005	13.644
DTProbeTrack03	5	ProbeTrackDT	1.1	SCS215a	20101105.093001	20101105.093241	single-task	8	0.013328	60	10	60-180	60	152	GapExp	0	27	2	3	1	target	1	574	713	81758	13.328	12.939	13.723
DTProbeTrack03	5	ProbeTrackDT	1.1	SCS215a	20101105.093001	20101105.093247	single-task	8	0.013328	60	10	60-180	60	142	GapExp	0	28	2	45	0	distractor	1	600	700	82458	13.328	12.975	13.677
DTProbeTrack03	5	ProbeTrackDT	1.1	SCS215a	20101105.093001	20101105.093253	single-task	8	0.013328	60	10	60-180	60	93	GapExp	0	29	2	45	1	target	1	1866	67	82525	13.328	12.918	13.767
DTProbeTrack03	5	ProbeTrackDT	1.1	SCS215a	20101105.093001	20101105.093300	single-task	8	0.013328	60	10	60-180	60	177	GapExp	0	30	2	3	1	distractor	0	1440	-1000	81525	13.328	12.872	13.773
DTProbeTrack03	5	ProbeTrackDT	1.1	SCS215a	20101105.093001	20101105.093308	single-task	8	0.013328	60	10	60-180	60	102	GapExp	0	31	2	9	0	distractor	1	614	693	82218	13.328	13.092	13.570
DTProbeTrack03	5	ProbeTrackDT	1.1	SCS215a	20101105.093001	20101105.093313	single-task	8	0.013328	60	10	60-180	60	162	GapExp	0	32	2	9	0	target	0	907	-1000	81218	13.328	12.883	13.780
DTProbeTrack03	5	ProbeTrackDT	1.1	SCS215a	20101105.093001	20101105.093320	single-task	8	0.013328	60	10	60-180	60	109	GapExp	0	33	2	3	0	target	0	1133	-1000	80218	13.328	13.309	13.346
DTProbeTrack03	5	ProbeTrackDT	1.1	SCS215a	20101105.093001	20101105.093326	single-task	8	0.013328	60	10	60-180	60	167	GapExp	0	34	2	3	1	target	1	574	713	80931	13.328	12.928	13.715
DTProbeTrack03	5	ProbeTrackDT	1.1	SCS215a	20101105.093001	20101105.093332	single-task	8	0.013328	60	10	60-180	60	106	GapExp	0	35	2	3	0	distractor	1	520	740	81671	13.328	13.029	13.632
DTProbeTrack03	5	ProbeTrackDT	1.1	SCS215a	20101105.093001	20101105.093337	single-task	8	0.013328	60	10	60-180	60	139	GapExp	0	36	2	1	0	distractor	1	667	667	82338	13.328	13.091	13.559
DTProbeTrack03	5	ProbeTrackDT	1.1	SCS215a	20101105.093001	20101105.093343	single-task	8	0.013328	60	10	60-180	60	98	GapExp	0	37	2	1	0	distractor	1	614	693	83031	13.328	13.089	13.569
DTProbeTrack03	5	ProbeTrackDT	1.1	SCS215a	20101105.093001	20101105.093349	single-task	8	0.013328	60	10	60-180	60	142	GapExp	0	38	2	9	1	target	1	600	700	83731	13.328	13.107	13.562
DTProbeTrack03	5	ProbeTrackDT	1.1	SCS215a	20101105.093001	20101105.093355	single-task	8	0.013328	60	10	60-180	60	82	GapExp	0	39	2	6	0	target	0	720	-1000	82731	13.328	13.309	13.351
DTProbeTrack03	5	ProbeTrackDT	1.1	SCS215a	20101105.093001	20101105.093400	single-task	8	0.013328	60	10	60-180	60	91	GapExp	0	40	2	45	1	distractor	0	920	-1000	81731	13.328	13.286	13.363
DTProbeTrack03	5	ProbeTrackDT	1.1	SCS215a	20101105.093001	20101105.093406	single-task	8	0.013328	60	10	60-180	60	74	GapExp	0	41	2	45	1	target	1	427	787	82518	13.328	12.860	13.803
DTProbeTrack03	5	ProbeTrackDT	1.1	SCS215a	20101105.093001	20101105.093412	single-task	8	0.013328	60	10	60-180	60	111	GapExp	0	42	2	45	0	distractor	1	734	633	83151	13.328	12.863	13.790
DTProbeTrack03	5	ProbeTrackDT	1.1	SCS215a	20101105.093001	20101105.093418	single-task	8	0.013328	60	10	60-180	60	113	GapExp	0	43	2	6	0	target	0	747	-1000	82151	13.328	12.992	13.649
DTProbeTrack03	5	ProbeTrackDT	1.1	SCS215a	20101105.093001	20101105.093424	single-task	8	0.013328	60	10	60-180	60	104	GapExp	0	44	2	45	1	target	1	827	587	82738	13.328	13.073	13.576
DTProbeTrack03	5	ProbeTrackDT	1.1	SCS215a	20101105.093001	20101105.093430	single-task	8	0.013328	60	10	60-180	60	125	GapExp	0	45	2	6	1	target	1	587	707	83445	13.328	12.954	13.699
DTProbeTrack03	5	ProbeTrackDT	1.1	SCS215a	20101105.093001	20101105.093436	single-task	8	0.013328	60	10	60-180	60	134	GapExp	0	46	2	3	0	distractor	1	867	567	84012	13.328	12.847	13.817
DTProbeTrack03	5	ProbeTrackDT	1.1	SCS215a	20101105.093001	20101105.093442	single-task	8	0.013328	60	10	60-180	60	149	GapExp	0	47	2	3	1	target	1	760	620	84632	13.328	12.936	13.727
DTProbeTrack03	5	ProbeTrackDT	1.1	SCS215a	20101105.093001	20101105.093448	single-task	8	0.013328	60	10	60-180	60	161	GapExp	0	48	2	1	0	distractor	1	720	640	85272	13.328	13.100	13.574
DTProbeTrack03	5	ProbeTrackDT	1.1	SCS215a	20101105.093001	20101105.093454	single-task	8	0.013328	60	10	60-180	60	103	GapExp	0	49	2	45	1	target	1	547	727	85999	13.328	13.108	13.550
DTProbeTrack03	5	ProbeTrackDT	1.1	SCS215a	20101105.093001	20101105.093500	single-task	8	0.013328	60	10	60-180	60	166	GapExp	0	50	2	3	0	target	0	587	-1000	84999	13.328	12.895	13.760
DTProbeTrack03	5	ProbeTrackDT	1.1	SCS215a	20101105.093001	20101105.093512	single-task	8	0.013328	60	10	60-180	60	97	GapExp	0	51	2	9	1	target	1	800	600	85599	13.328	13.212	13.446
DTProbeTrack03	5	ProbeTrackDT	1.1	SCS215a	20101105.093001	20101105.093518	single-task	8	0.013328	60	10	60-180	60	66	GapExp	0	52	2	45	0	distractor	1	587	707	86306	13.328	12.890	13.771
DTProbeTrack03	5	ProbeTrackDT	1.1	SCS215a	20101105.093001	20101105.093523	single-task	8	0.013328	60	10	60-180	60	115	GapExp	0	53	2	45	0	distractor	1	520	740	87046	13.328	13.107	13.558
DTProbeTrack03	5	ProbeTrackDT	1.1	SCS215a	20101105.093001	20101105.093529	single-task	8	0.013328	60	10	60-180	60	113	GapExp	0	54	2	9	1	distractor	0	520	-1000	86046	13.328	12.923	13.745
DTProbeTrack03	5	ProbeTrackDT	1.1	SCS215a	20101105.093001	20101105.093535	single-task	8	0.013328	60	10	60-180	60	98	GapExp	0	55	2	9	0	target	0	1560	-1000	85046	13.328	13.309	13.351
DTProbeTrack03	5	ProbeTrackDT	1.1	SCS215a	20101105.093001	20101105.093541	single-task	8	0.013328	60	10	60-180	60	69	GapExp	0	56	2	3	1	target	1	707	647	85693	13.328	13.125	13.547
DTProbeTrack03	5	ProbeTrackDT	1.1	SCS215a	20101105.093001	20101105.093546	single-task	8	0.013328	60	10	60-180	60	157	GapExp	0	57	2	1	0	target	0	600	-1000	84693	13.328	13.021	13.645
DTProbeTrack03	5	ProbeTrackDT	1.1	SCS215a	20101105.093001	20101105.093552	single-task	8	0.013328	60	10	60-180	60	140	GapExp	0	58	2	1	0	distractor	1	694	653	85346	13.328	12.873	13.773
DTProbeTrack03	5	ProbeTrackDT	1.1	SCS215a	20101105.093001	20101105.093558	single-task	8	0.013328	60	10	60-180	60	120	GapExp	0	59	2	45	1	target	1	707	647	85993	13.327	13.104	13.346
DTProbeTrack03	5	ProbeTrackDT	1.1	SCS215a	20101105.093001	20101105.093605	single-task	8	0.013328	60	10	60-180	60	72	GapExp	0	60	2	9	1	target	1	534	733	86726	13.328	12.953	13.717
DTProbeTrack03	5	ProbeTrackDT	1.1	SCS215a	20101105.093001	20101105.093610	single-task	8	0.013328	60	10	60-180	60	93	GapExp	0	61	2	6	1	target	1	507	747	87473	13.328	12.863	13.786
DTProbeTrack03	5	ProbeTrackDT	1.1	SCS215a	20101105.093001	20101105.093615	single-task	8	0.013328	60	10	60-180	60	170	GapExp	0	62	2	9	1	target	1	520	740	88213	13.328	13.111	13.544
DTProbeTrack03	5	ProbeTrackDT	1.1	SCS215a	20101105.093001	20101105.093621	single-task	8	0.013328	60	10	60-180	60	157	GapExp	0	63	2	6	1	distractor	0	973	-1000	87213	13.328	13.132	13.526
DTProbeTrack03	5	ProbeTrackDT	1.1	SCS215a	20101105.093001	20101105.093628	single-task	8	0.013328	60	10	60-180	60	135	GapExp	0	64	2	3	1	target	1	454	773	87986	13.328	12.900	13.749
DTProbeTrack03	5	ProbeTrackDT	1.1	SCS215a	20101105.093001	20101105.093633	single-task	8	0.013328	60	10	60-180	60	169	GapExp	0	65	2	1	1	target	1	547	727	88713	13.328	13.121	13.522
DTProbeTrack03	5	ProbeTrackDT	1.1	SCS215a	20101105.093001	20101105.093640	single-task	8	0.013328	60	10	60-180	60	86	GapExp	0	66	2	6	0	distractor	1	707	647	89360	13.328	12.883	13.777
DTProbeTrack03	5	ProbeTrackDT	1.1	SCS215a	20101105.093001	20101105.093645	single-task	8	0.013328	60	10	60-180	60	102	GapExp	0	67	2	9	1	target	1	467	767	90127	13.328	13.105	13.561
DTProbeTrack03	5	ProbeTrackDT	1.1	SCS215a	20101105.093001	20101105.093650	single-task	8	0.013328	60	10	60-180	60	163	GapExp	0	68	2	45	1	target	1	574	713	90840	13.328	12.959	13.709
DTProbeTrack03	5	ProbeTrackDT	1.1	SCS215a	20101105.093001	20101105.093657	single-task	8	0.013328	60	10	60-180	60	154	GapExp	0	69	2	1	1	target	1	467	767	91607	13.328	12.888	13.779
DTProbeTrack03	5	ProbeTrackDT	1.1	SCS215a	20101105.093001	20101105.093703	single-task	8	0.013328	60	10	60-180	60	149	GapExp	0	70	2	1	1	target	1	454	773	92380	13.328	13.292	13.361
DTProbeTrack03	5	ProbeTrackDT	1.1	SCS215a	20101105.093001	20101105.093709	single-task	8	0.013328	60	10	60-180	60	171	GapExp	0	71	2	6	1	target	1	560	720	93100	13.328	12.926	13.727
DTProbeTrack03	5	ProbeTrackDT	1.1	SCS215a	20101105.093001	20101105.093715	single-task	8	0.013328	60	10	60-180	60	108	GapExp	0	72	2	1	0	distractor	1	680	660	93760	13.328	13.309	13.348
DTProbeTrack03	5	ProbeTrackDT	1.1	SCS215a	20101105.093001	20101105.093721	single-task	8	0.013328	60	10	60-180	60	153	GapExp	0	73	2	9	0	distractor	1	600	700	94460	13.328	13.070	13.566
DTProbeTrack03	5	ProbeTrackDT	1.1	SCS215a	20101105.093001	20101105.093727	single-task	8	0.013328	60	10	60-180	60	167	GapExp	0	74	2	3	1	distractor	0	480	-1000	93460	13.328	12.874	13.779
DTProbeTrack03	5	ProbeTrackDT	1.1	SCS215a	20101105.093001	20101105.093733	single-task	8	0.013328	60	10	60-180	60	71	GapExp	0	75	2	9	1	target	1	547	727	94187	13.328	12.896	13.750
DTProbeTrack03	5	ProbeTrackDT	1.1	SCS215a	20101105.093001	20101105.093738	single-task	8	0.013328	60	10	60-180	60	82	GapExp	0	76	2	6	1	target	1	520	740	94927	13.328	13.303	13.353
DTProbeTrack03	5	ProbeTrackDT	1.1	SCS215a	20101105.093001	20101105.093743	single-task	8	0.013328	60	10	60-180	60	97	GapExp	0	77	2	45	0	target	0	720	-1000	93927	13.327	12.878	13.771
DTProbeTrack03	5	ProbeTrackDT	1.1	SCS215a	20101105.093001	20101105.093749	single-task	8	0.013328	60	10	60-180	60	84	GapExp	0	78	2	9	1	target	1	733	634	94561	13.328	13.309	13.347
DTProbeTrack03	5	ProbeTrackDT	1.1	SCS215a	20101105.093001	20101105.093755	single-task	8	0.013328	60	10	60-180	60	140	GapExp	0	79	2	9	1	target	1	494	753	95314	13.328	12.935	13.740
DTProbeTrack03	5	ProbeTrackDT	1.1	SCS215a	20101105.093001	20101105.093800	single-task	8	0.013328	60	10	60-180	60	71	GapExp	0	80	2	45	1	target	1	1120	440	95754	13.328	12.993	13.646
DTProbeTrack03	5	ProbeTrackDT	1.1	SCS215a	20101105.093001	20101105.093806	single-task	8	0.013328	60	10	60-180	60	77	GapExp	0	81	2	45	0	distractor	1	680	660	96414	13.328	12.940	13.713
DTProbeTrack03	5	ProbeTrackDT	1.1	SCS215a	20101105.093001	20101105.093812	single-task	8	0.013328	60	10	60-180	60	173	GapExp	0	82	2	6	0	target	0	813	-1000	95414	13.328	13.093	13.554
DTProbeTrack03	5	ProbeTrackDT	1.1	SCS215a	20101105.093001	20101105.093819	single-task	8	0.013328	60	10	60-180	60	103	GapExp	0	83	2	45	0	distractor	1	720	640	96054	13.328	13.307	13.347
DTProbeTrack03	5	ProbeTrackDT	1.1	SCS215a	20101105.093001	20101105.093825	single-task	8	0.013328	60	10	60-180	60	170	GapExp	0	84	2	3	1	target	1	627	687	96741	13.328	12.898	13.769
DTProbeTrack03	5	ProbeTrackDT	1.1	SCS215a	20101105.093001	20101105.093831	single-task	8	0.013328	60	10	60-180	60	88	GapExp	0	85	2	1	1	target	1	520	740	97481	13.328	13.114	13.544
DTProbeTrack03	5	ProbeTrackDT	1.1	SCS215a	20101105.093001	20101105.093836	single-task	8	0.013328	60	10	60-180	60	93	GapExp	0	86	2	3	1	distractor	0	680	-1000	96481	13.328	12.972	13.689
DTProbeTrack03	5	ProbeTrackDT	1.1	SCS215a	20101105.093001	20101105.093842	single-task	8	0.013328	60	10	60-180	60	130	GapExp	0	87	2	1	1	target	1	560	720	97201	13.328	13.063	13.470
DTProbeTrack03	5	ProbeTrackDT	1.1	SCS215a	20101105.093001	20101105.093847	single-task	8	0.013328	60	10	60-180	60	67	GapExp	0	88	2	9	0	target	0	547	-1000	96201	13.330	13.301	13.759
DTProbeTrack03	5	ProbeTrackDT	1.1	SCS215a	20101105.093001	20101105.093852	single-task	8	0.013328	60	10	60-180	60	89	GapExp	0	89	2	1	1	target	1	600	700	96901	13.328	13.108	13.550
DTProbeTrack03	5	ProbeTrackDT	1.1	SCS215a	20101105.093001	20101105.093857	single-task	8	0.013328	60	10	60-180	60	141	GapExp	0	90	2	9	0	distractor	1	1480	260	97161	13.328	13.308	13.352
DTProbeTrack03	5	ProbeTrackDT	1.1	SCS215a	20101105.093001	20101105.093904	single-task	8	0.013328	60	10	60-180	60	93	GapExp	0	91	2	9	1	target	1	587	707	97868	13.329	12.923	13.748
DTProbeTrack03	5	ProbeTrackDT	1.1	SCS215a	20101105.093001	20101105.093909	single-task	8	0.013328	60	10	60-180	60	141	GapExp	0	92	2	3	0	distractor	1	680	660	98528	13.328	13.308	13.348
DTProbeTrack03	5	ProbeTrackDT	1.1	SCS215a	20101105.093001	20101105.093915	single-task	8	0.013328	60	10	60-180	60	165	GapExp	0	93	2	45	1	target	1	693	654	99182	13.328	12.917	13.753
DTProbeTrack03	5	ProbeTrackDT	1.1	SCS215a	20101105.093001	20101105.093922	single-task	8	0.013328	60	10	60-180	60	127	GapExp	0	94	2	45	0	distractor	1	627	687	99869	13.328	13.307	13.348
DTProbeTrack03	5	ProbeTrackDT	1.1	SCS215a	20101105.093001	20101105.093929	single-task	8	0.013328	60	10	60-180	60	87	GapExp	0	95	2	1	1	target	1	880	560	100429	13.328	13.307	13.347
DTProbeTrack03	5	ProbeTrackDT	1.1	SCS215a	20101105.093001	20101105.093934	single-task	8	0.013328	60	10	60-180	60	92	GapExp	0	96	2	45	0	target	0	1053	-1000	99429	13.328	12.876	13.772
DTProbeTrack03	5	ProbeTrackDT	1.1	SCS215a	20101105.093001	20101105.093940	single-task	8	0.013328	60	10	60-180	60	124	GapExp	0	97	2	9	1	target	1	547	727	100156	13.328	12.990	13.664
DTProbeTrack03	5	ProbeTrackDT	1.1	SCS215a	20101105.093001	20101105.093946	single-task	8	0.013328	60	10	60-180	60	100	GapExp	0	98	2	1	0	distractor	1	600	700	100856	13.328	13.057	13.612
DTProbeTrack03	5	ProbeTrackDT	1.1	SCS215a	20101105.093001	20101105.093951	single-task	8	0.013328	60	10	60-180	60	129	GapExp	0	99	2	9	1	target	1	653	674	101530	13.328	13.068	13.581
DTProbeTrack03	5	ProbeTrackDT	1.1	SCS215a	20101105.093001	20101105.093957	single-task	8	0.013328	60	10	60-180	60	157	GapExp	0	100	2	9	0	distractor	1	600	700	102230	13.328	12.876	13.786
DTProbeTrack03	5	ProbeTrackDT	1.1	SCS215a	20101105.093001	20101105.094010	single-task	8	0.013328	60	10	60-180	60	85	GapExp	0	101	2	6	0	distractor	1	627	687	102917	13.328	12.877	13.775
DTProbeTrack03	5	ProbeTrackDT	1.1	SCS215a	20101105.093001	20101105.094015	single-task	8	0.013328	60	10	60-180	60	136	GapExp	0	102	2	6	1	target	1	534	733	103650	13.328	13.089	13.553
DTProbeTrack03	5	ProbeTrackDT	1.1	SCS215a	20101105.093001	20101105.094021	single-task	8	0.013328	60	10	60-180	60	168	GapExp	0	103	2	45	1	target	1	480	760	104410	13.328	13.111	13.551
DTProbeTrack03	5	ProbeTrackDT	1.1	SCS215a	20101105.093001	20101105.094027	single-task	8	0.013328	60	10	60-180	60	115	GapExp	0	104	2	6	0	distractor	1	587	707	105117	13.328	13.299	13.362
DTProbeTrack03	5	ProbeTrackDT	1.1	SCS215a	20101105.093001	20101105.094033	single-task	8	0.013328	60	10	60-180	60	170	GapExp	0	105	2	3	1	target	1	467	767	105884	13.328	12.858	13.833
DTProbeTrack03	5	ProbeTrackDT	1.1	SCS215a	20101105.093001	20101105.094039	single-task	8	0.013328	60	10	60-180	60	157	GapExp	0	106	2	3	0	target	0	547	-1000	104884	13.328	13.027	13.625
DTProbeTrack03	5	ProbeTrackDT	1.1	SCS215a	20101105.093001	20101105.094045	single-task	8	0.013328	60	10	60-180	60	165	GapExp	0	107	2	45	0	distractor	1	680	660	105544	13.328	13.095	13.743
DTProbeTrack03	5	ProbeTrackDT	1.1	SCS215a	20101105.093001	20101105.094052	single-task	8	0.013328	60	10	60-180	60	100	GapExp	0	108	2	6	0	target	0	867	-1000	104544	13.328	13.097	13.560
DTProbeTrack03	5	ProbeTrackDT	1.1	SCS215a	20101105.093001	20101105.094058	single-task	8	0.013328	60	10	60-180	60	118	GapExp	0	109	2	3	0	distractor	1	640	680	105224	13.328	12.950	13.712
DTProbeTrack03	5	ProbeTrackDT	1.1	SCS215a	20101105.093001	20101105.094103	single-task	8	0.013328	60	10	60-180	60	153	GapExp	0	110	2	9	1	target	1	574	713	105937	13.328	13.098	13.561
DTProbeTrack03	5	ProbeTrackDT	1.1	SCS215a	20101105.093001	20101105.094109	single-task	8	0.013328	60	10	60-180	60	75	GapExp	0	111	2	6	1	target	1	467	767	106704	13.328	12.877	13.788
DTProbeTrack03	5	ProbeTrackDT	1.1	SCS215a	20101105.093001	20101105.094114	single-task	8	0.013328	60	10	60-180	60	142	GapExp	0	112	2	1	0	distractor	1	654	673	107377	13.328	13.095	13.456
DTProbeTrack03	5	ProbeTrackDT	1.1	SCS215a	20101105.093001	20101105.094120	single-task	8	0.013328	60	10	60-180	60	98	GapExp	0	113	2	3	0	distractor	1	693	654	108031	13.328	13.071	13.618
DTProbeTrack03	5	ProbeTrackDT	1.1	SCS215a	20101105.093001	20101105.094126	single-task	8	0.013328	60	10	60-180	60	163	GapExp	0	114	2	1	0	distractor	1	560	720	108751	13.328	13.069	13.586
DTProbeTrack03	5	ProbeTrackDT	1.1	SCS215a	20101105.093001	20101105.094132	single-task	8	0.013328	60	10	60-180	60	64	GapExp	0	115	2	3	0	distractor	1	1280	360	109111	13.328	13.021	13.626
DTProbeTrack03	5	ProbeTrackDT	1.1	SCS215a	20101105.093001	20101105.094138	single-task	8	0.013328	60	10	60-180	60	68	GapExp	0	116	2	6	0	target	0	840	-1000	108111	13.328	12.981	13.674
DTProbeTrack03	5	ProbeTrackDT	1.1	SCS215a	20101105.093001	20101105.094143	single-task	8	0.013328	60	10	60-180	60	106	GapExp	0	117	2	9	1	target	1	587	707	108818	13.328	13.295	13.370
DTProbeTrack03	5	ProbeTrackDT	1.1	SCS215a	20101105.093001	20101105.094148	single-task	8	0.013328	60	10	60-180	60	125	GapExp	0	118	2	3	0	distractor	1	667	667	109485	13.328	13.095	13.563
DTProbeTrack03	5	ProbeTrackDT	1.1	SCS215a	20101105.093001	20101105.094154	single-task	8	0.013328	60	10	60-180	60	142	GapExp	0	119	2	45	0	distractor	1	787	607	110092	13.328	13.100	13.566
DTProbeTrack03	5	ProbeTrackDT	1.1	SCS215a	20101105.093001	20101105.094201	single-task	8	0.013328	60	10	60-180	60	65	GapExp	0	120	2	1	1	target	1	600	700	110792	13.328	13.111	13.552
DTProbeTrack03	5	ProbeTrackDT	1.1	SCS215a	20101105.093001	20101105.094206	single-task	8	0.013328	60	10	60-180	60	128	GapExp	0	121	2	1	0	target	0	614	-1000	109792	13.328	13.298	13.360
DTProbeTrack03	5	ProbeTrackDT	1.1	SCS215a	20101105.093001	20101105.094211	single-task	8	0.013328	60	10	60-180	60	81	GapExp	0	122	2	45	1	target	1	1360	320	110112	13.328	13.113	13.531
DTProbeTrack03	5	ProbeTrackDT	1.1	SCS215a	20101105.093001	20101105.094218	single-task	8	0.013328	60	10	60-180	60	144	GapExp	0	123	2	45	0	target	0	787	-1000	109112	13.328	13.287	13.371
DTProbeTrack03	5	ProbeTrackDT	1.1	SCS215a	20101105.093001	20101105.094224	single-task	8	0.013328	60	10	60-180	60	178	GapExp	0	124	2	9	0	target	0	520	-1000	108112	13.328	13.304	13.347
DTProbeTrack03	5	ProbeTrackDT	1.1	SCS215a	20101105.093001	20101105.094231	single-task	8	0.013328	60	10	60-180	60	140	GapExp	0	125	2	6	1	target	1	560	720	108832	13.328	13.309	13.348
DTProbeTrack03	5	ProbeTrackDT	1.1	SCS215a	20101105.093001	20101105.094237	single-task	8	0.013328	60	10	60-180	60	128	GapExp	0	126	2	9	0	distractor	1	640	680	109512	13.328	13.088	13.570
DTProbeTrack03	5	ProbeTrackDT	1.1	SCS215a	20101105.093001	20101105.094243	single-task	8	0.013328	60	10	60-180	60	105	GapExp	0	127	2	3	1	target	1	867	567	110079	13.328	13.085	13.564
DTProbeTrack03	5	ProbeTrackDT	1.1	SCS215a	20101105.093001	20101105.094248	single-task	8	0.013328	60	10	60-180	60	157	GapExp	0	128	2	1	1	target	1	587	707	110786	13.328	13.083	13.555
DTProbeTrack03	5	ProbeTrackDT	1.1	SCS215a	20101105.093001	20101105.094254	single-task	8	0.013328	60	10	60-180	60	136	GapExp	0	129	2	6	1	distractor	0	534	-1000	109786	13.328	12.845	13.805
DTProbeTrack03	5	ProbeTrackDT	1.1	SCS215a	20101105.093001	20101105.094300	single-task	8	0.013328	60	10	60-180	60	110	GapExp	0	130	2	6	0	target	0	520	-1000	108786	13.328	13.311	13.345
DTProbeTrack03	5	ProbeTrackDT	1.1	SCS215a	20101105.093001	20101105.094306	single-task	8	0.013328	60	10	60-180	60	172	GapExp	0	131	2	9	1	distractor	0	933	-1000	107786	13.328	13.282	13.360
DTProbeTrack03	5	ProbeTrackDT	1.1	SCS215a	20101105.093001	20101105.094313	single-task	8	0.013328	60	10	60-180	60	116	GapExp	0	132	2	3	0	distractor	1	653	674	108460	13.328	13.303	13.351
DTProbeTrack03	5	ProbeTrackDT	1.1	SCS215a	20101105.093001	20101105.094318	single-task	8	0.013328	60	10	60-180	60	95	GapExp	0	133	2	9	1	target	1	614	693	109153	13.328	13.095	13.551
DTProbeTrack03	5	ProbeTrackDT	1.1	SCS215a	20101105.093001	20101105.094324	single-task	8	0.013328	60	10	60-180	60	123	GapExp	0	134	2	1	1	target	1	760	620	109773	13.328	12.879	13.786
DTProbeTrack03	5	ProbeTrackDT	1.1	SCS215a	20101105.093001	20101105.094329	single-task	8	0.013328	60	10	60-180	60	87	GapExp	0	135	2	3	1	target	1	667	667	110440	13.328	13.134	13.518
DTProbeTrack03	5	ProbeTrackDT	1.1	SCS215a	20101105.093001	20101105.094335	single-task	8	0.013328	60	10	60-180	60	131	GapExp	0	136	2	3	1	target	1	534	733	111173	13.328	13.306	13.352
DTProbeTrack03	5	ProbeTrackDT	1.1	SCS215a	20101105.093001	20101105.094340	single-task	8	0.013328	60	10	60-180	60	152	GapExp	0	137	2	45	0	target	0	1013	-1000	110173	13.328	13.309	13.348
DTProbeTrack03	5	ProbeTrackDT	1.1	SCS215a	20101105.093001	20101105.094347	single-task	8	0.013328	60	10	60-180	60	115	GapExp	0	138	2	6	1	target	1	813	594	110767	13.328	13.308	13.345
DTProbeTrack03	5	ProbeTrackDT	1.1	SCS215a	20101105.093001	20101105.094353	single-task	8	0.013328	60	10	60-180	60	161	GapExp	0	139	2	6	0	distractor	1	600	700	111467	13.328	13.096	13.567
DTProbeTrack03	5	ProbeTrackDT	1.1	SCS215a	20101105.093001	20101105.094359	single-task	8	0.013328	60	10	60-180	60	113	GapExp	0	140	2	1	1	target	1	1253	374	111841	13.328	12.982	13.670
DTProbeTrack03	5	ProbeTrackDT	1.1	SCS215a	20101105.093001	20101105.094405	single-task	8	0.013328	60	10	60-180	60	117	GapExp	0	141	2	1	1	target	1	1160	420	112261	13.328	13.098	13.558
DTProbeTrack03	5	ProbeTrackDT	1.1	SCS215a	20101105.093001	20101105.094412	single-task	8	0.013328	60	10	60-180	60	61	GapExp	0	142	2	45	0	distractor	1	1986	7	112268	13.328	13.108	13.546
DTProbeTrack03	5	ProbeTrackDT	1.1	SCS215a	20101105.093001	20101105.094418	single-task	8	0.013328	60	10	60-180	60	119	GapExp	0	143	2	9	0	target	0	747	-1000	111268	13.328	13.079	13.735
DTProbeTrack03	5	ProbeTrackDT	1.1	SCS215a	20101105.093001	20101105.094424	single-task	8	0.013328	60	10	60-180	60	173	GapExp	0	144	2	1	0	target	0	933	-1000	110268	13.328	13.288	13.360
DTProbeTrack03	5	ProbeTrackDT	1.1	SCS215a	20101105.093001	20101105.094431	single-task	8	0.013328	60	10	60-180	60	114	GapExp	0	145	2	3	0	distractor	1	721	640	110908	13.328	12.840	13.828
DTProbeTrack03	5	ProbeTrackDT	1.1	SCS215a	20101105.093001	20101105.094436	single-task	8	0.013328	60	10	60-180	60	102	GapExp	0	146	2	9	0	distractor	1	614	693	111601	13.328	13.309	13.352
DTProbeTrack03	5	ProbeTrackDT	1.1	SCS215a	20101105.093001	20101105.094442	single-task	8	0.013328	60	10	60-180	60	153	GapExp	0	147	2	1	1	target	1	1147	427	112028	13.328	12.947	13.703
DTProbeTrack03	5	ProbeTrackDT	1.1	SCS215a	20101105.093001	20101105.094449	single-task	8	0.013328	60	10	60-180	60	111	GapExp	0	148	2	45	1	target	1	614	693	112721	13.328	13.107	13.557
DTProbeTrack03	5	ProbeTrackDT	1.1	SCS215a	20101105.093001	20101105.094455	single-task	8	0.013328	60	10	60-180	60	74	GapExp	0	149	2	9	0	target	0	574	-1000	111721	13.328	13.111	13.551
DTProbeTrack03	5	ProbeTrackDT	1.1	SCS215a	20101105.093001	20101105.094500	single-task	8	0.013328	60	10	60-180	60	166	GapExp	0	150	2	45	1	target	1	667	667	112388	13.328	12.949	13.714
DTProbeTrack03	5	ProbeTrackDT	1.1	SCS215a	20101105.093001	20101105.094519	single-task	8	0.013328	60	10	60-180	60	79	GapExp	0	151	2	1	0	distractor	1	1053	474	112862	13.328	13.307	13.347
DTProbeTrack03	5	ProbeTrackDT	1.1	SCS215a	20101105.093001	20101105.094524	single-task	8	0.013328	60	10	60-180	60	99	GapExp	0	152	2	45	0	distractor	1	707	647	113509	13.328	12.909	13.758
DTProbeTrack03	5	ProbeTrackDT	1.1	SCS215a	20101105.093001	20101105.094530	single-task	8	0.013328	60	10	60-180	60	142	GapExp	0	153	2	6	0	target	0	827	-1000	112509	13.328	13.106	13.551
DTProbeTrack03	5	ProbeTrackDT	1.1	SCS215a	20101105.093001	20101105.094536	single-task	8	0.013328	60	10	60-180	60	157	GapExp	0	154	2	3	1	target	1	560	720	113229	13.328	13.141	13.517
DTProbeTrack03	5	ProbeTrackDT	1.1	SCS215a	20101105.093001	20101105.094542	single-task	8	0.013328	60	10	60-180	60	148	GapExp	0	155	2	6	1	target	1	494	753	113982	13.328	13.267	13.385
DTProbeTrack03	5	ProbeTrackDT	1.1	SCS215a	20101105.093001	20101105.094548	single-task	8	0.013328	60	10	60-180	60	175	GapExp	0	156	2	9	0	distractor	1	627	687	114669	13.328	13.308	13.353
DTProbeTrack03	5	ProbeTrackDT	1.1	SCS215a	20101105.093001	20101105.094555	single-task	8	0.013328	60	10	60-180	60	146	GapExp	0	157	2	45	1	target	1	1053	474	115143	13.328	13.303	13.349
DTProbeTrack03	5	ProbeTrackDT	1.1	SCS215a	20101105.093001	20101105.094602	single-task	8	0.013328	60	10	60-180	60	151	GapExp	0	158	2	1	0	distractor	1	614	693	115836	13.328	13.307	13.352
DTProbeTrack03	5	ProbeTrackDT	1.1	SCS215a	20101105.093001	20101105.094608	single-task	8	0.013328	60	10	60-180	60	150	GapExp	0	159	2	6	0	distractor	1	947	527	116363	13.328	12.955	13.696
DTProbeTrack03	5	ProbeTrackDT	1.1	SCS215a	20101105.093001	20101105.094614	single-task	8	0.013328	60	10	60-180	60	96	GapExp	0	160	2	1	1	target	1	773	614	116977	13.328	13.095	13.570
DTProbeTrack03	5	ProbeTrackDT	1.1	SCS215a	20101105.093001	20101105.094620	single-task	8	0.013328	60	10	60-180	60	157	GapExp	0	161	2	3	0	distractor	1	600	700	117677	13.328	13.104	13.546
DTProbeTrack03	5	ProbeTrackDT	1.1	SCS215a	20101105.093001	20101105.094626	single-task	8	0.013328	60	10	60-180	60	158	GapExp	0	162	2	9	1	target	1	653	674	118351	13.328	13.094	13.551
DTProbeTrack03	5	ProbeTrackDT	1.1	SCS215a	20101105.093001	20101105.094632	single-task	8	0.013328	60	10	60-180	60	104	GapExp	0	163	2	1	0	distractor	1	653	674	119025	13.329	13.304	13.554
DTProbeTrack03	5	ProbeTrackDT	1.1	SCS215a	20101105.093001	20101105.094637	single-task	8	0.013328	60	10	60-180	60	140	GapExp	0	164	2	45	1	target	1	587	707	119732	13.328	13.307	13.359
DTProbeTrack03	5	ProbeTrackDT	1.1	SCS215a	20101105.093001	20101105.094644	single-task	8	0.013328	60	10	60-180	60	77	GapExp	0	165	2	6	0	distractor	1	720	640	120372	13.328	12.910	13.739
DTProbeTrack03	5	ProbeTrackDT	1.1	SCS215a	20101105.093001	20101105.094649	single-task	8	0.013328	60	10	60-180	60	137	GapExp	0	166	2	1	0	distractor	1	707	647	121019	13.328	12.896	13.758
DTProbeTrack03	5	ProbeTrackDT	1.1	SCS215a	20101105.093001	20101105.094655	single-task	8	0.013328	60	10	60-180	60	78	GapExp	0	167	2	1	1	target	1	747	627	121646	13.328	13.099	13.561
DTProbeTrack03	5	ProbeTrackDT	1.1	SCS215a	20101105.093001	20101105.094700	single-task	8	0.013328	60	10	60-180	60	145	GapExp	0	168	2	1	0	distractor	1	560	720	122366	13.328	12.912	13.731
DTProbeTrack03	5	ProbeTrackDT	1.1	SCS215a	20101105.093001	20101105.094706	single-task	8	0.013328	60	10	60-180	60	95	GapExp	0	169	2	1	1	target	1	733	634	123000	13.328	13.307	13.347
DTProbeTrack03	5	ProbeTrackDT	1.1	SCS215a	20101105.093001	20101105.094711	single-task	8	0.013328	60	10	60-180	60	88	GapExp	0	170	2	3	0	distractor	1	787	607	123607	13.328	13.298	13.351
DTProbeTrack03	5	ProbeTrackDT	1.1	SCS215a	20101105.093001	20101105.094717	single-task	8	0.013328	60	10	60-180	60	96	GapExp	0	171	2	3	1	target	1	507	747	124354	13.328	13.310	13.347
DTProbeTrack03	5	ProbeTrackDT	1.1	SCS215a	20101105.093001	20101105.094722	single-task	8	0.013328	60	10	60-180	60	144	GapExp	0	172	2	9	0	distractor	1	587	707	125061	13.328	13.101	13.565
DTProbeTrack03	5	ProbeTrackDT	1.1	SCS215a	20101105.093001	20101105.094728	single-task	8	0.013328	60	10	60-180	60	64	GapExp	0	173	2	6	1	target	1	520	740	125801	13.328	13.309	13.347
DTProbeTrack03	5	ProbeTrackDT	1.1	SCS215a	20101105.093001	20101105.094733	single-task	8	0.013328	60	10	60-180	60	93	GapExp	0	174	2	6	1	target	1	560	720	126521	13.328	13.305	13.348
DTProbeTrack03	5	ProbeTrackDT	1.1	SCS215a	20101105.093001	20101105.094738	single-task	8	0.013328	60	10	60-180	60	111	GapExp	0	175	2	6	0	distractor	1	560	720	127241	13.328	13.092	13.349
DTProbeTrack03	5	ProbeTrackDT	1.1	SCS215a	20101105.093001	20101105.094744	single-task	8	0.013328	60	10	60-180	60	139	GapExp	0	176	2	6	1	target	1	1133	434	127675	13.328	13.113	13.557
DTProbeTrack03	5	ProbeTrackDT	1.1	SCS215a	20101105.093001	20101105.094750	single-task	8	0.013328	60	10	60-180	60	166	GapExp	0	177	2	3	0	distractor	1	534	733	128408	13.328	13.305	13.357
DTProbeTrack03	5	ProbeTrackDT	1.1	SCS215a	20101105.093001	20101105.094756	single-task	8	0.013328	60	10	60-180	60	149	GapExp	0	178	2	1	1	target	1	574	713	129121	13.328	12.868	13.790
DTProbeTrack03	5	ProbeTrackDT	1.1	SCS215a	20101105.093001	20101105.094802	single-task	8	0.013328	60	10	60-180	60	76	GapExp	0	179	2	3	1	target	1	587	707	129828	13.328	13.307	13.344
DTProbeTrack03	5	ProbeTrackDT	1.1	SCS215a	20101105.093001	20101105.094807	single-task	8	0.013328	60	10	60-180	60	178	GapExp	0	180	2	45	1	target	1	547	727	130555	13.328	13.310	13.346
DTProbeTrack03	5	ProbeTrackDT	1.1	SCS215a	20101105.093001	20101105.094814	single-task	8	0.013328	60	10	60-180	60	86	GapExp	0	181	2	1	0	distractor	1	813	594	131149	13.328	12.971	13.674
DTProbeTrack03	5	ProbeTrackDT	1.1	SCS215a	20101105.093001	20101105.094820	single-task	8	0.013328	60	10	60-180	60	79	GapExp	0	182	2	6	0	distractor	1	1093	454	131603	13.328	13.057	13.581
DTProbeTrack03	5	ProbeTrackDT	1.1	SCS215a	20101105.093001	20101105.094825	single-task	8	0.013328	60	10	60-180	60	112	GapExp	0	183	2	45	0	distractor	1	800	600	132203	13.328	13.111	13.551
DTProbeTrack03	5	ProbeTrackDT	1.1	SCS215a	20101105.093001	20101105.094832	single-task	8	0.013328	60	10	60-180	60	114	GapExp	0	184	2	9	0	distractor	1	880	560	132763	13.328	13.097	13.551
DTProbeTrack03	5	ProbeTrackDT	1.1	SCS215a	20101105.093001	20101105.094837	single-task	8	0.013328	60	10	60-180	60	108	GapExp	0	185	2	1	0	target	0	707	-1000	131763	13.328	13.307	13.347
DTProbeTrack03	5	ProbeTrackDT	1.1	SCS215a	20101105.093001	20101105.094843	single-task	8	0.013328	60	10	60-180	60	110	GapExp	0	186	2	6	0	distractor	1	600	700	132463	13.328	13.309	13.346
DTProbeTrack03	5	ProbeTrackDT	1.1	SCS215a	20101105.093001	20101105.094849	single-task	8	0.013328	60	10	60-180	60	101	GapExp	0	187	2	6	0	distractor	1	667	667	133130	13.328	13.309	13.348
DTProbeTrack03	5	ProbeTrackDT	1.1	SCS215a	20101105.093001	20101105.094854	single-task	8	0.013328	60	10	60-180	60	121	GapExp	0	188	2	3	1	target	1	893	554	133684	13.328	13.138	13.525
DTProbeTrack03	5	ProbeTrackDT	1.1	SCS215a	20101105.093001	20101105.094900	single-task	8	0.013328	60	10	60-180	60	121	GapExp	0	189	2	9	0	distractor	1	614	693	134377	13.328	13.088	13.553
DTProbeTrack03	5	ProbeTrackDT	1.1	SCS215a	20101105.093001	20101105.094906	single-task	8	0.013328	60	10	60-180	60	146	GapExp	0	190	2	45	1	target	1	680	660	135037	13.328	12.968	13.710
DTProbeTrack03	5	ProbeTrackDT	1.1	SCS215a	20101105.093001	20101105.094912	single-task	8	0.013328	60	10	60-180	60	141	GapExp	0	191	2	6	1	target	1	574	713	135750	13.328	13.305	13.349
DTProbeTrack03	5	ProbeTrackDT	1.1	SCS215a	20101105.093001	20101105.094918	single-task	8	0.013328	60	10	60-180	60	142	GapExp	0	192	2	3	1	target	1	547	727	136477	13.328	12.857	13.793
DTProbeTrack03	5	ProbeTrackDT	1.1	SCS215a	20101105.093001	20101105.094924	single-task	8	0.013328	60	10	60-180	60	170	GapExp	0	193	2	9	1	target	1	574	713	137190	13.328	13.295	13.355
DTProbeTrack03	5	ProbeTrackDT	1.1	SCS215a	20101105.093001	20101105.094931	single-task	8	0.013328	60	10	60-180	60	132	GapExp	0	194	2	6	1	distractor	0	680	-1000	136190	13.328	13.307	13.346
DTProbeTrack03	5	ProbeTrackDT	1.1	SCS215a	20101105.093001	20101105.094936	single-task	8	0.013328	60	10	60-180	60	141	GapExp	0	195	2	6	1	target	1	534	733	136923	13.328	13.095	13.553
DTProbeTrack03	5	ProbeTrackDT	1.1	SCS215a	20101105.093001	20101105.094942	single-task	8	0.013328	60	10	60-180	60	160	GapExp	0	196	2	45	1	target	1	720	640	137563	13.328	13.109	13.550
DTProbeTrack03	5	ProbeTrackDT	1.1	SCS215a	20101105.093001	20101105.094949	single-task	8	0.013328	60	10	60-180	60	89	GapExp	0	197	2	3	0	target	0	747	-1000	136563	13.328	13.097	13.546
DTProbeTrack03	5	ProbeTrackDT	1.1	SCS215a	20101105.093001	20101105.094955	single-task	8	0.013328	60	10	60-180	60	119	GapExp	0	198	2	6	1	target	1	1000	500	137063	13.328	13.225	13.422
DTProbeTrack03	5	ProbeTrackDT	1.1	SCS215a	20101105.093001	20101105.095001	single-task	8	0.013328	60	10	60-180	60	152	GapExp	0	199	2	3	0	distractor	1	600	700	137763	13.328	13.308	13.350
DTProbeTrack03	5	ProbeTrackDT	1.1	SCS215a	20101105.093001	20101105.095007	single-task	8	0.013328	60	10	60-180	60	120	GapExp	0	200	2	6	1	target	1	987	507	138270	13.328	13.309	13.347
DTProbeTrack03	5	ProbeTrackDT	1.1	SCS215a	20101105.093001	20101105.095018	single-task	8	0.013328	60	10	60-180	60	130	GapExp	0	201	2	45	1	target	1	707	647	138917	13.328	13.013	13.638
DTProbeTrack03	5	ProbeTrackDT	1.1	SCS215a	20101105.093001	20101105.095025	single-task	8	0.013328	60	10	60-180	60	83	GapExp	0	202	2	9	0	distractor	1	733	634	139551	13.328	13.116	13.541
DTProbeTrack03	5	ProbeTrackDT	1.1	SCS215a	20101105.093001	20101105.095030	single-task	8	0.013328	60	10	60-180	60	80	GapExp	0	203	2	3	1	target	1	693	654	140205	13.328	12.981	13.680
DTProbeTrack03	5	ProbeTrackDT	1.1	SCS215a	20101105.093001	20101105.095035	single-task	8	0.013328	60	10	60-180	60	66	GapExp	0	204	2	6	1	target	1	667	667	140872	13.328	13.307	13.347
DTProbeTrack03	5	ProbeTrackDT	1.1	SCS215a	20101105.093001	20101105.095040	single-task	8	0.013328	60	10	60-180	60	79	GapExp	0	205	2	9	1	target	1	1333	334	141206	13.328	13.017	13.639
DTProbeTrack03	5	ProbeTrackDT	1.1	SCS215a	20101105.095135	20101105.095142	dt-shadow	8	0.013328	60	10	60-180	60	146	GapPrac	1	1	2	3	1	target	1	694	653	141859	13.328	13.304	13.348
DTProbeTrack03	5	ProbeTrackDT	1.1	SCS215a	20101105.095135	20101105.095148	dt-shadow	8	0.013328	60	10	60-180	60	107	GapPrac	1	2	2	45	1	target	1	520	740	142599	13.328	13.059	13.592
DTProbeTrack03	5	ProbeTrackDT	1.1	SCS215a	20101105.095135	20101105.095154	dt-shadow	8	0.013328	60	10	60-180	60	88	GapPrac	1	3	2	9	1	target	1	494	753	143352	13.328	13.306	13.353
DTProbeTrack03	5	ProbeTrackDT	1.1	SCS215a	20101105.095135	20101105.095159	dt-shadow	8	0.013328	60	10	60-180	60	85	GapPrac	1	4	2	1	1	target	1	614	693	144045	13.328	13.309	13.349
DTProbeTrack03	5	ProbeTrackDT	1.1	SCS215a	20101105.095135	20101105.095204	dt-shadow	8	0.013328	60	10	60-180	60	142	GapPrac	1	5	2	9	0	distractor	1	507	747	144792	13.328	13.304	13.350
DTProbeTrack03	5	ProbeTrackDT	1.1	SCS215a	20101105.095135	20101105.095210	dt-shadow	8	0.013328	60	10	60-180	60	110	GapPrac	1	6	2	3	0	distractor	1	507	747	145539	13.328	13.095	13.555
DTProbeTrack03	5	ProbeTrackDT	1.1	SCS215a	20101105.095135	20101105.095216	dt-shadow	8	0.013328	60	10	60-180	60	99	GapPrac	1	7	2	45	1	target	1	534	733	146272	13.328	12.979	13.670
DTProbeTrack03	5	ProbeTrackDT	1.1	SCS215a	20101105.095135	20101105.095222	dt-shadow	8	0.013328	60	10	60-180	60	153	GapPrac	1	8	2	1	1	target	1	560	720	146992	13.328	13.108	13.551
DTProbeTrack03	5	ProbeTrackDT	1.1	SCS215a	20101105.095135	20101105.095228	dt-shadow	8	0.013328	60	10	60-180	60	138	GapPrac	1	9	2	9	1	target	1	560	720	147712	13.328	13.308	13.351
DTProbeTrack03	5	ProbeTrackDT	1.1	SCS215a	20101105.095135	20101105.095233	dt-shadow	8	0.013328	60	10	60-180	60	113	GapPrac	1	10	2	45	0	distractor	1	600	700	148412	13.328	13.309	13.349
DTProbeTrack03	5	ProbeTrackDT	1.1	SCS215a	20101105.095135	20101105.095240	dt-shadow	8	0.013328	60	10	60-180	60	86	GapPrac	1	11	2	6	0	distractor	1	574	713	149125	13.328	13.310	13.347
DTProbeTrack03	5	ProbeTrackDT	1.1	SCS215a	20101105.095135	20101105.095245	dt-shadow	8	0.013328	60	10	60-180	60	101	GapPrac	1	12	2	1	0	distractor	1	800	600	149725	13.328	13.094	13.550
DTProbeTrack03	5	ProbeTrackDT	1.1	SCS215a	20101105.095135	20101105.095250	dt-shadow	8	0.013328	60	10	60-180	60	143	GapPrac	1	13	2	3	0	target	0	800	-1000	148725	13.328	12.951	13.705
DTProbeTrack03	5	ProbeTrackDT	1.1	SCS215a	20101105.095135	20101105.095256	dt-shadow	8	0.013328	60	10	60-180	60	165	GapPrac	1	14	2	6	1	target	1	547	727	149452	13.328	13.101	13.551
DTProbeTrack03	5	ProbeTrackDT	1.1	SCS215a	20101105.095135	20101105.095303	dt-shadow	8	0.013328	60	10	60-180	60	116	GapPrac	1	15	2	9	0	target	0	853	-1000	148452	13.328	13.309	13.346
DTProbeTrack03	5	ProbeTrackDT	1.1	SCS215a	20101105.095135	20101105.095308	dt-shadow	8	0.013328	60	10	60-180	60	132	GapPrac	1	16	2	3	1	target	1	680	660	149112	13.328	13.301	13.366
DTProbeTrack03	5	ProbeTrackDT	1.1	SCS215a	20101105.095135	20101105.095314	dt-shadow	8	0.013328	60	10	60-180	60	107	GapPrac	1	17	2	45	0	distractor	1	520	740	149852	13.328	13.306	13.345
DTProbeTrack03	5	ProbeTrackDT	1.1	SCS215a	20101105.095135	20101105.095320	dt-shadow	8	0.013328	60	10	60-180	60	125	GapPrac	1	18	2	1	0	distractor	1	1120	440	150292	13.328	12.915	13.735
DTProbeTrack03	5	ProbeTrackDT	1.1	SCS215a	20101105.095135	20101105.095326	dt-shadow	8	0.013328	60	10	60-180	60	116	GapPrac	1	19	2	6	0	target	0	1120	-1000	149292	13.328	13.095	13.564
DTProbeTrack03	5	ProbeTrackDT	1.1	SCS215a	20101105.095135	20101105.095333	dt-shadow	8	0.013328	60	10	60-180	60	150	GapPrac	1	20	2	6	1	target	1	560	720	150012	13.328	13.091	13.560
DTProbeTrack03	5	ProbeTrackDT	1.1	SCS215a	20101105.095410	20101105.095419	dt-shadow	8	0.013328	60	10	60-180	60	133	GapExp	1	1	2	3	1	target	1	1027	487	150499	13.328	13.269	13.390
DTProbeTrack03	5	ProbeTrackDT	1.1	SCS215a	20101105.095410	20101105.095425	dt-shadow	8	0.013328	60	10	60-180	60	91	GapExp	1	2	2	9	0	distractor	1	547	727	151226	13.328	12.968	13.700
DTProbeTrack03	5	ProbeTrackDT	1.1	SCS215a	20101105.095410	20101105.095431	dt-shadow	8	0.013328	60	10	60-180	60	163	GapExp	1	3	2	3	0	distractor	1	467	767	151993	13.328	13.308	13.351
DTProbeTrack03	5	ProbeTrackDT	1.1	SCS215a	20101105.095410	20101105.095437	dt-shadow	8	0.013328	60	10	60-180	60	115	GapExp	1	4	2	45	1	target	1	1160	420	152413	13.328	13.095	13.545
DTProbeTrack03	5	ProbeTrackDT	1.1	SCS215a	20101105.095410	20101105.095444	dt-shadow	8	0.013328	60	10	60-180	60	115	GapExp	1	5	2	1	1	target	1	720	640	153053	13.328	13.097	13.560
DTProbeTrack03	5	ProbeTrackDT	1.1	SCS215a	20101105.095410	20101105.095449	dt-shadow	8	0.013328	60	10	60-180	60	101	GapExp	0	6	2	9	1	target	1	600	700	153753	13.328	13.081	13.576
DTProbeTrack03	5	ProbeTrackDT	1.1	SCS215a	20101105.095410	20101105.095455	dt-shadow	8	0.013328	60	10	60-180	60	138	GapExp	0	7	2	9	1	target	1	507	747	154500	13.328	12.967	13.685
DTProbeTrack03	5	ProbeTrackDT	1.1	SCS215a	20101105.095410	20101105.095500	dt-shadow	8	0.013328	60	10	60-180	60	107	GapExp	0	8	2	9	0	distractor	1	613	694	155194	13.328	12.941	13.724
DTProbeTrack03	5	ProbeTrackDT	1.1	SCS215a	20101105.095410	20101105.095506	dt-shadow	8	0.013328	60	10	60-180	60	158	GapExp	0	9	2	45	1	target	1	640	680	155874	13.328	12.886	13.777
DTProbeTrack03	5	ProbeTrackDT	1.1	SCS215a	20101105.095410	20101105.095513	dt-shadow	8	0.013328	60	10	60-180	60	121	GapExp	0	10	2	6	1	target	1	587	707	156581	13.328	13.101	13.554
DTProbeTrack03	5	ProbeTrackDT	1.1	SCS215a	20101105.095410	20101105.095518	dt-shadow	8	0.013328	60	10	60-180	60	85	GapExp	0	11	2	6	0	distractor	1	614	693	157274	13.328	13.014	13.604
DTProbeTrack03	5	ProbeTrackDT	1.1	SCS215a	20101105.095410	20101105.095524	dt-shadow	8	0.013328	60	10	60-180	60	167	GapExp	0	12	2	9	0	target	0	587	-1000	156274	13.328	13.098	13.547
DTProbeTrack03	5	ProbeTrackDT	1.1	SCS215a	20101105.095410	20101105.095530	dt-shadow	8	0.013328	60	10	60-180	60	171	GapExp	0	13	2	1	0	distractor	1	667	667	156941	13.328	13.269	13.380
DTProbeTrack03	5	ProbeTrackDT	1.1	SCS215a	20101105.095410	20101105.095536	dt-shadow	8	0.013328	60	10	60-180	60	117	GapExp	0	14	2	45	1	target	1	1213	394	157335	13.328	13.296	13.354
DTProbeTrack03	5	ProbeTrackDT	1.1	SCS215a	20101105.095410	20101105.095543	dt-shadow	8	0.013328	60	10	60-180	60	111	GapExp	0	15	2	6	0	distractor	1	680	660	157995	13.328	13.177	13.473
DTProbeTrack03	5	ProbeTrackDT	1.1	SCS215a	20101105.095410	20101105.095549	dt-shadow	8	0.013328	60	10	60-180	60	138	GapExp	0	16	2	3	1	target	1	947	527	158522	13.328	13.308	13.348
DTProbeTrack03	5	ProbeTrackDT	1.1	SCS215a	20101105.095410	20101105.095555	dt-shadow	8	0.013328	60	10	60-180	60	116	GapExp	0	17	2	45	1	target	1	587	707	159229	13.328	13.086	13.563
DTProbeTrack03	5	ProbeTrackDT	1.1	SCS215a	20101105.095410	20101105.095601	dt-shadow	8	0.013328	60	10	60-180	60	145	GapExp	0	18	2	6	1	target	1	520	740	159969	13.328	13.054	13.600
DTProbeTrack03	5	ProbeTrackDT	1.1	SCS215a	20101105.095410	20101105.095607	dt-shadow	8	0.013328	60	10	60-180	60	99	GapExp	0	19	2	45	0	distractor	1	707	647	160616	13.328	13.307	13.353
DTProbeTrack03	5	ProbeTrackDT	1.1	SCS215a	20101105.095410	20101105.095613	dt-shadow	8	0.013328	60	10	60-180	60	102	GapExp	0	20	2	3	1	target	1	773	614	161230	13.328	13.090	13.564
DTProbeTrack03	5	ProbeTrackDT	1.1	SCS215a	20101105.095410	20101105.095619	dt-shadow	8	0.013328	60	10	60-180	60	110	GapExp	0	21	2	1	1	target	1	547	727	161957	13.328	13.303	13.347
DTProbeTrack03	5	ProbeTrackDT	1.1	SCS215a	20101105.095410	20101105.095624	dt-shadow	8	0.013328	60	10	60-180	60	70	GapExp	0	22	2	1	1	target	1	880	560	162517	13.328	13.309	13.346
DTProbeTrack03	5	ProbeTrackDT	1.1	SCS215a	20101105.095410	20101105.095629	dt-shadow	8	0.013328	60	10	60-180	60	150	GapExp	0	23	2	3	1	target	1	600	700	163217	13.328	13.093	13.566
DTProbeTrack03	5	ProbeTrackDT	1.1	SCS215a	20101105.095410	20101105.095635	dt-shadow	8	0.013328	60	10	60-180	60	92	GapExp	0	24	2	1	0	target	0	574	-1000	162217	13.328	12.981	13.671
DTProbeTrack03	5	ProbeTrackDT	1.1	SCS215a	20101105.095410	20101105.095640	dt-shadow	8	0.013328	60	10	60-180	60	174	GapExp	0	25	2	3	1	target	1	587	707	162924	13.328	12.931	13.731
DTProbeTrack03	5	ProbeTrackDT	1.1	SCS215a	20101105.095410	20101105.095647	dt-shadow	8	0.013328	60	10	60-180	60	154	GapExp	0	26	2	3	1	target	1	627	687	163611	13.328	13.155	13.512
DTProbeTrack03	5	ProbeTrackDT	1.1	SCS215a	20101105.095410	20101105.095653	dt-shadow	8	0.013328	60	10	60-180	60	155	GapExp	0	27	2	3	0	distractor	1	640	680	164291	13.328	12.850	13.810
DTProbeTrack03	5	ProbeTrackDT	1.1	SCS215a	20101105.095410	20101105.095659	dt-shadow	8	0.013328	60	10	60-180	60	85	GapExp	0	28	2	3	0	distractor	1	653	674	164965	13.328	12.868	13.787
DTProbeTrack03	5	ProbeTrackDT	1.1	SCS215a	20101105.095410	20101105.095704	dt-shadow	8	0.013328	60	10	60-180	60	147	GapExp	0	29	2	45	1	target	1	613	694	165659	13.328	12.968	13.671
DTProbeTrack03	5	ProbeTrackDT	1.1	SCS215a	20101105.095410	20101105.095711	dt-shadow	8	0.013328	60	10	60-180	60	102	GapExp	0	30	2	9	0	distractor	1	587	707	166366	13.328	12.885	13.780
DTProbeTrack03	5	ProbeTrackDT	1.1	SCS215a	20101105.095410	20101105.095716	dt-shadow	8	0.013328	60	10	60-180	60	140	GapExp	0	31	2	45	0	distractor	1	627	687	167053	13.328	12.946	13.706
DTProbeTrack03	5	ProbeTrackDT	1.1	SCS215a	20101105.095410	20101105.095723	dt-shadow	8	0.013328	60	10	60-180	60	123	GapExp	0	32	2	6	0	distractor	1	693	654	167707	13.328	12.935	13.724
DTProbeTrack03	5	ProbeTrackDT	1.1	SCS215a	20101105.095410	20101105.095729	dt-shadow	8	0.013328	60	10	60-180	60	174	GapExp	0	33	2	9	0	distractor	1	893	554	168261	13.328	13.308	13.353
DTProbeTrack03	5	ProbeTrackDT	1.1	SCS215a	20101105.095410	20101105.095735	dt-shadow	8	0.013328	60	10	60-180	60	114	GapExp	0	34	2	1	0	distractor	1	747	627	168888	13.328	12.961	13.693
DTProbeTrack03	5	ProbeTrackDT	1.1	SCS215a	20101105.095410	20101105.095741	dt-shadow	8	0.013328	60	10	60-180	60	68	GapExp	0	35	2	9	1	target	1	574	713	169601	13.328	12.924	13.723
DTProbeTrack03	5	ProbeTrackDT	1.1	SCS215a	20101105.095410	20101105.095746	dt-shadow	8	0.013328	60	10	60-180	60	112	GapExp	0	36	2	1	1	target	1	587	707	170308	13.328	12.869	13.801
DTProbeTrack03	5	ProbeTrackDT	1.1	SCS215a	20101105.095410	20101105.095751	dt-shadow	8	0.013328	60	10	60-180	60	168	GapExp	0	37	2	1	0	distractor	1	613	694	171002	13.328	13.097	13.554
DTProbeTrack03	5	ProbeTrackDT	1.1	SCS215a	20101105.095410	20101105.095758	dt-shadow	8	0.013328	60	10	60-180	60	161	GapExp	0	38	2	9	0	target	0	920	-1000	170002	13.328	13.103	13.551
DTProbeTrack03	5	ProbeTrackDT	1.1	SCS215a	20101105.095410	20101105.095804	dt-shadow	8	0.013328	60	10	60-180	60	80	GapExp	0	39	2	3	0	distractor	1	653	674	170676	13.328	13.285	13.370
