exp	sub	code	rev	comp	runtime	trialtime	stdt	nstim	refreshdur	cuedur	gapdur	gapOnsetRange	durPostProbe	gapOnsetTime	blocktype	prac	trial	ntargets	soa	probeTarget	resp	acc	rt	pts	tpts	meanFrameDur	minFrameDur	maxFrameDur
DTProbeTrack03	19	ProbeTrackDT	1.1	SCS215a	20110128.124352	20110128.124401	single-task	8	0.013328	60	0	60-180	60	131	NoGap	1	1	2	45	0	distractor	1	2426	0	0	13.328	12.850	13.804
DTProbeTrack03	19	ProbeTrackDT	1.1	SCS215a	20110128.124352	20110128.124409	single-task	8	0.013328	60	0	60-180	60	140	NoGap	1	2	2	9	1	target	1	534	733	733	13.328	12.893	13.757
DTProbeTrack03	19	ProbeTrackDT	1.1	SCS215a	20110128.124352	20110128.124415	single-task	8	0.013328	60	0	60-180	60	142	NoGap	1	3	2	45	1	distractor	0	574	-1000	-267	13.328	13.309	13.347
DTProbeTrack03	19	ProbeTrackDT	1.1	SCS215a	20110128.124352	20110128.124421	single-task	8	0.013328	60	0	60-180	60	146	NoGap	1	4	2	6	0	distractor	1	707	647	380	13.328	13.297	13.348
DTProbeTrack03	19	ProbeTrackDT	1.1	SCS215a	20110128.124352	20110128.124427	single-task	8	0.013328	60	0	60-180	60	129	NoGap	1	5	2	3	0	distractor	1	760	620	1000	13.328	13.188	13.459
DTProbeTrack03	19	ProbeTrackDT	1.1	SCS215a	20110128.124352	20110128.124433	single-task	8	0.013328	60	0	60-180	60	106	NoGap	1	6	2	6	1	target	1	573	714	1714	13.328	13.304	13.347
DTProbeTrack03	19	ProbeTrackDT	1.1	SCS215a	20110128.124352	20110128.124439	single-task	8	0.013328	60	0	60-180	60	61	NoGap	1	7	2	9	1	target	1	507	747	2461	13.328	13.308	13.348
DTProbeTrack03	19	ProbeTrackDT	1.1	SCS215a	20110128.124352	20110128.124443	single-task	8	0.013328	60	0	60-180	60	113	NoGap	1	8	2	3	0	distractor	1	547	727	3188	13.328	12.875	13.773
DTProbeTrack03	19	ProbeTrackDT	1.1	SCS215a	20110128.124352	20110128.124449	single-task	8	0.013328	60	0	60-180	60	144	NoGap	1	9	2	9	0	distractor	1	480	760	3948	13.328	13.309	13.347
DTProbeTrack03	19	ProbeTrackDT	1.1	SCS215a	20110128.124352	20110128.124455	single-task	8	0.013328	60	0	60-180	60	152	NoGap	1	10	2	3	1	target	1	720	640	4588	13.328	12.941	13.703
DTProbeTrack03	19	ProbeTrackDT	1.1	SCS215a	20110128.124352	20110128.124501	single-task	8	0.013328	60	0	60-180	60	61	NoGap	1	11	2	3	0	distractor	1	654	673	5261	13.328	13.086	13.560
DTProbeTrack03	19	ProbeTrackDT	1.1	SCS215a	20110128.124352	20110128.124506	single-task	8	0.013328	60	0	60-180	60	137	NoGap	1	12	2	45	0	distractor	1	547	727	5988	13.328	13.102	13.563
DTProbeTrack03	19	ProbeTrackDT	1.1	SCS215a	20110128.124352	20110128.124512	single-task	8	0.013328	60	0	60-180	60	107	NoGap	1	13	2	6	1	target	1	640	680	6668	13.328	13.304	13.351
DTProbeTrack03	19	ProbeTrackDT	1.1	SCS215a	20110128.124352	20110128.124517	single-task	8	0.013328	60	0	60-180	60	69	NoGap	1	14	2	1	1	target	1	667	667	7335	13.328	13.297	13.364
DTProbeTrack03	19	ProbeTrackDT	1.1	SCS215a	20110128.124352	20110128.124522	single-task	8	0.013328	60	0	60-180	60	142	NoGap	1	15	2	1	1	target	1	587	707	8042	13.328	13.109	13.557
DTProbeTrack03	19	ProbeTrackDT	1.1	SCS215a	20110128.124352	20110128.124528	single-task	8	0.013328	60	0	60-180	60	156	NoGap	1	16	2	6	1	target	1	374	813	8855	13.328	13.098	13.552
DTProbeTrack03	19	ProbeTrackDT	1.1	SCS215a	20110128.124352	20110128.124534	single-task	8	0.013328	60	0	60-180	60	132	NoGap	1	17	2	1	0	distractor	1	654	673	9528	13.328	12.830	13.812
DTProbeTrack03	19	ProbeTrackDT	1.1	SCS215a	20110128.124352	20110128.124540	single-task	8	0.013328	60	0	60-180	60	155	NoGap	1	18	2	9	0	distractor	1	627	687	10215	13.328	12.880	13.776
DTProbeTrack03	19	ProbeTrackDT	1.1	SCS215a	20110128.124352	20110128.124546	single-task	8	0.013328	60	0	60-180	60	145	NoGap	1	19	2	45	0	distractor	1	454	773	10988	13.328	12.923	13.740
DTProbeTrack03	19	ProbeTrackDT	1.1	SCS215a	20110128.124352	20110128.124552	single-task	8	0.013328	60	0	60-180	60	80	NoGap	1	20	2	9	1	target	1	440	780	11768	13.328	13.298	13.349
DTProbeTrack03	19	ProbeTrackDT	1.1	SCS215a	20110128.124352	20110128.124557	single-task	8	0.013328	60	0	60-180	60	94	NoGap	1	21	2	3	1	target	1	387	807	12575	13.328	12.904	13.766
DTProbeTrack03	19	ProbeTrackDT	1.1	SCS215a	20110128.124352	20110128.124602	single-task	8	0.013328	60	0	60-180	60	104	NoGap	1	22	2	3	1	target	1	427	787	13362	13.328	12.910	13.752
DTProbeTrack03	19	ProbeTrackDT	1.1	SCS215a	20110128.124352	20110128.124607	single-task	8	0.013328	60	0	60-180	60	129	NoGap	1	23	2	3	0	distractor	1	560	720	14082	13.328	13.302	13.360
DTProbeTrack03	19	ProbeTrackDT	1.1	SCS215a	20110128.124352	20110128.124613	single-task	8	0.013328	60	0	60-180	60	134	NoGap	1	24	2	1	0	distractor	1	440	780	14862	13.328	13.308	13.352
DTProbeTrack03	19	ProbeTrackDT	1.1	SCS215a	20110128.124352	20110128.124618	single-task	8	0.013328	60	0	60-180	60	149	NoGap	1	25	2	1	0	distractor	1	760	620	15482	13.328	13.191	13.470
DTProbeTrack03	19	ProbeTrackDT	1.1	SCS215a	20110128.124352	20110128.124624	single-task	8	0.013328	60	0	60-180	60	113	NoGap	1	26	2	45	1	target	1	547	727	16209	13.328	12.918	13.735
DTProbeTrack03	19	ProbeTrackDT	1.1	SCS215a	20110128.124352	20110128.124630	single-task	8	0.013328	60	0	60-180	60	108	NoGap	1	27	2	45	0	distractor	1	507	747	16956	13.328	13.092	13.562
DTProbeTrack03	19	ProbeTrackDT	1.1	SCS215a	20110128.124352	20110128.124636	single-task	8	0.013328	60	0	60-180	60	153	NoGap	1	28	2	6	1	target	1	467	767	17723	13.328	12.941	13.723
DTProbeTrack03	19	ProbeTrackDT	1.1	SCS215a	20110128.124352	20110128.124642	single-task	8	0.013328	60	0	60-180	60	100	NoGap	1	29	2	3	1	target	1	520	740	18463	13.328	12.846	13.822
DTProbeTrack03	19	ProbeTrackDT	1.1	SCS215a	20110128.124352	20110128.124647	single-task	8	0.013328	60	0	60-180	60	174	NoGap	1	30	2	6	0	distractor	1	480	760	19223	13.328	13.019	13.637
DTProbeTrack03	19	ProbeTrackDT	1.1	SCS215a	20110128.124352	20110128.124654	single-task	8	0.013328	60	0	60-180	60	126	NoGap	1	31	2	9	0	distractor	1	560	720	19943	13.328	12.971	13.674
DTProbeTrack03	19	ProbeTrackDT	1.1	SCS215a	20110128.124352	20110128.124659	single-task	8	0.013328	60	0	60-180	60	83	NoGap	1	32	2	45	1	target	1	494	753	20696	13.328	12.879	13.767
DTProbeTrack03	19	ProbeTrackDT	1.1	SCS215a	20110128.124352	20110128.124705	single-task	8	0.013328	60	0	60-180	60	86	NoGap	1	33	2	1	0	distractor	1	520	740	21436	13.328	13.095	13.561
DTProbeTrack03	19	ProbeTrackDT	1.1	SCS215a	20110128.124352	20110128.124710	single-task	8	0.013328	60	0	60-180	60	74	NoGap	1	34	2	6	0	distractor	1	480	760	22196	13.328	12.938	13.716
DTProbeTrack03	19	ProbeTrackDT	1.1	SCS215a	20110128.124352	20110128.124714	single-task	8	0.013328	60	0	60-180	60	150	NoGap	1	35	2	6	0	distractor	1	494	753	22949	13.328	13.169	13.487
DTProbeTrack03	19	ProbeTrackDT	1.1	SCS215a	20110128.124352	20110128.124720	single-task	8	0.013328	60	0	60-180	60	118	NoGap	1	36	2	1	1	target	1	560	720	23669	13.328	12.917	13.753
DTProbeTrack03	19	ProbeTrackDT	1.1	SCS215a	20110128.124352	20110128.124726	single-task	8	0.013328	60	0	60-180	60	68	NoGap	1	37	2	45	1	target	1	334	833	24502	13.328	12.862	13.798
DTProbeTrack03	19	ProbeTrackDT	1.1	SCS215a	20110128.124352	20110128.124731	single-task	8	0.013328	60	0	60-180	60	77	NoGap	1	38	2	1	1	target	1	534	733	25235	13.328	13.188	13.462
DTProbeTrack03	19	ProbeTrackDT	1.1	SCS215a	20110128.124352	20110128.124736	single-task	8	0.013328	60	0	60-180	60	85	NoGap	1	39	2	9	0	distractor	1	454	773	26008	13.327	13.150	13.503
DTProbeTrack03	19	ProbeTrackDT	1.1	SCS215a	20110128.124352	20110128.124741	single-task	8	0.013328	60	0	60-180	60	116	NoGap	1	40	2	9	1	target	1	427	787	26795	13.328	12.922	13.728
DTProbeTrack03	19	ProbeTrackDT	1.1	SCS215a	20110128.124839	20110128.124844	single-task	8	0.013328	60	10	60-180	60	124	GapPrac	1	1	2	45	0	target	0	400	-1000	25795	13.328	13.106	13.548
DTProbeTrack03	19	ProbeTrackDT	1.1	SCS215a	20110128.124839	20110128.124850	single-task	8	0.013328	60	10	60-180	60	136	GapPrac	1	2	2	3	1	target	1	947	527	26322	13.328	13.111	13.551
DTProbeTrack03	19	ProbeTrackDT	1.1	SCS215a	20110128.124839	20110128.124856	single-task	8	0.013328	60	10	60-180	60	120	GapPrac	1	3	2	45	1	target	1	534	733	27055	13.328	13.086	13.563
DTProbeTrack03	19	ProbeTrackDT	1.1	SCS215a	20110128.124839	20110128.124902	single-task	8	0.013328	60	10	60-180	60	109	GapPrac	1	4	2	9	1	target	1	507	747	27802	13.328	12.961	13.695
DTProbeTrack03	19	ProbeTrackDT	1.1	SCS215a	20110128.124839	20110128.124908	single-task	8	0.013328	60	10	60-180	60	170	GapPrac	1	5	2	9	0	distractor	1	987	507	28309	13.329	13.199	13.783
DTProbeTrack03	19	ProbeTrackDT	1.1	SCS215a	20110128.124839	20110128.124915	single-task	8	0.013328	60	10	60-180	60	93	GapPrac	1	6	2	1	0	distractor	1	973	514	28823	13.328	12.952	13.711
DTProbeTrack03	19	ProbeTrackDT	1.1	SCS215a	20110128.124839	20110128.124920	single-task	8	0.013328	60	10	60-180	60	90	GapPrac	1	7	2	6	0	distractor	1	574	713	29536	13.328	12.946	13.741
DTProbeTrack03	19	ProbeTrackDT	1.1	SCS215a	20110128.124839	20110128.124925	single-task	8	0.013328	60	10	60-180	60	120	GapPrac	1	8	2	6	0	distractor	1	507	747	30283	13.328	12.886	13.777
DTProbeTrack03	19	ProbeTrackDT	1.1	SCS215a	20110128.124839	20110128.124931	single-task	8	0.013328	60	10	60-180	60	111	GapPrac	1	9	2	9	1	target	1	467	767	31050	13.328	13.090	13.558
DTProbeTrack03	19	ProbeTrackDT	1.1	SCS215a	20110128.124839	20110128.124937	single-task	8	0.013328	60	10	60-180	60	122	GapPrac	1	10	2	3	1	distractor	0	667	-1000	30050	13.328	12.999	13.657
DTProbeTrack03	19	ProbeTrackDT	1.1	SCS215a	20110128.124839	20110128.124942	single-task	8	0.013328	60	10	60-180	60	68	GapPrac	1	11	2	9	0	distractor	1	693	654	30704	13.328	12.848	13.801
DTProbeTrack03	19	ProbeTrackDT	1.1	SCS215a	20110128.124839	20110128.124947	single-task	8	0.013328	60	10	60-180	60	83	GapPrac	1	12	2	3	0	distractor	1	760	620	31324	13.328	13.077	13.591
DTProbeTrack03	19	ProbeTrackDT	1.1	SCS215a	20110128.124839	20110128.124953	single-task	8	0.013328	60	10	60-180	60	100	GapPrac	1	13	2	6	1	target	1	613	694	32018	13.328	13.085	13.562
DTProbeTrack03	19	ProbeTrackDT	1.1	SCS215a	20110128.124839	20110128.124958	single-task	8	0.013328	60	10	60-180	60	67	GapPrac	1	14	2	6	1	target	1	520	740	32758	13.328	13.303	13.360
DTProbeTrack03	19	ProbeTrackDT	1.1	SCS215a	20110128.124839	20110128.125003	single-task	8	0.013328	60	10	60-180	60	173	GapPrac	1	15	2	1	1	target	1	467	767	33525	13.328	12.845	13.803
DTProbeTrack03	19	ProbeTrackDT	1.1	SCS215a	20110128.124839	20110128.125009	single-task	8	0.013328	60	10	60-180	60	132	GapPrac	1	16	2	3	0	target	0	600	-1000	32525	13.328	12.912	13.751
DTProbeTrack03	19	ProbeTrackDT	1.1	SCS215a	20110128.124839	20110128.125015	single-task	8	0.013328	60	10	60-180	60	176	GapPrac	1	17	2	45	1	distractor	0	507	-1000	31525	13.328	12.928	13.711
DTProbeTrack03	19	ProbeTrackDT	1.1	SCS215a	20110128.124839	20110128.125022	single-task	8	0.013328	60	10	60-180	60	82	GapPrac	1	18	2	1	0	target	0	773	-1000	30525	13.328	12.966	13.702
DTProbeTrack03	19	ProbeTrackDT	1.1	SCS215a	20110128.124839	20110128.125027	single-task	8	0.013328	60	10	60-180	60	106	GapPrac	1	19	2	45	0	target	0	733	-1000	29525	13.328	13.099	13.547
DTProbeTrack03	19	ProbeTrackDT	1.1	SCS215a	20110128.124839	20110128.125034	single-task	8	0.013328	60	10	60-180	60	139	GapPrac	1	20	2	1	1	target	1	720	640	30165	13.328	12.930	13.727
DTProbeTrack03	19	ProbeTrackDT	1.1	SCS215a	20110128.125116	20110128.125124	single-task	8	0.013327	60	10	60-180	60	102	GapExp	1	1	2	45	1	distractor	0	720	-1000	29165	13.328	13.104	13.550
DTProbeTrack03	19	ProbeTrackDT	1.1	SCS215a	20110128.125116	20110128.125130	single-task	8	0.013327	60	10	60-180	60	158	GapExp	1	2	2	3	1	target	1	534	733	29898	13.328	13.103	13.544
DTProbeTrack03	19	ProbeTrackDT	1.1	SCS215a	20110128.125116	20110128.125137	single-task	8	0.013327	60	10	60-180	60	113	GapExp	1	3	2	9	1	target	1	560	720	30618	13.328	12.851	13.809
DTProbeTrack03	19	ProbeTrackDT	1.1	SCS215a	20110128.125116	20110128.125142	single-task	8	0.013327	60	10	60-180	60	134	GapExp	1	4	2	6	1	target	1	467	767	31385	13.328	13.006	13.666
DTProbeTrack03	19	ProbeTrackDT	1.1	SCS215a	20110128.125116	20110128.125148	single-task	8	0.013327	60	10	60-180	60	167	GapExp	1	5	2	1	0	distractor	1	734	633	32018	13.328	13.308	13.345
DTProbeTrack03	19	ProbeTrackDT	1.1	SCS215a	20110128.125116	20110128.125154	single-task	8	0.013327	60	10	60-180	60	78	GapExp	0	6	2	6	1	target	1	467	767	32785	13.328	13.307	13.347
DTProbeTrack03	19	ProbeTrackDT	1.1	SCS215a	20110128.125116	20110128.125159	single-task	8	0.013327	60	10	60-180	60	67	GapExp	0	7	2	6	0	distractor	1	467	767	33552	13.328	12.925	13.730
DTProbeTrack03	19	ProbeTrackDT	1.1	SCS215a	20110128.125116	20110128.125204	single-task	8	0.013327	60	10	60-180	60	92	GapExp	0	8	2	1	1	target	1	440	780	34332	13.390	12.891	26.937
DTProbeTrack03	19	ProbeTrackDT	1.1	SCS215a	20110128.125116	20110128.125209	single-task	8	0.013327	60	10	60-180	60	175	GapExp	0	9	2	1	0	distractor	1	534	733	35065	13.328	12.902	13.763
DTProbeTrack03	19	ProbeTrackDT	1.1	SCS215a	20110128.125116	20110128.125216	single-task	8	0.013327	60	10	60-180	60	143	GapExp	0	10	2	1	0	distractor	1	587	707	35772	13.328	12.874	13.767
DTProbeTrack03	19	ProbeTrackDT	1.1	SCS215a	20110128.125116	20110128.125222	single-task	8	0.013327	60	10	60-180	60	147	GapExp	0	11	2	1	0	target	0	587	-1000	34772	13.328	13.013	13.636
DTProbeTrack03	19	ProbeTrackDT	1.1	SCS215a	20110128.125116	20110128.125228	single-task	8	0.013327	60	10	60-180	60	166	GapExp	0	12	2	45	0	distractor	1	454	773	35545	13.328	13.098	13.541
DTProbeTrack03	19	ProbeTrackDT	1.1	SCS215a	20110128.125116	20110128.125234	single-task	8	0.013327	60	10	60-180	60	165	GapExp	0	13	2	9	1	target	1	507	747	36292	13.328	12.892	13.756
DTProbeTrack03	19	ProbeTrackDT	1.1	SCS215a	20110128.125116	20110128.125241	single-task	8	0.013327	60	10	60-180	60	180	GapExp	0	14	2	1	0	distractor	1	600	700	36992	13.328	12.869	13.788
DTProbeTrack03	19	ProbeTrackDT	1.1	SCS215a	20110128.125116	20110128.125247	single-task	8	0.013327	60	10	60-180	60	147	GapExp	0	15	2	9	1	target	1	521	740	37732	13.328	12.880	13.790
DTProbeTrack03	19	ProbeTrackDT	1.1	SCS215a	20110128.125116	20110128.125253	single-task	8	0.013327	60	10	60-180	60	67	GapExp	0	16	2	9	1	target	1	467	767	38499	13.328	13.308	13.349
DTProbeTrack03	19	ProbeTrackDT	1.1	SCS215a	20110128.125116	20110128.125258	single-task	8	0.013327	60	10	60-180	60	113	GapExp	0	17	2	1	1	target	1	440	780	39279	13.328	13.002	13.650
DTProbeTrack03	19	ProbeTrackDT	1.1	SCS215a	20110128.125116	20110128.125303	single-task	8	0.013327	60	10	60-180	60	149	GapExp	0	18	2	6	1	target	1	360	820	40099	13.328	13.092	13.569
DTProbeTrack03	19	ProbeTrackDT	1.1	SCS215a	20110128.125116	20110128.125309	single-task	8	0.013327	60	10	60-180	60	64	GapExp	0	19	2	1	1	distractor	0	707	-1000	39099	13.328	12.927	13.726
DTProbeTrack03	19	ProbeTrackDT	1.1	SCS215a	20110128.125116	20110128.125314	single-task	8	0.013327	60	10	60-180	60	135	GapExp	0	20	2	45	0	distractor	1	400	800	39899	13.328	12.907	13.735
DTProbeTrack03	19	ProbeTrackDT	1.1	SCS215a	20110128.125116	20110128.125321	single-task	8	0.013327	60	10	60-180	60	76	GapExp	0	21	2	6	1	target	1	400	800	40699	13.328	13.305	13.348
DTProbeTrack03	19	ProbeTrackDT	1.1	SCS215a	20110128.125116	20110128.125326	single-task	8	0.013327	60	10	60-180	60	64	GapExp	0	22	2	3	0	target	0	467	-1000	39699	13.328	12.924	13.725
DTProbeTrack03	19	ProbeTrackDT	1.1	SCS215a	20110128.125116	20110128.125330	single-task	8	0.013327	60	10	60-180	60	93	GapExp	0	23	2	9	0	target	0	534	-1000	38699	13.328	13.252	13.386
DTProbeTrack03	19	ProbeTrackDT	1.1	SCS215a	20110128.125116	20110128.125336	single-task	8	0.013327	60	10	60-180	60	78	GapExp	0	24	2	45	0	distractor	1	547	727	39426	13.328	13.307	13.347
DTProbeTrack03	19	ProbeTrackDT	1.1	SCS215a	20110128.125116	20110128.125341	single-task	8	0.013327	60	10	60-180	60	155	GapExp	0	25	2	45	0	target	0	494	-1000	38426	13.328	12.850	13.801
DTProbeTrack03	19	ProbeTrackDT	1.1	SCS215a	20110128.125116	20110128.125348	single-task	8	0.013327	60	10	60-180	60	132	GapExp	0	26	2	6	1	distractor	0	360	-1000	37426	13.328	13.308	13.355
DTProbeTrack03	19	ProbeTrackDT	1.1	SCS215a	20110128.125116	20110128.125354	single-task	8	0.013327	60	10	60-180	60	138	GapExp	0	27	2	45	1	target	1	294	853	38279	13.328	13.309	13.347
DTProbeTrack03	19	ProbeTrackDT	1.1	SCS215a	20110128.125116	20110128.125400	single-task	8	0.013327	60	10	60-180	60	90	GapExp	0	28	2	6	1	target	1	520	740	39019	13.328	13.094	13.555
DTProbeTrack03	19	ProbeTrackDT	1.1	SCS215a	20110128.125116	20110128.125405	single-task	8	0.013327	60	10	60-180	60	120	GapExp	0	29	2	6	0	target	0	534	-1000	38019	13.328	13.125	13.526
DTProbeTrack03	19	ProbeTrackDT	1.1	SCS215a	20110128.125116	20110128.125411	single-task	8	0.013327	60	10	60-180	60	138	GapExp	0	30	2	1	1	target	1	640	680	38699	13.328	13.067	13.635
DTProbeTrack03	19	ProbeTrackDT	1.1	SCS215a	20110128.125116	20110128.125417	single-task	8	0.013327	60	10	60-180	60	146	GapExp	0	31	2	9	0	distractor	1	480	760	39459	13.328	12.984	13.681
DTProbeTrack03	19	ProbeTrackDT	1.1	SCS215a	20110128.125116	20110128.125423	single-task	8	0.013327	60	10	60-180	60	104	GapExp	0	32	2	3	1	target	1	467	767	40226	13.328	13.311	13.356
DTProbeTrack03	19	ProbeTrackDT	1.1	SCS215a	20110128.125116	20110128.125428	single-task	8	0.013327	60	10	60-180	60	135	GapExp	0	33	2	9	1	target	1	507	747	40973	13.328	13.098	13.546
DTProbeTrack03	19	ProbeTrackDT	1.1	SCS215a	20110128.125116	20110128.125434	single-task	8	0.013327	60	10	60-180	60	85	GapExp	0	34	2	1	0	target	0	627	-1000	39973	13.328	13.075	13.589
DTProbeTrack03	19	ProbeTrackDT	1.1	SCS215a	20110128.125116	20110128.125439	single-task	8	0.013327	60	10	60-180	60	161	GapExp	0	35	2	3	1	target	1	400	800	40773	13.328	13.044	13.610
DTProbeTrack03	19	ProbeTrackDT	1.1	SCS215a	20110128.125116	20110128.125445	single-task	8	0.013327	60	10	60-180	60	167	GapExp	0	36	2	6	0	distractor	1	614	693	41466	13.328	12.964	13.691
DTProbeTrack03	19	ProbeTrackDT	1.1	SCS215a	20110128.125116	20110128.125451	single-task	8	0.013327	60	10	60-180	60	67	GapExp	0	37	2	1	0	distractor	1	547	727	42193	13.328	12.850	13.665
DTProbeTrack03	19	ProbeTrackDT	1.1	SCS215a	20110128.125116	20110128.125456	single-task	8	0.013327	60	10	60-180	60	80	GapExp	0	38	2	45	1	distractor	0	440	-1000	41193	13.328	13.022	13.630
DTProbeTrack03	19	ProbeTrackDT	1.1	SCS215a	20110128.125116	20110128.125502	single-task	8	0.013327	60	10	60-180	60	133	GapExp	0	39	2	6	1	target	1	454	773	41966	13.328	12.910	13.753
DTProbeTrack03	19	ProbeTrackDT	1.1	SCS215a	20110128.125116	20110128.125507	single-task	8	0.013327	60	10	60-180	60	139	GapExp	0	40	2	3	1	target	1	653	674	42640	13.328	13.075	13.576
DTProbeTrack03	19	ProbeTrackDT	1.1	SCS215a	20110128.125116	20110128.125513	single-task	8	0.013327	60	10	60-180	60	62	GapExp	0	41	2	45	1	target	1	655	673	43313	13.327	12.984	13.702
DTProbeTrack03	19	ProbeTrackDT	1.1	SCS215a	20110128.125116	20110128.125519	single-task	8	0.013327	60	10	60-180	60	116	GapExp	0	42	2	45	1	target	1	494	753	44066	13.328	12.929	13.720
DTProbeTrack03	19	ProbeTrackDT	1.1	SCS215a	20110128.125116	20110128.125525	single-task	8	0.013327	60	10	60-180	60	149	GapExp	0	43	2	45	1	target	1	440	780	44846	13.328	12.937	13.722
DTProbeTrack03	19	ProbeTrackDT	1.1	SCS215a	20110128.125116	20110128.125532	single-task	8	0.013327	60	10	60-180	60	138	GapExp	0	44	2	6	1	target	1	560	720	45566	13.328	13.309	13.347
DTProbeTrack03	19	ProbeTrackDT	1.1	SCS215a	20110128.125116	20110128.125538	single-task	8	0.013327	60	10	60-180	60	92	GapExp	0	45	2	3	0	distractor	1	587	707	46273	13.328	13.059	13.565
DTProbeTrack03	19	ProbeTrackDT	1.1	SCS215a	20110128.125116	20110128.125543	single-task	8	0.013327	60	10	60-180	60	176	GapExp	0	46	2	6	0	distractor	1	813	594	46867	13.328	12.995	13.667
DTProbeTrack03	19	ProbeTrackDT	1.1	SCS215a	20110128.125116	20110128.125550	single-task	8	0.013327	60	10	60-180	60	111	GapExp	0	47	2	3	0	distractor	1	480	760	47627	13.384	13.024	26.816
DTProbeTrack03	19	ProbeTrackDT	1.1	SCS215a	20110128.125116	20110128.125555	single-task	8	0.013327	60	10	60-180	60	130	GapExp	0	48	2	1	0	distractor	1	494	753	48380	13.432	13.245	26.831
DTProbeTrack03	19	ProbeTrackDT	1.1	SCS215a	20110128.125116	20110128.125601	single-task	8	0.013327	60	10	60-180	60	115	GapExp	0	49	2	45	1	distractor	0	267	-1000	47380	13.328	12.869	13.787
DTProbeTrack03	19	ProbeTrackDT	1.1	SCS215a	20110128.125116	20110128.125607	single-task	8	0.013327	60	10	60-180	60	71	GapExp	0	50	2	6	0	distractor	1	520	740	48120	13.328	13.302	13.349
DTProbeTrack03	19	ProbeTrackDT	1.1	SCS215a	20110128.125116	20110128.125617	single-task	8	0.013327	60	10	60-180	60	95	GapExp	0	51	2	3	0	distractor	1	803	599	48719	13.328	12.895	13.769
DTProbeTrack03	19	ProbeTrackDT	1.1	SCS215a	20110128.125116	20110128.125623	single-task	8	0.013327	60	10	60-180	60	123	GapExp	0	52	2	3	1	target	1	494	753	49472	13.328	13.020	13.799
DTProbeTrack03	19	ProbeTrackDT	1.1	SCS215a	20110128.125116	20110128.125629	single-task	8	0.013327	60	10	60-180	60	154	GapExp	0	53	2	3	1	target	1	427	787	50259	13.328	12.869	13.776
DTProbeTrack03	19	ProbeTrackDT	1.1	SCS215a	20110128.125116	20110128.125634	single-task	8	0.013327	60	10	60-180	60	163	GapExp	0	54	2	1	0	distractor	1	440	780	51039	13.328	12.945	13.697
DTProbeTrack03	19	ProbeTrackDT	1.1	SCS215a	20110128.125116	20110128.125641	single-task	8	0.013327	60	10	60-180	60	149	GapExp	0	55	2	1	0	distractor	1	534	733	51772	13.328	13.097	13.572
DTProbeTrack03	19	ProbeTrackDT	1.1	SCS215a	20110128.125116	20110128.125647	single-task	8	0.013327	60	10	60-180	60	156	GapExp	0	56	2	45	0	distractor	1	533	734	52506	13.328	13.029	13.616
DTProbeTrack03	19	ProbeTrackDT	1.1	SCS215a	20110128.125116	20110128.125653	single-task	8	0.013327	60	10	60-180	60	66	GapExp	0	57	2	45	1	target	1	547	727	53233	13.328	12.951	13.689
DTProbeTrack03	19	ProbeTrackDT	1.1	SCS215a	20110128.125116	20110128.125659	single-task	8	0.013327	60	10	60-180	60	157	GapExp	0	58	2	9	0	distractor	1	494	753	53986	13.420	13.064	26.742
DTProbeTrack03	19	ProbeTrackDT	1.1	SCS215a	20110128.125116	20110128.125705	single-task	8	0.013327	60	10	60-180	60	164	GapExp	0	59	2	3	0	distractor	1	467	767	54753	13.328	13.308	13.361
DTProbeTrack03	19	ProbeTrackDT	1.1	SCS215a	20110128.125116	20110128.125711	single-task	8	0.013327	60	10	60-180	60	137	GapExp	0	60	2	9	0	distractor	1	694	653	55406	13.328	13.308	13.355
DTProbeTrack03	19	ProbeTrackDT	1.1	SCS215a	20110128.125116	20110128.125717	single-task	8	0.013327	60	10	60-180	60	69	GapExp	0	61	2	9	1	target	1	494	753	56159	13.328	13.308	13.348
DTProbeTrack03	19	ProbeTrackDT	1.1	SCS215a	20110128.125116	20110128.125722	single-task	8	0.013327	60	10	60-180	60	129	GapExp	0	62	2	1	1	target	1	520	740	56899	13.328	12.981	13.701
DTProbeTrack03	19	ProbeTrackDT	1.1	SCS215a	20110128.125116	20110128.125728	single-task	8	0.013327	60	10	60-180	60	155	GapExp	0	63	2	1	1	target	1	520	740	57639	13.328	13.006	13.655
DTProbeTrack03	19	ProbeTrackDT	1.1	SCS215a	20110128.125116	20110128.125734	single-task	8	0.013327	60	10	60-180	60	114	GapExp	0	64	2	45	0	target	0	547	-1000	56639	13.328	13.067	13.582
DTProbeTrack03	19	ProbeTrackDT	1.1	SCS215a	20110128.125116	20110128.125740	single-task	8	0.013327	60	10	60-180	60	122	GapExp	0	65	2	45	0	distractor	1	387	807	57446	13.328	13.307	13.345
DTProbeTrack03	19	ProbeTrackDT	1.1	SCS215a	20110128.125116	20110128.125746	single-task	8	0.013327	60	10	60-180	60	161	GapExp	0	66	2	1	1	target	1	427	787	58233	13.328	12.870	13.783
DTProbeTrack03	19	ProbeTrackDT	1.1	SCS215a	20110128.125116	20110128.125752	single-task	8	0.013327	60	10	60-180	60	127	GapExp	0	67	2	6	1	target	1	520	740	58973	13.328	13.307	13.345
DTProbeTrack03	19	ProbeTrackDT	1.1	SCS215a	20110128.125116	20110128.125758	single-task	8	0.013327	60	10	60-180	60	84	GapExp	0	68	2	6	0	target	0	480	-1000	57973	13.327	13.306	13.347
DTProbeTrack03	19	ProbeTrackDT	1.1	SCS215a	20110128.125116	20110128.125803	single-task	8	0.013327	60	10	60-180	60	161	GapExp	0	69	2	6	0	target	0	680	-1000	56973	13.328	13.006	13.649
DTProbeTrack03	19	ProbeTrackDT	1.1	SCS215a	20110128.125116	20110128.125809	single-task	8	0.013327	60	10	60-180	60	176	GapExp	0	70	2	9	0	distractor	1	534	733	57706	13.328	12.872	13.784
DTProbeTrack03	19	ProbeTrackDT	1.1	SCS215a	20110128.125116	20110128.125816	single-task	8	0.013327	60	10	60-180	60	80	GapExp	0	71	2	3	0	distractor	1	440	780	58486	13.328	13.307	13.345
DTProbeTrack03	19	ProbeTrackDT	1.1	SCS215a	20110128.125116	20110128.125821	single-task	8	0.013327	60	10	60-180	60	170	GapExp	0	72	2	9	1	target	1	467	767	59253	13.328	12.951	13.700
DTProbeTrack03	19	ProbeTrackDT	1.1	SCS215a	20110128.125116	20110128.125827	single-task	8	0.013327	60	10	60-180	60	120	GapExp	0	73	2	9	0	distractor	1	720	640	59893	13.328	12.992	13.673
DTProbeTrack03	19	ProbeTrackDT	1.1	SCS215a	20110128.125116	20110128.125833	single-task	8	0.013327	60	10	60-180	60	163	GapExp	0	74	2	45	0	distractor	1	360	820	60713	13.328	13.310	13.344
DTProbeTrack03	19	ProbeTrackDT	1.1	SCS215a	20110128.125116	20110128.125839	single-task	8	0.013327	60	10	60-180	60	117	GapExp	0	75	2	6	1	target	1	520	740	61453	13.328	13.012	13.656
DTProbeTrack03	19	ProbeTrackDT	1.1	SCS215a	20110128.125116	20110128.125845	single-task	8	0.013327	60	10	60-180	60	156	GapExp	0	76	2	1	1	target	1	454	773	62226	13.328	13.090	13.561
DTProbeTrack03	19	ProbeTrackDT	1.1	SCS215a	20110128.125116	20110128.125851	single-task	8	0.013327	60	10	60-180	60	120	GapExp	0	77	2	9	0	distractor	1	454	773	62999	13.328	12.949	13.696
DTProbeTrack03	19	ProbeTrackDT	1.1	SCS215a	20110128.125116	20110128.125856	single-task	8	0.013327	60	10	60-180	60	95	GapExp	0	78	2	9	0	distractor	1	480	760	63759	13.328	12.994	13.671
DTProbeTrack03	19	ProbeTrackDT	1.1	SCS215a	20110128.125116	20110128.125902	single-task	8	0.013327	60	10	60-180	60	115	GapExp	0	79	2	1	1	target	1	480	760	64519	13.328	12.982	13.669
DTProbeTrack03	19	ProbeTrackDT	1.1	SCS215a	20110128.125116	20110128.125907	single-task	8	0.013327	60	10	60-180	60	140	GapExp	0	80	2	6	1	target	1	480	760	65279	13.328	13.071	13.573
DTProbeTrack03	19	ProbeTrackDT	1.1	SCS215a	20110128.125116	20110128.125913	single-task	8	0.013327	60	10	60-180	60	125	GapExp	0	81	2	1	0	distractor	1	480	760	66039	13.328	12.858	13.791
DTProbeTrack03	19	ProbeTrackDT	1.1	SCS215a	20110128.125116	20110128.125919	single-task	8	0.013327	60	10	60-180	60	106	GapExp	0	82	2	6	1	target	1	414	793	66832	13.328	13.220	13.438
DTProbeTrack03	19	ProbeTrackDT	1.1	SCS215a	20110128.125116	20110128.125924	single-task	8	0.013327	60	10	60-180	60	146	GapExp	0	83	2	1	1	target	1	547	727	67559	13.328	13.075	13.585
DTProbeTrack03	19	ProbeTrackDT	1.1	SCS215a	20110128.125116	20110128.125930	single-task	8	0.013327	60	10	60-180	60	105	GapExp	0	84	2	1	0	distractor	1	720	640	68199	13.328	12.910	13.740
DTProbeTrack03	19	ProbeTrackDT	1.1	SCS215a	20110128.125116	20110128.125936	single-task	8	0.013327	60	10	60-180	60	150	GapExp	0	85	2	3	0	distractor	1	467	767	68966	13.328	12.935	13.727
DTProbeTrack03	19	ProbeTrackDT	1.1	SCS215a	20110128.125116	20110128.125942	single-task	8	0.013327	60	10	60-180	60	106	GapExp	0	86	2	45	0	distractor	1	360	820	69786	13.328	13.035	13.622
DTProbeTrack03	19	ProbeTrackDT	1.1	SCS215a	20110128.125116	20110128.125947	single-task	8	0.013327	60	10	60-180	60	116	GapExp	0	87	2	1	0	distractor	1	587	707	70493	13.328	12.944	13.721
DTProbeTrack03	19	ProbeTrackDT	1.1	SCS215a	20110128.125116	20110128.125953	single-task	8	0.013327	60	10	60-180	60	83	GapExp	0	88	2	1	1	target	1	387	807	71300	13.328	12.878	13.783
DTProbeTrack03	19	ProbeTrackDT	1.1	SCS215a	20110128.125116	20110128.125958	single-task	8	0.013327	60	10	60-180	60	102	GapExp	0	89	2	9	0	distractor	1	494	753	72053	13.328	12.938	13.705
DTProbeTrack03	19	ProbeTrackDT	1.1	SCS215a	20110128.125116	20110128.130003	single-task	8	0.013327	60	10	60-180	60	71	GapExp	0	90	2	1	0	distractor	1	587	707	72760	13.328	13.058	13.604
DTProbeTrack03	19	ProbeTrackDT	1.1	SCS215a	20110128.125116	20110128.130008	single-task	8	0.013327	60	10	60-180	60	172	GapExp	0	91	2	45	1	target	1	440	780	73540	13.328	13.044	13.612
DTProbeTrack03	19	ProbeTrackDT	1.1	SCS215a	20110128.125116	20110128.130015	single-task	8	0.013327	60	10	60-180	60	125	GapExp	0	92	2	45	0	distractor	1	534	733	74273	13.328	12.884	13.759
DTProbeTrack03	19	ProbeTrackDT	1.1	SCS215a	20110128.125116	20110128.130021	single-task	8	0.013327	60	10	60-180	60	70	GapExp	0	93	2	3	0	distractor	1	494	753	75026	13.328	13.259	13.402
DTProbeTrack03	19	ProbeTrackDT	1.1	SCS215a	20110128.125116	20110128.130026	single-task	8	0.013327	60	10	60-180	60	140	GapExp	0	94	2	1	1	target	1	440	780	75806	13.328	12.850	13.798
DTProbeTrack03	19	ProbeTrackDT	1.1	SCS215a	20110128.125116	20110128.130032	single-task	8	0.013327	60	10	60-180	60	125	GapExp	0	95	2	6	0	distractor	1	427	787	76593	13.328	12.987	13.671
DTProbeTrack03	19	ProbeTrackDT	1.1	SCS215a	20110128.125116	20110128.130037	single-task	8	0.013327	60	10	60-180	60	172	GapExp	0	96	2	45	0	distractor	1	440	780	77373	13.328	13.004	13.658
DTProbeTrack03	19	ProbeTrackDT	1.1	SCS215a	20110128.125116	20110128.130044	single-task	8	0.013327	60	10	60-180	60	112	GapExp	0	97	2	45	0	distractor	1	494	753	78126	13.328	12.899	13.767
DTProbeTrack03	19	ProbeTrackDT	1.1	SCS215a	20110128.125116	20110128.130050	single-task	8	0.013327	60	10	60-180	60	158	GapExp	0	98	2	6	1	target	1	547	727	78853	13.328	13.060	13.600
DTProbeTrack03	19	ProbeTrackDT	1.1	SCS215a	20110128.125116	20110128.130056	single-task	8	0.013327	60	10	60-180	60	153	GapExp	0	99	2	1	0	distractor	1	507	747	79600	13.328	12.862	13.788
DTProbeTrack03	19	ProbeTrackDT	1.1	SCS215a	20110128.125116	20110128.130102	single-task	8	0.013327	60	10	60-180	60	140	GapExp	0	100	2	9	1	target	1	467	767	80367	13.328	13.292	13.355
DTProbeTrack03	19	ProbeTrackDT	1.1	SCS215a	20110128.125116	20110128.130121	single-task	8	0.013327	60	10	60-180	60	71	GapExp	0	101	2	1	1	distractor	0	520	-1000	79367	13.328	13.105	13.557
DTProbeTrack03	19	ProbeTrackDT	1.1	SCS215a	20110128.125116	20110128.130126	single-task	8	0.013327	60	10	60-180	60	74	GapExp	0	102	2	6	0	distractor	1	347	827	80194	13.328	13.000	13.660
DTProbeTrack03	19	ProbeTrackDT	1.1	SCS215a	20110128.125116	20110128.130131	single-task	8	0.013327	60	10	60-180	60	63	GapExp	0	103	2	1	0	distractor	1	440	780	80974	13.328	13.006	13.643
DTProbeTrack03	19	ProbeTrackDT	1.1	SCS215a	20110128.125116	20110128.130135	single-task	8	0.013327	60	10	60-180	60	170	GapExp	0	104	2	3	0	target	0	733	-1000	79974	13.328	13.172	13.496
DTProbeTrack03	19	ProbeTrackDT	1.1	SCS215a	20110128.125116	20110128.130142	single-task	8	0.013327	60	10	60-180	60	150	GapExp	0	105	2	3	0	distractor	1	440	780	80754	13.328	12.899	13.769
DTProbeTrack03	19	ProbeTrackDT	1.1	SCS215a	20110128.125116	20110128.130148	single-task	8	0.013327	60	10	60-180	60	89	GapExp	0	106	2	9	1	target	1	414	793	81547	13.328	12.865	13.790
DTProbeTrack03	19	ProbeTrackDT	1.1	SCS215a	20110128.125116	20110128.130153	single-task	8	0.013327	60	10	60-180	60	109	GapExp	0	107	2	6	1	target	1	560	720	82267	13.328	12.854	13.800
DTProbeTrack03	19	ProbeTrackDT	1.1	SCS215a	20110128.125116	20110128.130159	single-task	8	0.013327	60	10	60-180	60	127	GapExp	0	108	2	3	0	target	0	680	-1000	81267	13.328	13.166	13.500
DTProbeTrack03	19	ProbeTrackDT	1.1	SCS215a	20110128.125116	20110128.130204	single-task	8	0.013327	60	10	60-180	60	113	GapExp	0	109	2	45	0	distractor	1	520	740	82007	13.328	12.871	13.789
DTProbeTrack03	19	ProbeTrackDT	1.1	SCS215a	20110128.125116	20110128.130211	single-task	8	0.013327	60	10	60-180	60	178	GapExp	0	110	2	3	1	target	1	494	753	82760	13.328	12.957	13.691
DTProbeTrack03	19	ProbeTrackDT	1.1	SCS215a	20110128.125116	20110128.130217	single-task	8	0.013327	60	10	60-180	60	156	GapExp	0	111	2	3	0	distractor	1	547	727	83487	13.328	13.117	13.552
DTProbeTrack03	19	ProbeTrackDT	1.1	SCS215a	20110128.125116	20110128.130223	single-task	8	0.013327	60	10	60-180	60	77	GapExp	0	112	2	9	0	target	0	520	-1000	82487	13.328	13.285	13.366
DTProbeTrack03	19	ProbeTrackDT	1.1	SCS215a	20110128.125116	20110128.130228	single-task	8	0.013327	60	10	60-180	60	108	GapExp	0	113	2	1	0	distractor	1	467	767	83254	13.328	12.885	13.765
DTProbeTrack03	19	ProbeTrackDT	1.1	SCS215a	20110128.125116	20110128.130233	single-task	8	0.013327	60	10	60-180	60	98	GapExp	0	114	2	45	0	distractor	1	387	807	84061	13.328	12.867	13.780
DTProbeTrack03	19	ProbeTrackDT	1.1	SCS215a	20110128.125116	20110128.130239	single-task	8	0.013327	60	10	60-180	60	140	GapExp	0	115	2	6	1	target	1	454	773	84834	13.328	12.863	13.792
DTProbeTrack03	19	ProbeTrackDT	1.1	SCS215a	20110128.125116	20110128.130245	single-task	8	0.013327	60	10	60-180	60	115	GapExp	0	116	2	9	1	target	1	360	820	85654	13.328	13.000	13.642
DTProbeTrack03	19	ProbeTrackDT	1.1	SCS215a	20110128.125116	20110128.130251	single-task	8	0.013327	60	10	60-180	60	118	GapExp	0	117	2	6	0	distractor	1	507	747	86401	13.328	13.100	13.550
DTProbeTrack03	19	ProbeTrackDT	1.1	SCS215a	20110128.125116	20110128.130256	single-task	8	0.013327	60	10	60-180	60	180	GapExp	0	118	2	1	0	distractor	1	427	787	87188	13.328	13.123	13.532
DTProbeTrack03	19	ProbeTrackDT	1.1	SCS215a	20110128.125116	20110128.130302	single-task	8	0.013327	60	10	60-180	60	76	GapExp	0	119	2	1	1	target	1	534	733	87921	13.328	13.040	13.621
DTProbeTrack03	19	ProbeTrackDT	1.1	SCS215a	20110128.125116	20110128.130307	single-task	8	0.013327	60	10	60-180	60	136	GapExp	0	120	2	3	1	target	1	387	807	88728	13.328	13.308	13.348
DTProbeTrack03	19	ProbeTrackDT	1.1	SCS215a	20110128.125116	20110128.130313	single-task	8	0.013327	60	10	60-180	60	155	GapExp	0	121	2	9	0	distractor	1	534	733	89461	13.328	13.015	13.657
DTProbeTrack03	19	ProbeTrackDT	1.1	SCS215a	20110128.125116	20110128.130319	single-task	8	0.013327	60	10	60-180	60	94	GapExp	0	122	2	1	0	target	0	374	-1000	88461	13.328	13.076	13.577
DTProbeTrack03	19	ProbeTrackDT	1.1	SCS215a	20110128.125116	20110128.130324	single-task	8	0.013327	60	10	60-180	60	113	GapExp	0	123	2	45	1	target	1	414	793	89254	13.328	12.863	13.796
DTProbeTrack03	19	ProbeTrackDT	1.1	SCS215a	20110128.125116	20110128.130330	single-task	8	0.013327	60	10	60-180	60	145	GapExp	0	124	2	6	0	distractor	1	440	780	90034	13.328	12.847	13.802
DTProbeTrack03	19	ProbeTrackDT	1.1	SCS215a	20110128.125116	20110128.130336	single-task	8	0.013327	60	10	60-180	60	165	GapExp	0	125	2	9	1	target	1	480	760	90794	13.328	12.948	13.693
DTProbeTrack03	19	ProbeTrackDT	1.1	SCS215a	20110128.125116	20110128.130342	single-task	8	0.013327	60	10	60-180	60	103	GapExp	0	126	2	6	0	distractor	1	587	707	91501	13.328	13.307	13.347
DTProbeTrack03	19	ProbeTrackDT	1.1	SCS215a	20110128.125116	20110128.130348	single-task	8	0.013327	60	10	60-180	60	147	GapExp	0	127	2	3	0	target	0	400	-1000	90501	13.328	13.094	13.564
DTProbeTrack03	19	ProbeTrackDT	1.1	SCS215a	20110128.125116	20110128.130354	single-task	8	0.013327	60	10	60-180	60	169	GapExp	0	128	2	9	0	distractor	1	387	807	91308	13.328	13.090	13.557
DTProbeTrack03	19	ProbeTrackDT	1.1	SCS215a	20110128.125116	20110128.130400	single-task	8	0.013327	60	10	60-180	60	139	GapExp	0	129	2	3	1	target	1	467	767	92075	13.328	12.852	13.803
DTProbeTrack03	19	ProbeTrackDT	1.1	SCS215a	20110128.125116	20110128.130406	single-task	8	0.013327	60	10	60-180	60	151	GapExp	0	130	2	9	1	target	1	440	780	92855	13.328	13.098	13.559
DTProbeTrack03	19	ProbeTrackDT	1.1	SCS215a	20110128.125116	20110128.130412	single-task	8	0.013327	60	10	60-180	60	103	GapExp	0	131	2	3	0	distractor	1	587	707	93562	13.328	13.095	13.559
DTProbeTrack03	19	ProbeTrackDT	1.1	SCS215a	20110128.125116	20110128.130417	single-task	8	0.013327	60	10	60-180	60	87	GapExp	0	132	2	6	1	target	1	560	720	94282	13.328	12.889	13.775
DTProbeTrack03	19	ProbeTrackDT	1.1	SCS215a	20110128.125116	20110128.130422	single-task	8	0.013327	60	10	60-180	60	82	GapExp	0	133	2	9	1	distractor	0	480	-1000	93282	13.328	13.109	13.549
DTProbeTrack03	19	ProbeTrackDT	1.1	SCS215a	20110128.125116	20110128.130427	single-task	8	0.013327	60	10	60-180	60	112	GapExp	0	134	2	6	0	distractor	1	534	733	94015	13.328	13.034	13.624
DTProbeTrack03	19	ProbeTrackDT	1.1	SCS215a	20110128.125116	20110128.130433	single-task	8	0.013327	60	10	60-180	60	158	GapExp	0	135	2	3	1	target	1	467	767	94782	13.328	13.297	13.347
DTProbeTrack03	19	ProbeTrackDT	1.1	SCS215a	20110128.125116	20110128.130439	single-task	8	0.013327	60	10	60-180	60	174	GapExp	0	136	2	6	0	distractor	1	494	753	95535	13.328	12.977	13.672
DTProbeTrack03	19	ProbeTrackDT	1.1	SCS215a	20110128.125116	20110128.130445	single-task	8	0.013327	60	10	60-180	60	107	GapExp	0	137	2	9	1	target	1	494	753	96288	13.328	12.851	13.788
DTProbeTrack03	19	ProbeTrackDT	1.1	SCS215a	20110128.125116	20110128.130451	single-task	8	0.013327	60	10	60-180	60	174	GapExp	0	138	2	1	1	target	1	427	787	97075	13.328	12.989	13.660
DTProbeTrack03	19	ProbeTrackDT	1.1	SCS215a	20110128.125116	20110128.130457	single-task	8	0.013327	60	10	60-180	60	165	GapExp	0	139	2	1	1	target	1	427	787	97862	13.328	13.104	13.561
DTProbeTrack03	19	ProbeTrackDT	1.1	SCS215a	20110128.125116	20110128.130503	single-task	8	0.013327	60	10	60-180	60	161	GapExp	0	140	2	6	0	distractor	1	387	807	98669	13.328	13.105	13.555
DTProbeTrack03	19	ProbeTrackDT	1.1	SCS215a	20110128.125116	20110128.130509	single-task	8	0.013327	60	10	60-180	60	170	GapExp	0	141	2	9	0	distractor	1	467	767	99436	13.328	12.883	13.778
DTProbeTrack03	19	ProbeTrackDT	1.1	SCS215a	20110128.125116	20110128.130515	single-task	8	0.013327	60	10	60-180	60	163	GapExp	0	142	2	45	1	target	1	440	780	100216	13.328	13.098	13.544
DTProbeTrack03	19	ProbeTrackDT	1.1	SCS215a	20110128.125116	20110128.130522	single-task	8	0.013327	60	10	60-180	60	69	GapExp	0	143	2	45	0	distractor	1	440	780	100996	13.328	12.937	13.724
DTProbeTrack03	19	ProbeTrackDT	1.1	SCS215a	20110128.125116	20110128.130527	single-task	8	0.013327	60	10	60-180	60	61	GapExp	0	144	2	45	0	distractor	1	653	674	101670	13.328	12.945	13.704
DTProbeTrack03	19	ProbeTrackDT	1.1	SCS215a	20110128.125116	20110128.130533	single-task	8	0.013327	60	10	60-180	60	64	GapExp	0	145	2	45	1	distractor	0	414	-1000	100670	13.328	13.091	13.563
DTProbeTrack03	19	ProbeTrackDT	1.1	SCS215a	20110128.125116	20110128.130538	single-task	8	0.013327	60	10	60-180	60	162	GapExp	0	146	2	45	1	distractor	0	747	-1000	99670	13.328	13.107	13.548
DTProbeTrack03	19	ProbeTrackDT	1.1	SCS215a	20110128.125116	20110128.130545	single-task	8	0.013327	60	10	60-180	60	162	GapExp	0	147	2	9	1	target	1	454	773	100443	13.328	13.099	13.561
DTProbeTrack03	19	ProbeTrackDT	1.1	SCS215a	20110128.125116	20110128.130551	single-task	8	0.013327	60	10	60-180	60	69	GapExp	0	148	2	6	0	distractor	1	534	733	101176	13.328	13.309	13.347
DTProbeTrack03	19	ProbeTrackDT	1.1	SCS215a	20110128.125116	20110128.130556	single-task	8	0.013327	60	10	60-180	60	149	GapExp	0	149	2	6	0	distractor	1	454	773	101949	13.328	12.963	13.700
DTProbeTrack03	19	ProbeTrackDT	1.1	SCS215a	20110128.125116	20110128.130602	single-task	8	0.013327	60	10	60-180	60	161	GapExp	0	150	2	6	0	distractor	1	480	760	102709	13.328	12.838	13.821
DTProbeTrack03	19	ProbeTrackDT	1.1	SCS215a	20110128.125116	20110128.130617	single-task	8	0.013327	60	10	60-180	60	63	GapExp	0	151	2	1	0	distractor	1	534	733	103442	13.328	13.308	13.346
DTProbeTrack03	19	ProbeTrackDT	1.1	SCS215a	20110128.125116	20110128.130622	single-task	8	0.013327	60	10	60-180	60	77	GapExp	0	152	2	6	0	distractor	1	454	773	104215	13.328	13.031	13.608
DTProbeTrack03	19	ProbeTrackDT	1.1	SCS215a	20110128.125116	20110128.130627	single-task	8	0.013327	60	10	60-180	60	78	GapExp	0	153	2	3	0	distractor	1	507	747	104962	13.328	12.913	13.741
DTProbeTrack03	19	ProbeTrackDT	1.1	SCS215a	20110128.125116	20110128.130632	single-task	8	0.013327	60	10	60-180	60	142	GapExp	0	154	2	3	1	target	1	414	793	105755	13.328	13.309	13.348
DTProbeTrack03	19	ProbeTrackDT	1.1	SCS215a	20110128.125116	20110128.130638	single-task	8	0.013327	60	10	60-180	60	121	GapExp	0	155	2	45	1	target	1	414	793	106548	13.328	13.305	13.348
DTProbeTrack03	19	ProbeTrackDT	1.1	SCS215a	20110128.125116	20110128.130644	single-task	8	0.013327	60	10	60-180	60	94	GapExp	0	156	2	3	0	distractor	1	387	807	107355	13.328	13.063	13.595
DTProbeTrack03	19	ProbeTrackDT	1.1	SCS215a	20110128.125116	20110128.130649	single-task	8	0.013327	60	10	60-180	60	157	GapExp	0	157	2	3	1	target	1	494	753	108108	13.328	12.893	13.778
DTProbeTrack03	19	ProbeTrackDT	1.1	SCS215a	20110128.125116	20110128.130655	single-task	8	0.013327	60	10	60-180	60	81	GapExp	0	158	2	45	0	distractor	1	560	720	108828	13.328	12.953	13.695
DTProbeTrack03	19	ProbeTrackDT	1.1	SCS215a	20110128.125116	20110128.130701	single-task	8	0.013327	60	10	60-180	60	93	GapExp	0	159	2	9	0	distractor	1	454	773	109601	13.328	13.030	13.627
DTProbeTrack03	19	ProbeTrackDT	1.1	SCS215a	20110128.125116	20110128.130706	single-task	8	0.013327	60	10	60-180	60	93	GapExp	0	160	2	3	0	target	0	880	-1000	108601	13.328	13.013	13.655
DTProbeTrack03	19	ProbeTrackDT	1.1	SCS215a	20110128.125116	20110128.130712	single-task	8	0.013327	60	10	60-180	60	128	GapExp	0	161	2	9	0	distractor	1	414	793	109394	13.328	13.012	13.651
DTProbeTrack03	19	ProbeTrackDT	1.1	SCS215a	20110128.125116	20110128.130717	single-task	8	0.013327	60	10	60-180	60	137	GapExp	0	162	2	45	0	distractor	1	307	847	110241	13.328	12.938	13.719
DTProbeTrack03	19	ProbeTrackDT	1.1	SCS215a	20110128.125116	20110128.130724	single-task	8	0.013327	60	10	60-180	60	147	GapExp	0	163	2	3	1	target	1	454	773	111014	13.328	12.901	13.761
DTProbeTrack03	19	ProbeTrackDT	1.1	SCS215a	20110128.125116	20110128.130729	single-task	8	0.013327	60	10	60-180	60	144	GapExp	0	164	2	1	1	target	1	520	740	111754	13.328	13.101	13.560
DTProbeTrack03	19	ProbeTrackDT	1.1	SCS215a	20110128.125116	20110128.130735	single-task	8	0.013327	60	10	60-180	60	160	GapExp	0	165	2	9	0	target	0	654	-1000	110754	13.328	13.103	13.558
DTProbeTrack03	19	ProbeTrackDT	1.1	SCS215a	20110128.125116	20110128.130742	single-task	8	0.013327	60	10	60-180	60	101	GapExp	0	166	2	9	0	target	0	440	-1000	109754	13.328	13.060	13.603
DTProbeTrack03	19	ProbeTrackDT	1.1	SCS215a	20110128.125116	20110128.130747	single-task	8	0.013327	60	10	60-180	60	100	GapExp	0	167	2	6	0	distractor	1	440	780	110534	13.328	13.306	13.347
DTProbeTrack03	19	ProbeTrackDT	1.1	SCS215a	20110128.125116	20110128.130752	single-task	8	0.013327	60	10	60-180	60	68	GapExp	0	168	2	6	1	distractor	0	1786	-1000	109534	13.328	13.100	13.568
DTProbeTrack03	19	ProbeTrackDT	1.1	SCS215a	20110128.125116	20110128.130759	single-task	8	0.013327	60	10	60-180	60	109	GapExp	0	169	2	1	0	target	0	440	-1000	108534	13.328	12.989	13.660
DTProbeTrack03	19	ProbeTrackDT	1.1	SCS215a	20110128.125116	20110128.130804	single-task	8	0.013327	60	10	60-180	60	70	GapExp	0	170	2	9	1	target	1	547	727	109261	13.328	13.160	13.586
DTProbeTrack03	19	ProbeTrackDT	1.1	SCS215a	20110128.125116	20110128.130809	single-task	8	0.013327	60	10	60-180	60	110	GapExp	0	171	2	6	1	target	1	427	787	110048	13.328	13.274	13.369
DTProbeTrack03	19	ProbeTrackDT	1.1	SCS215a	20110128.125116	20110128.130814	single-task	8	0.013327	60	10	60-180	60	145	GapExp	0	172	2	9	1	target	1	427	787	110835	13.328	13.307	13.348
DTProbeTrack03	19	ProbeTrackDT	1.1	SCS215a	20110128.125116	20110128.130820	single-task	8	0.013327	60	10	60-180	60	106	GapExp	0	173	2	45	1	distractor	0	360	-1000	109835	13.328	12.899	13.763
DTProbeTrack03	19	ProbeTrackDT	1.1	SCS215a	20110128.125116	20110128.130826	single-task	8	0.013327	60	10	60-180	60	72	GapExp	0	174	2	45	1	target	1	1040	480	110315	13.328	13.307	13.349
DTProbeTrack03	19	ProbeTrackDT	1.1	SCS215a	20110128.125116	20110128.130832	single-task	8	0.013327	60	10	60-180	60	76	GapExp	0	175	2	9	0	distractor	1	414	793	111108	13.328	12.830	13.813
DTProbeTrack03	19	ProbeTrackDT	1.1	SCS215a	20110128.125116	20110128.130837	single-task	8	0.013327	60	10	60-180	60	152	GapExp	0	176	2	3	0	distractor	1	547	727	111835	13.328	12.960	13.736
DTProbeTrack03	19	ProbeTrackDT	1.1	SCS215a	20110128.125116	20110128.130843	single-task	8	0.013327	60	10	60-180	60	147	GapExp	0	177	2	6	1	target	1	427	787	112622	13.328	12.906	13.749
DTProbeTrack03	19	ProbeTrackDT	1.1	SCS215a	20110128.125116	20110128.130849	single-task	8	0.013327	60	10	60-180	60	172	GapExp	0	178	2	3	0	distractor	1	573	714	113336	13.328	13.111	13.347
DTProbeTrack03	19	ProbeTrackDT	1.1	SCS215a	20110128.125116	20110128.130856	single-task	8	0.013327	60	10	60-180	60	119	GapExp	0	179	2	9	1	target	1	627	687	114023	13.328	13.100	13.550
DTProbeTrack03	19	ProbeTrackDT	1.1	SCS215a	20110128.125116	20110128.130901	single-task	8	0.013327	60	10	60-180	60	144	GapExp	0	180	2	45	1	distractor	0	334	-1000	113023	13.328	13.307	13.356
DTProbeTrack03	19	ProbeTrackDT	1.1	SCS215a	20110128.125116	20110128.130908	single-task	8	0.013327	60	10	60-180	60	121	GapExp	0	181	2	3	0	distractor	1	507	747	113770	13.328	13.107	13.555
DTProbeTrack03	19	ProbeTrackDT	1.1	SCS215a	20110128.125116	20110128.130913	single-task	8	0.013327	60	10	60-180	60	161	GapExp	0	182	2	3	1	target	1	440	780	114550	13.328	12.957	13.732
DTProbeTrack03	19	ProbeTrackDT	1.1	SCS215a	20110128.125116	20110128.130919	single-task	8	0.013327	60	10	60-180	60	72	GapExp	0	183	2	1	1	target	1	507	747	115297	13.328	13.299	13.350
DTProbeTrack03	19	ProbeTrackDT	1.1	SCS215a	20110128.125116	20110128.130924	single-task	8	0.013327	60	10	60-180	60	153	GapExp	0	184	2	45	0	distractor	1	414	793	116090	13.328	12.930	13.728
DTProbeTrack03	19	ProbeTrackDT	1.1	SCS215a	20110128.125116	20110128.130931	single-task	8	0.013327	60	10	60-180	60	139	GapExp	0	185	2	45	1	target	1	627	687	116777	13.328	12.881	13.782
DTProbeTrack03	19	ProbeTrackDT	1.1	SCS215a	20110128.125116	20110128.130937	single-task	8	0.013327	60	10	60-180	60	162	GapExp	0	186	2	3	1	target	1	427	787	117564	13.328	13.109	13.539
DTProbeTrack03	19	ProbeTrackDT	1.1	SCS215a	20110128.125116	20110128.130943	single-task	8	0.013327	60	10	60-180	60	111	GapExp	0	187	2	9	0	distractor	1	547	727	118291	13.328	12.890	13.767
DTProbeTrack03	19	ProbeTrackDT	1.1	SCS215a	20110128.125116	20110128.130949	single-task	8	0.013327	60	10	60-180	60	175	GapExp	0	188	2	1	1	target	1	480	760	119051	13.328	13.105	13.564
DTProbeTrack03	19	ProbeTrackDT	1.1	SCS215a	20110128.125116	20110128.130955	single-task	8	0.013327	60	10	60-180	60	101	GapExp	0	189	2	9	1	target	1	480	760	119811	13.328	13.309	13.347
DTProbeTrack03	19	ProbeTrackDT	1.1	SCS215a	20110128.125116	20110128.131000	single-task	8	0.013327	60	10	60-180	60	153	GapExp	0	190	2	45	1	distractor	0	374	-1000	118811	13.328	12.863	13.798
DTProbeTrack03	19	ProbeTrackDT	1.1	SCS215a	20110128.125116	20110128.131007	single-task	8	0.013327	60	10	60-180	60	139	GapExp	0	191	2	3	1	target	1	427	787	119598	13.328	13.006	13.644
DTProbeTrack03	19	ProbeTrackDT	1.1	SCS215a	20110128.125116	20110128.131013	single-task	8	0.013327	60	10	60-180	60	99	GapExp	0	192	2	9	0	distractor	1	867	567	120165	13.328	13.096	13.559
DTProbeTrack03	19	ProbeTrackDT	1.1	SCS215a	20110128.125116	20110128.131018	single-task	8	0.013327	60	10	60-180	60	143	GapExp	0	193	2	3	1	target	1	707	647	120812	13.328	13.075	13.592
DTProbeTrack03	19	ProbeTrackDT	1.1	SCS215a	20110128.125116	20110128.131025	single-task	8	0.013327	60	10	60-180	60	143	GapExp	0	194	2	3	1	target	1	440	780	121592	13.328	12.988	13.674
DTProbeTrack03	19	ProbeTrackDT	1.1	SCS215a	20110128.125116	20110128.131030	single-task	8	0.013327	60	10	60-180	60	110	GapExp	0	195	2	9	1	target	1	427	787	122379	13.328	12.986	13.668
DTProbeTrack03	19	ProbeTrackDT	1.1	SCS215a	20110128.125116	20110128.131036	single-task	8	0.013327	60	10	60-180	60	177	GapExp	0	196	2	9	1	target	1	469	766	123145	13.328	13.012	13.676
DTProbeTrack03	19	ProbeTrackDT	1.1	SCS215a	20110128.125116	20110128.131042	single-task	8	0.013327	60	10	60-180	60	63	GapExp	0	197	2	45	1	target	1	454	773	123918	13.328	12.870	13.771
DTProbeTrack03	19	ProbeTrackDT	1.1	SCS215a	20110128.125116	20110128.131047	single-task	8	0.013327	60	10	60-180	60	91	GapExp	0	198	2	45	1	target	1	387	807	124725	13.328	12.871	13.784
DTProbeTrack03	19	ProbeTrackDT	1.1	SCS215a	20110128.125116	20110128.131053	single-task	8	0.013327	60	10	60-180	60	150	GapExp	0	199	2	45	0	target	0	467	-1000	123725	13.328	13.099	13.543
DTProbeTrack03	19	ProbeTrackDT	1.1	SCS215a	20110128.125116	20110128.131100	single-task	8	0.013327	60	10	60-180	60	94	GapExp	0	200	2	6	1	target	1	467	767	124492	13.328	13.105	13.559
DTProbeTrack03	19	ProbeTrackDT	1.1	SCS215a	20110128.125116	20110128.131113	single-task	8	0.013327	60	10	60-180	60	164	GapExp	0	201	2	6	1	target	1	467	767	125259	13.328	12.883	13.772
DTProbeTrack03	19	ProbeTrackDT	1.1	SCS215a	20110128.125116	20110128.131120	single-task	8	0.013327	60	10	60-180	60	101	GapExp	0	202	2	3	1	target	1	414	793	126052	13.328	13.083	13.548
DTProbeTrack03	19	ProbeTrackDT	1.1	SCS215a	20110128.125116	20110128.131125	single-task	8	0.013327	60	10	60-180	60	151	GapExp	0	203	2	1	1	target	1	507	747	126799	13.328	13.160	13.566
DTProbeTrack03	19	ProbeTrackDT	1.1	SCS215a	20110128.125116	20110128.131131	single-task	8	0.013327	60	10	60-180	60	154	GapExp	0	204	2	3	1	target	1	360	820	127619	13.328	12.892	13.758
DTProbeTrack03	19	ProbeTrackDT	1.1	SCS215a	20110128.125116	20110128.131137	single-task	8	0.013327	60	10	60-180	60	118	GapExp	0	205	2	3	1	target	1	400	800	128419	13.328	13.090	13.560
DTProbeTrack03	19	ProbeTrackDT	1.1	SCS215a	20110128.131313	20110128.131318	dt-shadow	8	0.013328	60	10	60-180	60	126	GapPrac	1	1	2	1	0	distractor	1	573	714	129133	13.327	13.257	13.370
DTProbeTrack03	19	ProbeTrackDT	1.1	SCS215a	20110128.131313	20110128.131323	dt-shadow	8	0.013328	60	10	60-180	60	89	GapPrac	1	2	2	3	0	distractor	1	427	787	129920	13.328	12.868	13.781
DTProbeTrack03	19	ProbeTrackDT	1.1	SCS215a	20110128.131313	20110128.131328	dt-shadow	8	0.013328	60	10	60-180	60	122	GapPrac	1	3	2	9	1	target	1	400	800	130720	13.328	12.857	13.803
DTProbeTrack03	19	ProbeTrackDT	1.1	SCS215a	20110128.131313	20110128.131334	dt-shadow	8	0.013328	60	10	60-180	60	106	GapPrac	1	4	2	9	1	target	1	440	780	131500	13.328	13.112	13.561
DTProbeTrack03	19	ProbeTrackDT	1.1	SCS215a	20110128.131313	20110128.131339	dt-shadow	8	0.013328	60	10	60-180	60	170	GapPrac	1	5	2	45	0	distractor	1	440	780	132280	13.328	13.105	13.567
DTProbeTrack03	19	ProbeTrackDT	1.1	SCS215a	20110128.131313	20110128.131346	dt-shadow	8	0.013328	60	10	60-180	60	64	GapPrac	1	6	2	1	0	distractor	1	547	727	133007	13.328	13.309	13.350
DTProbeTrack03	19	ProbeTrackDT	1.1	SCS215a	20110128.131313	20110128.131351	dt-shadow	8	0.013328	60	10	60-180	60	140	GapPrac	1	7	2	6	0	distractor	1	360	820	133827	13.328	13.088	13.614
DTProbeTrack03	19	ProbeTrackDT	1.1	SCS215a	20110128.131313	20110128.131357	dt-shadow	8	0.013328	60	10	60-180	60	167	GapPrac	1	8	2	9	0	distractor	1	427	787	134614	13.328	13.109	13.538
DTProbeTrack03	19	ProbeTrackDT	1.1	SCS215a	20110128.131313	20110128.131403	dt-shadow	8	0.013328	60	10	60-180	60	65	GapPrac	1	9	2	6	0	target	0	547	-1000	133614	13.328	13.306	13.347
DTProbeTrack03	19	ProbeTrackDT	1.1	SCS215a	20110128.131313	20110128.131408	dt-shadow	8	0.013328	60	10	60-180	60	67	GapPrac	1	10	2	45	1	target	1	454	773	134387	13.328	13.309	13.347
DTProbeTrack03	19	ProbeTrackDT	1.1	SCS215a	20110128.131313	20110128.131413	dt-shadow	8	0.013328	60	10	60-180	60	95	GapPrac	1	11	2	1	1	target	1	374	813	135200	13.328	13.083	13.580
DTProbeTrack03	19	ProbeTrackDT	1.1	SCS215a	20110128.131313	20110128.131418	dt-shadow	8	0.013328	60	10	60-180	60	139	GapPrac	1	12	2	3	1	target	1	480	760	135960	13.328	13.028	13.680
DTProbeTrack03	19	ProbeTrackDT	1.1	SCS215a	20110128.131313	20110128.131424	dt-shadow	8	0.013328	60	10	60-180	60	73	GapPrac	1	13	2	1	1	target	1	494	753	136713	13.328	13.100	13.557
DTProbeTrack03	19	ProbeTrackDT	1.1	SCS215a	20110128.131313	20110128.131429	dt-shadow	8	0.013328	60	10	60-180	60	101	GapPrac	1	14	2	6	1	target	1	387	807	137520	13.328	13.302	13.354
DTProbeTrack03	19	ProbeTrackDT	1.1	SCS215a	20110128.131313	20110128.131434	dt-shadow	8	0.013328	60	10	60-180	60	121	GapPrac	1	15	2	45	0	target	0	400	-1000	136520	13.328	12.977	13.693
DTProbeTrack03	19	ProbeTrackDT	1.1	SCS215a	20110128.131313	20110128.131440	dt-shadow	8	0.013328	60	10	60-180	60	171	GapPrac	1	16	2	9	0	distractor	1	747	627	137147	13.328	12.913	13.757
DTProbeTrack03	19	ProbeTrackDT	1.1	SCS215a	20110128.131313	20110128.131447	dt-shadow	8	0.013328	60	10	60-180	60	125	GapPrac	1	17	2	3	0	distractor	1	400	800	137947	13.328	12.907	13.757
DTProbeTrack03	19	ProbeTrackDT	1.1	SCS215a	20110128.131313	20110128.131452	dt-shadow	8	0.013328	60	10	60-180	60	151	GapPrac	1	18	2	3	1	target	1	467	767	138714	13.328	13.099	13.563
DTProbeTrack03	19	ProbeTrackDT	1.1	SCS215a	20110128.131313	20110128.131458	dt-shadow	8	0.013328	60	10	60-180	60	130	GapPrac	1	19	2	6	1	target	1	360	820	139534	13.328	13.110	13.547
DTProbeTrack03	19	ProbeTrackDT	1.1	SCS215a	20110128.131313	20110128.131504	dt-shadow	8	0.013328	60	10	60-180	60	72	GapPrac	1	20	2	45	1	target	1	467	767	140301	13.328	13.169	13.494
DTProbeTrack03	19	ProbeTrackDT	1.1	SCS215a	20110128.131542	20110128.131545	dt-shadow	8	0.013327	60	10	60-180	60	169	GapExp	1	1	2	3	1	target	1	400	800	141101	13.328	13.200	13.489
DTProbeTrack03	19	ProbeTrackDT	1.1	SCS215a	20110128.131542	20110128.131551	dt-shadow	8	0.013327	60	10	60-180	60	97	GapExp	1	2	2	1	0	target	0	467	-1000	140101	13.328	13.128	13.522
DTProbeTrack03	19	ProbeTrackDT	1.1	SCS215a	20110128.131542	20110128.131556	dt-shadow	8	0.013327	60	10	60-180	60	97	GapExp	1	3	2	6	0	distractor	1	467	767	140868	13.328	13.093	13.568
DTProbeTrack03	19	ProbeTrackDT	1.1	SCS215a	20110128.131542	20110128.131601	dt-shadow	8	0.013327	60	10	60-180	60	145	GapExp	1	4	2	9	0	distractor	1	494	753	141621	13.328	13.037	13.619
DTProbeTrack03	19	ProbeTrackDT	1.1	SCS215a	20110128.131542	20110128.131607	dt-shadow	8	0.013327	60	10	60-180	60	146	GapExp	1	5	2	45	1	target	1	374	813	142434	13.328	12.858	13.791
DTProbeTrack03	19	ProbeTrackDT	1.1	SCS215a	20110128.131542	20110128.131613	dt-shadow	8	0.013327	60	10	60-180	60	103	GapExp	0	6	2	9	1	target	1	520	740	143174	13.328	12.843	13.813
DTProbeTrack03	19	ProbeTrackDT	1.1	SCS215a	20110128.131542	20110128.131619	dt-shadow	8	0.013327	60	10	60-180	60	83	GapExp	0	7	2	3	0	distractor	1	613	694	143868	13.327	13.308	13.347
DTProbeTrack03	19	ProbeTrackDT	1.1	SCS215a	20110128.131542	20110128.131624	dt-shadow	8	0.013327	60	10	60-180	60	122	GapExp	0	8	2	45	0	distractor	1	440	780	144648	13.328	12.952	13.712
DTProbeTrack03	19	ProbeTrackDT	1.1	SCS215a	20110128.131542	20110128.131630	dt-shadow	8	0.013327	60	10	60-180	60	176	GapExp	0	9	2	6	1	target	1	360	820	145468	13.328	13.088	13.560
DTProbeTrack03	19	ProbeTrackDT	1.1	SCS215a	20110128.131542	20110128.131636	dt-shadow	8	0.013327	60	10	60-180	60	97	GapExp	0	10	2	1	0	target	0	440	-1000	144468	13.328	13.113	13.543
DTProbeTrack03	19	ProbeTrackDT	1.1	SCS215a	20110128.131542	20110128.131641	dt-shadow	8	0.013327	60	10	60-180	60	177	GapExp	0	11	2	6	0	distractor	1	454	773	145241	13.328	13.101	13.563
DTProbeTrack03	19	ProbeTrackDT	1.1	SCS215a	20110128.131542	20110128.131648	dt-shadow	8	0.013327	60	10	60-180	60	122	GapExp	0	12	2	45	0	distractor	1	427	787	146028	13.328	12.878	13.779
DTProbeTrack03	19	ProbeTrackDT	1.1	SCS215a	20110128.131542	20110128.131654	dt-shadow	8	0.013327	60	10	60-180	60	115	GapExp	0	13	2	3	0	distractor	1	707	647	146675	13.328	13.223	13.449
DTProbeTrack03	19	ProbeTrackDT	1.1	SCS215a	20110128.131542	20110128.131700	dt-shadow	8	0.013327	60	10	60-180	60	106	GapExp	0	14	2	3	1	target	1	427	787	147462	13.328	12.863	13.798
DTProbeTrack03	19	ProbeTrackDT	1.1	SCS215a	20110128.131542	20110128.131705	dt-shadow	8	0.013327	60	10	60-180	60	178	GapExp	0	15	2	45	1	target	1	440	780	148242	13.366	13.069	26.978
DTProbeTrack03	19	ProbeTrackDT	1.1	SCS215a	20110128.131542	20110128.131712	dt-shadow	8	0.013327	60	10	60-180	60	109	GapExp	0	16	2	6	0	distractor	1	400	800	149042	13.328	13.112	13.542
DTProbeTrack03	19	ProbeTrackDT	1.1	SCS215a	20110128.131542	20110128.131717	dt-shadow	8	0.013327	60	10	60-180	60	86	GapExp	0	17	2	45	1	target	1	494	753	149795	13.328	12.916	13.737
DTProbeTrack03	19	ProbeTrackDT	1.1	SCS215a	20110128.131542	20110128.131723	dt-shadow	8	0.013327	60	10	60-180	60	119	GapExp	0	18	2	3	0	distractor	1	347	827	150622	13.328	12.888	13.767
DTProbeTrack03	19	ProbeTrackDT	1.1	SCS215a	20110128.131542	20110128.131728	dt-shadow	8	0.013327	60	10	60-180	60	148	GapExp	0	19	2	1	0	distractor	1	613	694	151316	13.328	13.304	13.348
DTProbeTrack03	19	ProbeTrackDT	1.1	SCS215a	20110128.131542	20110128.131734	dt-shadow	8	0.013327	60	10	60-180	60	140	GapExp	0	20	2	45	0	distractor	1	400	800	152116	13.328	12.912	13.750
DTProbeTrack03	19	ProbeTrackDT	1.1	SCS215a	20110128.131542	20110128.131740	dt-shadow	8	0.013327	60	10	60-180	60	76	GapExp	0	21	2	1	1	target	1	414	793	152909	13.326	12.922	13.547
DTProbeTrack03	19	ProbeTrackDT	1.1	SCS215a	20110128.131542	20110128.131745	dt-shadow	8	0.013327	60	10	60-180	60	93	GapExp	0	22	2	1	1	target	1	494	753	153662	13.327	13.302	13.346
DTProbeTrack03	19	ProbeTrackDT	1.1	SCS215a	20110128.131542	20110128.131750	dt-shadow	8	0.013327	60	10	60-180	60	113	GapExp	0	23	2	9	0	distractor	1	360	820	154482	13.328	13.309	13.347
DTProbeTrack03	19	ProbeTrackDT	1.1	SCS215a	20110128.131542	20110128.131756	dt-shadow	8	0.013327	60	10	60-180	60	84	GapExp	0	24	2	9	0	target	0	440	-1000	153482	13.328	13.297	13.359
DTProbeTrack03	19	ProbeTrackDT	1.1	SCS215a	20110128.131542	20110128.131801	dt-shadow	8	0.013327	60	10	60-180	60	155	GapExp	0	25	2	6	0	distractor	1	400	800	154282	13.328	13.111	13.553
DTProbeTrack03	19	ProbeTrackDT	1.1	SCS215a	20110128.131542	20110128.131807	dt-shadow	8	0.013327	60	10	60-180	60	69	GapExp	0	26	2	6	0	distractor	1	467	767	155049	13.328	12.967	13.694
DTProbeTrack03	19	ProbeTrackDT	1.1	SCS215a	20110128.131542	20110128.131812	dt-shadow	8	0.013327	60	10	60-180	60	153	GapExp	0	27	2	6	0	distractor	1	387	807	155856	13.328	13.305	13.353
DTProbeTrack03	19	ProbeTrackDT	1.1	SCS215a	20110128.131542	20110128.131818	dt-shadow	8	0.013327	60	10	60-180	60	129	GapExp	0	28	2	45	1	target	1	374	813	156669	13.328	12.995	13.667
DTProbeTrack03	19	ProbeTrackDT	1.1	SCS215a	20110128.131542	20110128.131824	dt-shadow	8	0.013327	60	10	60-180	60	137	GapExp	0	29	2	6	1	target	1	534	733	157402	13.328	13.307	13.345
DTProbeTrack03	19	ProbeTrackDT	1.1	SCS215a	20110128.131542	20110128.131830	dt-shadow	8	0.013327	60	10	60-180	60	73	GapExp	0	30	2	3	1	target	1	427	787	158189	13.328	13.107	13.551
DTProbeTrack03	19	ProbeTrackDT	1.1	SCS215a	20110128.131542	20110128.131835	dt-shadow	8	0.013327	60	10	60-180	60	80	GapExp	0	31	2	45	1	target	1	374	813	159002	13.328	13.111	13.548
DTProbeTrack03	19	ProbeTrackDT	1.1	SCS215a	20110128.131542	20110128.131840	dt-shadow	8	0.013327	60	10	60-180	60	172	GapExp	0	32	2	9	1	target	1	307	847	159849	13.328	13.302	13.348
DTProbeTrack03	19	ProbeTrackDT	1.1	SCS215a	20110128.131542	20110128.131846	dt-shadow	8	0.013327	60	10	60-180	60	88	GapExp	0	33	2	9	1	target	1	387	807	160656	13.328	13.298	13.362
DTProbeTrack03	19	ProbeTrackDT	1.1	SCS215a	20110128.131542	20110128.131851	dt-shadow	8	0.013327	60	10	60-180	60	176	GapExp	0	34	2	45	1	target	1	360	820	161476	13.328	12.872	13.775
DTProbeTrack03	19	ProbeTrackDT	1.1	SCS215a	20110128.131542	20110128.131858	dt-shadow	8	0.013327	60	10	60-180	60	80	GapExp	0	35	2	3	0	distractor	1	520	740	162216	13.328	12.920	13.729
DTProbeTrack03	19	ProbeTrackDT	1.1	SCS215a	20110128.131542	20110128.131903	dt-shadow	8	0.013327	60	10	60-180	60	177	GapExp	0	36	2	3	1	target	1	374	813	163029	13.328	12.914	13.754
DTProbeTrack03	19	ProbeTrackDT	1.1	SCS215a	20110128.131542	20110128.131909	dt-shadow	8	0.013327	60	10	60-180	60	175	GapExp	0	37	2	3	0	distractor	1	480	760	163789	13.328	13.091	13.551
DTProbeTrack03	19	ProbeTrackDT	1.1	SCS215a	20110128.131542	20110128.131916	dt-shadow	8	0.013327	60	10	60-180	60	128	GapExp	0	38	2	3	1	target	1	414	793	164582	13.328	13.307	13.349
DTProbeTrack03	19	ProbeTrackDT	1.1	SCS215a	20110128.131542	20110128.131921	dt-shadow	8	0.013327	60	10	60-180	60	81	GapExp	0	39	2	1	0	distractor	1	520	740	165322	13.328	13.309	13.345
DTProbeTrack03	19	ProbeTrackDT	1.1	SCS215a	20110128.131542	20110128.131926	dt-shadow	8	0.013327	60	10	60-180	60	80	GapExp	0	40	2	9	0	distractor	1	414	793	166115	13.328	13.096	13.559
DTProbeTrack03	19	ProbeTrackDT	1.1	SCS215a	20110128.131542	20110128.131931	dt-shadow	8	0.013327	60	10	60-180	60	138	GapExp	0	41	2	9	1	target	1	374	813	166928	13.328	12.976	13.672
DTProbeTrack03	19	ProbeTrackDT	1.1	SCS215a	20110128.131542	20110128.131937	dt-shadow	8	0.013327	60	10	60-180	60	106	GapExp	0	42	2	1	0	distractor	1	494	753	167681	13.328	12.901	13.758
DTProbeTrack03	19	ProbeTrackDT	1.1	SCS215a	20110128.131542	20110128.131942	dt-shadow	8	0.013327	60	10	60-180	60	73	GapExp	0	43	2	1	1	target	1	747	627	168308	13.328	13.305	13.350
DTProbeTrack03	19	ProbeTrackDT	1.1	SCS215a	20110128.131542	20110128.131947	dt-shadow	8	0.013327	60	10	60-180	60	114	GapExp	0	44	2	1	0	distractor	1	454	773	169081	13.328	12.840	13.813
DTProbeTrack03	19	ProbeTrackDT	1.1	SCS215a	20110128.131542	20110128.131953	dt-shadow	8	0.013327	60	10	60-180	60	108	GapExp	0	45	2	45	1	target	1	507	747	169828	13.328	12.955	13.689
DTProbeTrack03	19	ProbeTrackDT	1.1	SCS215a	20110128.131542	20110128.131959	dt-shadow	8	0.013327	60	10	60-180	60	148	GapExp	0	46	2	3	1	target	1	494	753	170581	13.328	13.100	13.558
DTProbeTrack03	19	ProbeTrackDT	1.1	SCS215a	20110128.131542	20110128.132005	dt-shadow	8	0.013327	60	10	60-180	60	163	GapExp	0	47	2	3	1	distractor	0	494	-1000	169581	13.328	13.309	13.352
DTProbeTrack03	19	ProbeTrackDT	1.1	SCS215a	20110128.131542	20110128.132011	dt-shadow	8	0.013327	60	10	60-180	60	65	GapExp	0	48	2	6	0	distractor	1	467	767	170348	13.328	13.303	13.358
DTProbeTrack03	19	ProbeTrackDT	1.1	SCS215a	20110128.131542	20110128.132016	dt-shadow	8	0.013327	60	10	60-180	60	77	GapExp	0	49	2	9	1	target	1	440	780	171128	13.328	13.012	13.647
DTProbeTrack03	19	ProbeTrackDT	1.1	SCS215a	20110128.131542	20110128.132021	dt-shadow	8	0.013327	60	10	60-180	60	76	GapExp	0	50	2	1	1	target	1	520	740	171868	13.328	13.106	13.543
DTProbeTrack03	19	ProbeTrackDT	1.1	SCS215a	20110128.131542	20110128.132030	dt-shadow	8	0.013327	60	10	60-180	60	133	GapExp	0	51	2	45	0	target	0	400	-1000	170868	13.328	13.229	13.440
DTProbeTrack03	19	ProbeTrackDT	1.1	SCS215a	20110128.131542	20110128.132036	dt-shadow	8	0.013327	60	10	60-180	60	113	GapExp	0	52	2	6	1	target	1	414	793	171661	13.328	13.308	13.347
DTProbeTrack03	19	ProbeTrackDT	1.1	SCS215a	20110128.131542	20110128.132042	dt-shadow	8	0.013327	60	10	60-180	60	132	GapExp	0	53	2	9	1	target	1	387	807	172468	13.328	13.308	13.348
DTProbeTrack03	19	ProbeTrackDT	1.1	SCS215a	20110128.131542	20110128.132048	dt-shadow	8	0.013327	60	10	60-180	60	137	GapExp	0	54	2	45	1	target	1	400	800	173268	13.328	12.907	13.757
DTProbeTrack03	19	ProbeTrackDT	1.1	SCS215a	20110128.131542	20110128.132054	dt-shadow	8	0.013327	60	10	60-180	60	144	GapExp	0	55	2	9	0	distractor	1	587	707	173975	13.328	13.103	13.559
DTProbeTrack03	19	ProbeTrackDT	1.1	SCS215a	20110128.131542	20110128.132100	dt-shadow	8	0.013327	60	10	60-180	60	106	GapExp	0	56	2	1	1	target	1	520	740	174715	13.328	13.306	13.347
DTProbeTrack03	19	ProbeTrackDT	1.1	SCS215a	20110128.131542	20110128.132105	dt-shadow	8	0.013327	60	10	60-180	60	75	GapExp	0	57	2	1	1	target	1	494	753	175468	13.328	13.306	13.344
DTProbeTrack03	19	ProbeTrackDT	1.1	SCS215a	20110128.131542	20110128.132110	dt-shadow	8	0.013327	60	10	60-180	60	120	GapExp	0	58	2	6	0	distractor	1	414	793	176261	13.328	13.107	13.560
DTProbeTrack03	19	ProbeTrackDT	1.1	SCS215a	20110128.131542	20110128.132116	dt-shadow	8	0.013327	60	10	60-180	60	172	GapExp	0	59	2	1	0	target	0	440	-1000	175261	13.328	13.132	13.515
DTProbeTrack03	19	ProbeTrackDT	1.1	SCS215a	20110128.131542	20110128.132122	dt-shadow	8	0.013327	60	10	60-180	60	117	GapExp	0	60	2	3	0	distractor	1	360	820	176081	13.328	13.307	13.349
DTProbeTrack03	19	ProbeTrackDT	1.1	SCS215a	20110128.131542	20110128.132127	dt-shadow	8	0.013327	60	10	60-180	60	69	GapExp	0	61	2	1	1	target	1	414	793	176874	13.328	13.299	13.356
DTProbeTrack03	19	ProbeTrackDT	1.1	SCS215a	20110128.131542	20110128.132132	dt-shadow	8	0.013327	60	10	60-180	60	77	GapExp	0	62	2	3	1	target	1	427	787	177661	13.328	12.886	13.771
DTProbeTrack03	19	ProbeTrackDT	1.1	SCS215a	20110128.131542	20110128.132137	dt-shadow	8	0.013327	60	10	60-180	60	110	GapExp	0	63	2	45	1	target	1	587	707	178368	13.328	13.114	13.556
DTProbeTrack03	19	ProbeTrackDT	1.1	SCS215a	20110128.131542	20110128.132143	dt-shadow	8	0.013327	60	10	60-180	60	154	GapExp	0	64	2	6	1	target	1	454	773	179141	13.328	12.989	13.677
DTProbeTrack03	19	ProbeTrackDT	1.1	SCS215a	20110128.131542	20110128.132149	dt-shadow	8	0.013327	60	10	60-180	60	68	GapExp	0	65	2	6	0	target	0	680	-1000	178141	13.328	13.306	13.345
DTProbeTrack03	19	ProbeTrackDT	1.1	SCS215a	20110128.131542	20110128.132154	dt-shadow	8	0.013327	60	10	60-180	60	99	GapExp	0	66	2	6	1	target	1	440	780	178921	13.328	13.310	13.348
DTProbeTrack03	19	ProbeTrackDT	1.1	SCS215a	20110128.131542	20110128.132159	dt-shadow	8	0.013327	60	10	60-180	60	112	GapExp	0	67	2	6	1	target	1	534	733	179654	13.328	13.100	13.558
DTProbeTrack03	19	ProbeTrackDT	1.1	SCS215a	20110128.131542	20110128.132205	dt-shadow	8	0.013327	60	10	60-180	60	92	GapExp	0	68	2	6	1	target	1	480	760	180414	13.328	13.100	13.560
DTProbeTrack03	19	ProbeTrackDT	1.1	SCS215a	20110128.131542	20110128.132210	dt-shadow	8	0.013327	60	10	60-180	60	163	GapExp	0	69	2	1	0	target	0	427	-1000	179414	13.328	13.303	13.365
DTProbeTrack03	19	ProbeTrackDT	1.1	SCS215a	20110128.131542	20110128.132216	dt-shadow	8	0.013327	60	10	60-180	60	117	GapExp	0	70	2	3	1	target	1	480	760	180174	13.328	13.306	13.349
DTProbeTrack03	19	ProbeTrackDT	1.1	SCS215a	20110128.131542	20110128.132222	dt-shadow	8	0.013327	60	10	60-180	60	123	GapExp	0	71	2	45	1	target	1	480	760	180934	13.328	12.850	13.790
DTProbeTrack03	19	ProbeTrackDT	1.1	SCS215a	20110128.131542	20110128.132228	dt-shadow	8	0.013327	60	10	60-180	60	123	GapExp	0	72	2	6	1	target	1	414	793	181727	13.327	13.087	13.569
DTProbeTrack03	19	ProbeTrackDT	1.1	SCS215a	20110128.131542	20110128.132233	dt-shadow	8	0.013327	60	10	60-180	60	71	GapExp	0	73	2	1	1	target	1	467	767	182494	13.328	13.091	13.578
DTProbeTrack03	19	ProbeTrackDT	1.1	SCS215a	20110128.131542	20110128.132238	dt-shadow	8	0.013327	60	10	60-180	60	61	GapExp	0	74	2	9	1	target	1	507	747	183241	13.328	13.308	13.347
DTProbeTrack03	19	ProbeTrackDT	1.1	SCS215a	20110128.131542	20110128.132243	dt-shadow	8	0.013327	60	10	60-180	60	157	GapExp	0	75	2	9	1	target	1	480	760	184001	13.328	13.272	13.369
DTProbeTrack03	19	ProbeTrackDT	1.1	SCS215a	20110128.131542	20110128.132249	dt-shadow	8	0.013327	60	10	60-180	60	127	GapExp	0	76	2	6	0	target	0	427	-1000	183001	13.328	13.109	13.558
DTProbeTrack03	19	ProbeTrackDT	1.1	SCS215a	20110128.131542	20110128.132255	dt-shadow	8	0.013327	60	10	60-180	60	178	GapExp	0	77	2	3	0	distractor	1	414	793	183794	13.328	13.299	13.356
DTProbeTrack03	19	ProbeTrackDT	1.1	SCS215a	20110128.131542	20110128.132301	dt-shadow	8	0.013327	60	10	60-180	60	164	GapExp	0	78	2	45	0	target	0	480	-1000	182794	13.328	13.106	13.545
DTProbeTrack03	19	ProbeTrackDT	1.1	SCS215a	20110128.131542	20110128.132308	dt-shadow	8	0.013327	60	10	60-180	60	145	GapExp	0	79	2	45	0	distractor	1	320	840	183634	13.328	12.969	13.700
DTProbeTrack03	19	ProbeTrackDT	1.1	SCS215a	20110128.131542	20110128.132314	dt-shadow	8	0.013327	60	10	60-180	60	139	GapExp	0	80	2	1	0	distractor	1	653	674	184308	13.328	13.101	13.562
DTProbeTrack03	19	ProbeTrackDT	1.1	SCS215a	20110128.131542	20110128.132320	dt-shadow	8	0.013327	60	10	60-180	60	123	GapExp	0	81	2	9	1	target	1	534	733	185041	13.328	13.211	13.450
DTProbeTrack03	19	ProbeTrackDT	1.1	SCS215a	20110128.131542	20110128.132326	dt-shadow	8	0.013327	60	10	60-180	60	144	GapExp	0	82	2	3	1	target	1	507	747	185788	13.328	13.054	13.597
DTProbeTrack03	19	ProbeTrackDT	1.1	SCS215a	20110128.131542	20110128.132331	dt-shadow	8	0.013327	60	10	60-180	60	162	GapExp	0	83	2	1	0	distractor	1	400	800	186588	13.328	12.854	13.793
DTProbeTrack03	19	ProbeTrackDT	1.1	SCS215a	20110128.131542	20110128.132337	dt-shadow	8	0.013327	60	10	60-180	60	128	GapExp	0	84	2	1	1	target	1	440	780	187368	13.328	13.106	13.550
DTProbeTrack03	19	ProbeTrackDT	1.1	SCS215a	20110128.131542	20110128.132343	dt-shadow	8	0.013327	60	10	60-180	60	105	GapExp	0	85	2	45	1	target	1	494	753	188121	13.328	13.061	13.595
DTProbeTrack03	19	ProbeTrackDT	1.1	SCS215a	20110128.131542	20110128.132349	dt-shadow	8	0.013327	60	10	60-180	60	81	GapExp	0	86	2	6	0	distractor	1	494	753	188874	13.328	13.309	13.348
DTProbeTrack03	19	ProbeTrackDT	1.1	SCS215a	20110128.131542	20110128.132354	dt-shadow	8	0.013327	60	10	60-180	60	134	GapExp	0	87	2	45	1	target	1	480	760	189634	13.328	13.300	13.348
DTProbeTrack03	19	ProbeTrackDT	1.1	SCS215a	20110128.131542	20110128.132400	dt-shadow	8	0.013327	60	10	60-180	60	83	GapExp	0	88	2	3	1	target	1	480	760	190394	13.328	13.306	13.351
DTProbeTrack03	19	ProbeTrackDT	1.1	SCS215a	20110128.131542	20110128.132405	dt-shadow	8	0.013327	60	10	60-180	60	172	GapExp	0	89	2	9	0	target	0	427	-1000	189394	13.328	13.087	13.563
DTProbeTrack03	19	ProbeTrackDT	1.1	SCS215a	20110128.131542	20110128.132412	dt-shadow	8	0.013327	60	10	60-180	60	101	GapExp	0	90	2	45	0	target	0	494	-1000	188394	13.328	13.095	13.545
DTProbeTrack03	19	ProbeTrackDT	1.1	SCS215a	20110128.131542	20110128.132417	dt-shadow	8	0.013327	60	10	60-180	60	77	GapExp	0	91	2	45	0	distractor	1	640	680	189074	13.328	12.925	13.732
DTProbeTrack03	19	ProbeTrackDT	1.1	SCS215a	20110128.131542	20110128.132423	dt-shadow	8	0.013327	60	10	60-180	60	163	GapExp	0	92	2	6	1	target	1	467	767	189841	13.328	13.109	13.539
DTProbeTrack03	19	ProbeTrackDT	1.1	SCS215a	20110128.131542	20110128.132429	dt-shadow	8	0.013327	60	10	60-180	60	163	GapExp	0	93	2	45	0	distractor	1	493	754	190595	13.328	12.931	13.725
DTProbeTrack03	19	ProbeTrackDT	1.1	SCS215a	20110128.131542	20110128.132436	dt-shadow	8	0.013327	60	10	60-180	60	62	GapExp	0	94	2	45	1	distractor	0	640	-1000	189595	13.328	13.100	13.556
DTProbeTrack03	19	ProbeTrackDT	1.1	SCS215a	20110128.131542	20110128.132442	dt-shadow	8	0.013327	60	10	60-180	60	178	GapExp	0	95	2	9	0	target	0	480	-1000	188595	13.328	13.308	13.349
DTProbeTrack03	19	ProbeTrackDT	1.1	SCS215a	20110128.131542	20110128.132448	dt-shadow	8	0.013327	60	10	60-180	60	147	GapExp	0	96	2	45	1	target	1	653	674	189269	13.328	13.107	13.555
DTProbeTrack03	19	ProbeTrackDT	1.1	SCS215a	20110128.131542	20110128.132455	dt-shadow	8	0.013327	60	10	60-180	60	143	GapExp	0	97	2	1	1	target	1	667	667	189936	13.328	13.112	13.542
DTProbeTrack03	19	ProbeTrackDT	1.1	SCS215a	20110128.131542	20110128.132501	dt-shadow	8	0.013327	60	10	60-180	60	72	GapExp	0	98	2	6	1	target	1	454	773	190709	13.328	12.906	13.754
DTProbeTrack03	19	ProbeTrackDT	1.1	SCS215a	20110128.131542	20110128.132506	dt-shadow	8	0.013327	60	10	60-180	60	154	GapExp	0	99	2	45	1	target	1	534	733	191442	13.328	13.180	13.470
DTProbeTrack03	19	ProbeTrackDT	1.1	SCS215a	20110128.131542	20110128.132512	dt-shadow	8	0.013327	60	10	60-180	60	123	GapExp	0	100	2	1	1	target	1	547	727	192169	13.328	13.309	13.345
DTProbeTrack03	19	ProbeTrackDT	1.1	SCS215a	20110128.131542	20110128.132523	dt-shadow	8	0.013327	60	10	60-180	60	88	GapExp	0	101	2	3	0	distractor	1	547	727	192896	13.328	13.101	13.552
DTProbeTrack03	19	ProbeTrackDT	1.1	SCS215a	20110128.131542	20110128.132528	dt-shadow	8	0.013327	60	10	60-180	60	68	GapExp	0	102	2	6	0	target	0	574	-1000	191896	13.328	13.102	13.555
DTProbeTrack03	19	ProbeTrackDT	1.1	SCS215a	20110128.131542	20110128.132533	dt-shadow	8	0.013327	60	10	60-180	60	130	GapExp	0	103	2	9	0	distractor	1	467	767	192663	13.328	13.037	13.631
DTProbeTrack03	19	ProbeTrackDT	1.1	SCS215a	20110128.131542	20110128.132539	dt-shadow	8	0.013327	60	10	60-180	60	121	GapExp	0	104	2	45	1	target	1	467	767	193430	13.328	13.217	13.432
DTProbeTrack03	19	ProbeTrackDT	1.1	SCS215a	20110128.131542	20110128.132545	dt-shadow	8	0.013327	60	10	60-180	60	141	GapExp	0	105	2	6	0	distractor	1	560	720	194150	13.328	13.309	13.351
DTProbeTrack03	19	ProbeTrackDT	1.1	SCS215a	20110128.131542	20110128.132551	dt-shadow	8	0.013327	60	10	60-180	60	114	GapExp	0	106	2	1	0	distractor	1	507	747	194897	13.327	13.103	13.556
DTProbeTrack03	19	ProbeTrackDT	1.1	SCS215a	20110128.131542	20110128.132556	dt-shadow	8	0.013327	60	10	60-180	60	137	GapExp	0	107	2	6	1	target	1	627	687	195584	13.328	13.096	13.558
DTProbeTrack03	19	ProbeTrackDT	1.1	SCS215a	20110128.131542	20110128.132602	dt-shadow	8	0.013327	60	10	60-180	60	129	GapExp	0	108	2	9	1	target	1	560	720	196304	13.328	13.021	13.627
DTProbeTrack03	19	ProbeTrackDT	1.1	SCS215a	20110128.131542	20110128.132608	dt-shadow	8	0.013327	60	10	60-180	60	107	GapExp	0	109	2	1	1	target	1	454	773	197077	13.328	13.236	13.405
DTProbeTrack03	19	ProbeTrackDT	1.1	SCS215a	20110128.131542	20110128.132613	dt-shadow	8	0.013327	60	10	60-180	60	135	GapExp	0	110	2	1	0	distractor	1	547	727	197804	13.328	13.303	13.347
DTProbeTrack03	19	ProbeTrackDT	1.1	SCS215a	20110128.131542	20110128.132619	dt-shadow	8	0.013327	60	10	60-180	60	73	GapExp	0	111	2	1	1	target	1	520	740	198544	13.328	13.105	13.551
DTProbeTrack03	19	ProbeTrackDT	1.1	SCS215a	20110128.131542	20110128.132624	dt-shadow	8	0.013327	60	10	60-180	60	64	GapExp	0	112	2	1	1	target	1	560	720	199264	13.328	12.867	13.776
DTProbeTrack03	19	ProbeTrackDT	1.1	SCS215a	20110128.131542	20110128.132629	dt-shadow	8	0.013327	60	10	60-180	60	88	GapExp	0	113	2	1	0	distractor	1	560	720	199984	13.328	13.309	13.346
DTProbeTrack03	19	ProbeTrackDT	1.1	SCS215a	20110128.131542	20110128.132634	dt-shadow	8	0.013327	60	10	60-180	60	125	GapExp	0	114	2	45	0	distractor	1	520	740	200724	13.328	13.296	13.374
DTProbeTrack03	19	ProbeTrackDT	1.1	SCS215a	20110128.131542	20110128.132640	dt-shadow	8	0.013327	60	10	60-180	60	100	GapExp	0	115	2	9	1	target	1	547	727	201451	13.328	13.106	13.549
DTProbeTrack03	19	ProbeTrackDT	1.1	SCS215a	20110128.131542	20110128.132646	dt-shadow	8	0.013327	60	10	60-180	60	70	GapExp	0	116	2	45	0	distractor	1	494	753	202204	13.328	12.855	13.808
DTProbeTrack03	19	ProbeTrackDT	1.1	SCS215a	20110128.131542	20110128.132651	dt-shadow	8	0.013327	60	10	60-180	60	138	GapExp	0	117	2	45	0	distractor	1	440	780	202984	13.328	12.949	13.724
DTProbeTrack03	19	ProbeTrackDT	1.1	SCS215a	20110128.131542	20110128.132657	dt-shadow	8	0.013327	60	10	60-180	60	176	GapExp	0	118	2	6	1	target	1	454	773	203757	13.328	13.104	13.549
DTProbeTrack03	19	ProbeTrackDT	1.1	SCS215a	20110128.131542	20110128.132704	dt-shadow	8	0.013327	60	10	60-180	60	107	GapExp	0	119	2	45	1	target	1	427	787	204544	13.328	12.885	13.756
DTProbeTrack03	19	ProbeTrackDT	1.1	SCS215a	20110128.131542	20110128.132709	dt-shadow	8	0.013327	60	10	60-180	60	163	GapExp	0	120	2	3	1	target	1	454	773	205317	13.328	13.170	13.531
DTProbeTrack03	19	ProbeTrackDT	1.1	SCS215a	20110128.131542	20110128.132716	dt-shadow	8	0.013327	60	10	60-180	60	63	GapExp	0	121	2	3	0	target	0	640	-1000	204317	13.328	12.502	14.156
DTProbeTrack03	19	ProbeTrackDT	1.1	SCS215a	20110128.131542	20110128.132721	dt-shadow	8	0.013327	60	10	60-180	60	129	GapExp	0	122	2	3	1	target	1	520	740	205057	13.328	13.071	13.584
DTProbeTrack03	19	ProbeTrackDT	1.1	SCS215a	20110128.131542	20110128.132726	dt-shadow	8	0.013327	60	10	60-180	60	65	GapExp	0	123	2	45	1	target	1	454	773	205830	13.328	12.954	13.718
DTProbeTrack03	19	ProbeTrackDT	1.1	SCS215a	20110128.131542	20110128.132732	dt-shadow	8	0.013327	60	10	60-180	60	155	GapExp	0	124	2	45	0	distractor	1	454	773	206603	13.328	13.307	13.351
DTProbeTrack03	19	ProbeTrackDT	1.1	SCS215a	20110128.131542	20110128.132738	dt-shadow	8	0.013327	60	10	60-180	60	117	GapExp	0	125	2	9	1	target	1	520	740	207343	13.328	12.896	13.747
DTProbeTrack03	19	ProbeTrackDT	1.1	SCS215a	20110128.131542	20110128.132744	dt-shadow	8	0.013327	60	10	60-180	60	165	GapExp	0	126	2	45	0	distractor	1	440	780	208123	13.328	12.897	13.769
DTProbeTrack03	19	ProbeTrackDT	1.1	SCS215a	20110128.131542	20110128.132750	dt-shadow	8	0.013327	60	10	60-180	60	143	GapExp	0	127	2	9	0	distractor	1	920	540	208663	13.328	12.890	13.759
DTProbeTrack03	19	ProbeTrackDT	1.1	SCS215a	20110128.131542	20110128.132757	dt-shadow	8	0.013327	60	10	60-180	60	168	GapExp	0	128	2	9	1	target	1	454	773	209436	13.328	13.126	13.539
DTProbeTrack03	19	ProbeTrackDT	1.1	SCS215a	20110128.131542	20110128.132803	dt-shadow	8	0.013327	60	10	60-180	60	164	GapExp	0	129	2	3	0	distractor	1	587	707	210143	13.328	13.095	13.639
DTProbeTrack03	19	ProbeTrackDT	1.1	SCS215a	20110128.131542	20110128.132809	dt-shadow	8	0.013327	60	10	60-180	60	177	GapExp	0	130	2	1	1	target	1	427	787	210930	13.328	13.115	13.549
DTProbeTrack03	19	ProbeTrackDT	1.1	SCS215a	20110128.131542	20110128.132816	dt-shadow	8	0.013327	60	10	60-180	60	129	GapExp	0	131	2	45	1	distractor	0	467	-1000	209930	13.328	13.102	13.555
DTProbeTrack03	19	ProbeTrackDT	1.1	SCS215a	20110128.131542	20110128.132822	dt-shadow	8	0.013327	60	10	60-180	60	74	GapExp	0	132	2	3	1	target	1	507	747	210677	13.328	13.307	13.346
DTProbeTrack03	19	ProbeTrackDT	1.1	SCS215a	20110128.131542	20110128.132827	dt-shadow	8	0.013327	60	10	60-180	60	176	GapExp	0	133	2	3	1	target	1	414	793	211470	13.328	12.913	13.736
DTProbeTrack03	19	ProbeTrackDT	1.1	SCS215a	20110128.131542	20110128.132833	dt-shadow	8	0.013327	60	10	60-180	60	179	GapExp	0	134	2	6	1	distractor	0	414	-1000	210470	13.328	12.909	13.745
DTProbeTrack03	19	ProbeTrackDT	1.1	SCS215a	20110128.131542	20110128.132839	dt-shadow	8	0.013327	60	10	60-180	60	157	GapExp	0	135	2	1	0	target	0	520	-1000	209470	13.328	12.834	13.816
DTProbeTrack03	19	ProbeTrackDT	1.1	SCS215a	20110128.131542	20110128.132845	dt-shadow	8	0.013327	60	10	60-180	60	129	GapExp	0	136	2	1	1	target	1	480	760	210230	13.328	12.871	13.801
DTProbeTrack03	19	ProbeTrackDT	1.1	SCS215a	20110128.131542	20110128.132851	dt-shadow	8	0.013327	60	10	60-180	60	164	GapExp	0	137	2	45	0	distractor	1	347	827	211057	13.328	12.933	13.718
DTProbeTrack03	19	ProbeTrackDT	1.1	SCS215a	20110128.131542	20110128.132858	dt-shadow	8	0.013327	60	10	60-180	60	79	GapExp	0	138	2	9	0	distractor	1	560	720	211777	13.328	12.877	13.778
DTProbeTrack03	19	ProbeTrackDT	1.1	SCS215a	20110128.131542	20110128.132903	dt-shadow	8	0.013327	60	10	60-180	60	108	GapExp	0	139	2	3	1	target	1	494	753	212530	13.328	13.065	13.594
DTProbeTrack03	19	ProbeTrackDT	1.1	SCS215a	20110128.131542	20110128.132908	dt-shadow	8	0.013327	60	10	60-180	60	79	GapExp	0	140	2	3	0	target	0	1253	-1000	211530	13.328	13.040	13.623
DTProbeTrack03	19	ProbeTrackDT	1.1	SCS215a	20110128.131542	20110128.132914	dt-shadow	8	0.013327	60	10	60-180	60	67	GapExp	0	141	2	9	0	distractor	1	534	733	212263	13.327	12.949	13.550
DTProbeTrack03	19	ProbeTrackDT	1.1	SCS215a	20110128.131542	20110128.132919	dt-shadow	8	0.013327	60	10	60-180	60	161	GapExp	0	142	2	3	0	distractor	1	520	740	213003	13.328	13.104	13.555
DTProbeTrack03	19	ProbeTrackDT	1.1	SCS215a	20110128.131542	20110128.132925	dt-shadow	8	0.013327	60	10	60-180	60	169	GapExp	0	143	2	6	1	target	1	480	760	213763	13.328	13.103	13.558
DTProbeTrack03	19	ProbeTrackDT	1.1	SCS215a	20110128.131542	20110128.132931	dt-shadow	8	0.013327	60	10	60-180	60	104	GapExp	0	144	2	3	0	distractor	1	427	787	214550	13.328	13.032	13.626
DTProbeTrack03	19	ProbeTrackDT	1.1	SCS215a	20110128.131542	20110128.132937	dt-shadow	8	0.013327	60	10	60-180	60	164	GapExp	0	145	2	45	1	target	1	400	800	215350	13.328	13.029	13.632
DTProbeTrack03	19	ProbeTrackDT	1.1	SCS215a	20110128.131542	20110128.132943	dt-shadow	8	0.013327	60	10	60-180	60	161	GapExp	0	146	2	9	1	target	1	427	787	216137	13.374	13.020	26.994
DTProbeTrack03	19	ProbeTrackDT	1.1	SCS215a	20110128.131542	20110128.132949	dt-shadow	8	0.013327	60	10	60-180	60	170	GapExp	0	147	2	9	0	distractor	1	507	747	216884	13.415	12.880	39.519
DTProbeTrack03	19	ProbeTrackDT	1.1	SCS215a	20110128.131542	20110128.132956	dt-shadow	8	0.013327	60	10	60-180	60	98	GapExp	0	148	2	3	1	target	1	560	720	217604	13.328	13.110	13.553
DTProbeTrack03	19	ProbeTrackDT	1.1	SCS215a	20110128.131542	20110128.133001	dt-shadow	8	0.013327	60	10	60-180	60	97	GapExp	0	149	2	9	0	distractor	1	467	767	218371	13.328	13.099	13.556
DTProbeTrack03	19	ProbeTrackDT	1.1	SCS215a	20110128.131542	20110128.133006	dt-shadow	8	0.013327	60	10	60-180	60	82	GapExp	0	150	2	9	1	target	1	440	780	219151	13.328	12.923	13.735
DTProbeTrack03	19	ProbeTrackDT	1.1	SCS215a	20110128.131542	20110128.133020	dt-shadow	8	0.013327	60	10	60-180	60	171	GapExp	0	151	2	3	1	target	1	454	773	219924	13.328	13.110	13.557
DTProbeTrack03	19	ProbeTrackDT	1.1	SCS215a	20110128.131542	20110128.133027	dt-shadow	8	0.013327	60	10	60-180	60	92	GapExp	0	152	2	6	1	target	1	440	780	220704	13.328	12.978	13.669
DTProbeTrack03	19	ProbeTrackDT	1.1	SCS215a	20110128.131542	20110128.133032	dt-shadow	8	0.013327	60	10	60-180	60	96	GapExp	0	153	2	3	0	distractor	1	427	787	221491	13.328	12.934	13.716
DTProbeTrack03	19	ProbeTrackDT	1.1	SCS215a	20110128.131542	20110128.133037	dt-shadow	8	0.013327	60	10	60-180	60	81	GapExp	0	154	2	1	0	distractor	1	480	760	222251	13.328	12.956	13.693
DTProbeTrack03	19	ProbeTrackDT	1.1	SCS215a	20110128.131542	20110128.133042	dt-shadow	8	0.013327	60	10	60-180	60	131	GapExp	0	155	2	6	0	distractor	1	427	787	223038	13.328	13.112	13.545
DTProbeTrack03	19	ProbeTrackDT	1.1	SCS215a	20110128.131542	20110128.133048	dt-shadow	8	0.013327	60	10	60-180	60	73	GapExp	0	156	2	6	1	target	1	574	713	223751	13.328	13.308	13.352
DTProbeTrack03	19	ProbeTrackDT	1.1	SCS215a	20110128.131542	20110128.133053	dt-shadow	8	0.013327	60	10	60-180	60	63	GapExp	0	157	2	6	0	distractor	1	440	780	224531	13.328	13.309	13.347
DTProbeTrack03	19	ProbeTrackDT	1.1	SCS215a	20110128.131542	20110128.133057	dt-shadow	8	0.013327	60	10	60-180	60	109	GapExp	0	158	2	9	0	distractor	1	613	694	225225	13.328	13.076	13.586
DTProbeTrack03	19	ProbeTrackDT	1.1	SCS215a	20110128.131542	20110128.133103	dt-shadow	8	0.013327	60	10	60-180	60	105	GapExp	0	159	2	9	1	target	1	494	753	225978	13.329	13.299	13.550
DTProbeTrack03	19	ProbeTrackDT	1.1	SCS215a	20110128.131542	20110128.133108	dt-shadow	8	0.013327	60	10	60-180	60	159	GapExp	0	160	2	3	1	target	1	507	747	226725	13.328	13.307	13.352
DTProbeTrack03	19	ProbeTrackDT	1.1	SCS215a	20110128.131542	20110128.133115	dt-shadow	8	0.013327	60	10	60-180	60	161	GapExp	0	161	2	1	0	distractor	1	520	740	227465	13.328	13.308	13.346
DTProbeTrack03	19	ProbeTrackDT	1.1	SCS215a	20110128.131542	20110128.133121	dt-shadow	8	0.013327	60	10	60-180	60	147	GapExp	0	162	2	1	0	distractor	1	467	767	228232	13.328	13.288	13.367
DTProbeTrack03	19	ProbeTrackDT	1.1	SCS215a	20110128.131542	20110128.133127	dt-shadow	8	0.013327	60	10	60-180	60	65	GapExp	0	163	2	6	0	distractor	1	600	700	228932	13.328	13.107	13.558
DTProbeTrack03	19	ProbeTrackDT	1.1	SCS215a	20110128.131542	20110128.133132	dt-shadow	8	0.013327	60	10	60-180	60	122	GapExp	0	164	2	9	1	target	1	480	760	229692	13.328	13.084	13.566
DTProbeTrack03	19	ProbeTrackDT	1.1	SCS215a	20110128.131542	20110128.133137	dt-shadow	8	0.013327	60	10	60-180	60	113	GapExp	0	165	2	9	0	distractor	1	520	740	230432	13.328	13.173	13.479
DTProbeTrack03	19	ProbeTrackDT	1.1	SCS215a	20110128.131542	20110128.133143	dt-shadow	8	0.013327	60	10	60-180	60	74	GapExp	0	166	2	1	0	distractor	1	534	733	231165	13.328	12.850	13.801
DTProbeTrack03	19	ProbeTrackDT	1.1	SCS215a	20110128.131542	20110128.133148	dt-shadow	8	0.013327	60	10	60-180	60	161	GapExp	0	167	2	3	0	distractor	1	520	740	231905	13.328	13.308	13.348
DTProbeTrack03	19	ProbeTrackDT	1.1	SCS215a	20110128.131542	20110128.133154	dt-shadow	8	0.013327	60	10	60-180	60	143	GapExp	0	168	2	9	1	target	1	440	780	232685	13.328	13.114	13.551
DTProbeTrack03	19	ProbeTrackDT	1.1	SCS215a	20110128.131542	20110128.133200	dt-shadow	8	0.013327	60	10	60-180	60	155	GapExp	0	169	2	6	0	distractor	1	480	760	233445	13.328	13.089	13.568
DTProbeTrack03	19	ProbeTrackDT	1.1	SCS215a	20110128.131542	20110128.133206	dt-shadow	8	0.013327	60	10	60-180	60	150	GapExp	0	170	2	3	0	distractor	1	387	807	234252	13.328	13.046	13.600
DTProbeTrack03	19	ProbeTrackDT	1.1	SCS215a	20110128.131542	20110128.133212	dt-shadow	8	0.013327	60	10	60-180	60	154	GapExp	0	171	2	9	1	target	1	600	700	234952	13.328	12.872	13.778
DTProbeTrack03	19	ProbeTrackDT	1.1	SCS215a	20110128.131542	20110128.133218	dt-shadow	8	0.013327	60	10	60-180	60	102	GapExp	0	172	2	9	0	distractor	1	467	767	235719	13.328	12.881	13.774
DTProbeTrack03	19	ProbeTrackDT	1.1	SCS215a	20110128.131542	20110128.133223	dt-shadow	8	0.013327	60	10	60-180	60	67	GapExp	0	173	2	6	1	target	1	374	813	236532	13.328	13.037	13.631
DTProbeTrack03	19	ProbeTrackDT	1.1	SCS215a	20110128.131542	20110128.133228	dt-shadow	8	0.013327	60	10	60-180	60	139	GapExp	0	174	2	3	0	distractor	1	667	667	237199	13.328	13.111	13.550
DTProbeTrack03	19	ProbeTrackDT	1.1	SCS215a	20110128.131542	20110128.133234	dt-shadow	8	0.013327	60	10	60-180	60	73	GapExp	0	175	2	1	1	target	1	454	773	237972	13.328	13.304	13.346
DTProbeTrack03	19	ProbeTrackDT	1.1	SCS215a	20110128.131542	20110128.133239	dt-shadow	8	0.013327	60	10	60-180	60	130	GapExp	0	176	2	9	1	target	1	387	807	238779	13.328	12.955	13.709
DTProbeTrack03	19	ProbeTrackDT	1.1	SCS215a	20110128.131542	20110128.133244	dt-shadow	8	0.013327	60	10	60-180	60	72	GapExp	0	177	2	6	1	target	1	534	733	239512	13.328	12.949	13.698
DTProbeTrack03	19	ProbeTrackDT	1.1	SCS215a	20110128.131542	20110128.133249	dt-shadow	8	0.013327	60	10	60-180	60	123	GapExp	0	178	2	45	0	distractor	1	520	740	240252	13.328	12.916	13.745
DTProbeTrack03	19	ProbeTrackDT	1.1	SCS215a	20110128.131542	20110128.133256	dt-shadow	8	0.013327	60	10	60-180	60	167	GapExp	0	179	2	9	0	target	0	480	-1000	239252	13.328	12.888	13.750
DTProbeTrack03	19	ProbeTrackDT	1.1	SCS215a	20110128.131542	20110128.133302	dt-shadow	8	0.013327	60	10	60-180	60	83	GapExp	0	180	2	6	0	distractor	1	627	687	239939	13.328	13.308	13.346
DTProbeTrack03	19	ProbeTrackDT	1.1	SCS215a	20110128.131542	20110128.133307	dt-shadow	8	0.013327	60	10	60-180	60	118	GapExp	0	181	2	9	0	distractor	1	587	707	240646	13.328	13.044	13.598
DTProbeTrack03	19	ProbeTrackDT	1.1	SCS215a	20110128.131542	20110128.133313	dt-shadow	8	0.013327	60	10	60-180	60	169	GapExp	0	182	2	45	0	distractor	1	427	787	241433	13.328	13.300	13.346
DTProbeTrack03	19	ProbeTrackDT	1.1	SCS215a	20110128.131542	20110128.133320	dt-shadow	8	0.013327	60	10	60-180	60	169	GapExp	0	183	2	6	0	distractor	1	494	753	242186	13.328	13.204	13.442
DTProbeTrack03	19	ProbeTrackDT	1.1	SCS215a	20110128.131542	20110128.133326	dt-shadow	8	0.013327	60	10	60-180	60	154	GapExp	0	184	2	9	0	distractor	1	454	773	242959	13.328	12.849	13.802
DTProbeTrack03	19	ProbeTrackDT	1.1	SCS215a	20110128.131542	20110128.133332	dt-shadow	8	0.013327	60	10	60-180	60	139	GapExp	0	185	2	6	0	distractor	1	387	807	243766	13.328	13.092	13.572
DTProbeTrack03	19	ProbeTrackDT	1.1	SCS215a	20110128.131542	20110128.133338	dt-shadow	8	0.013327	60	10	60-180	60	166	GapExp	0	186	2	3	0	distractor	1	587	707	244473	13.328	12.850	13.812
DTProbeTrack03	19	ProbeTrackDT	1.1	SCS215a	20110128.131542	20110128.133344	dt-shadow	8	0.013327	60	10	60-180	60	118	GapExp	0	187	2	45	0	distractor	1	400	800	245273	13.328	12.964	13.686
DTProbeTrack03	19	ProbeTrackDT	1.1	SCS215a	20110128.131542	20110128.133350	dt-shadow	8	0.013327	60	10	60-180	60	138	GapExp	0	188	2	1	0	distractor	1	547	727	246000	13.328	13.308	13.348
DTProbeTrack03	19	ProbeTrackDT	1.1	SCS215a	20110128.131542	20110128.133356	dt-shadow	8	0.013327	60	10	60-180	60	147	GapExp	0	189	2	3	1	distractor	0	720	-1000	245000	13.328	13.310	13.347
DTProbeTrack03	19	ProbeTrackDT	1.1	SCS215a	20110128.131542	20110128.133402	dt-shadow	8	0.013327	60	10	60-180	60	137	GapExp	0	190	2	9	0	distractor	1	414	793	245793	13.328	13.310	13.346
DTProbeTrack03	19	ProbeTrackDT	1.1	SCS215a	20110128.131542	20110128.133408	dt-shadow	8	0.013327	60	10	60-180	60	108	GapExp	0	191	2	3	1	target	1	480	760	246553	13.328	12.864	13.802
DTProbeTrack03	19	ProbeTrackDT	1.1	SCS215a	20110128.131542	20110128.133413	dt-shadow	8	0.013327	60	10	60-180	60	70	GapExp	0	192	2	45	0	distractor	1	427	787	247340	13.328	12.879	13.786
DTProbeTrack03	19	ProbeTrackDT	1.1	SCS215a	20110128.131542	20110128.133419	dt-shadow	8	0.013327	60	10	60-180	60	140	GapExp	0	193	2	1	0	distractor	1	414	793	248133	13.328	13.308	13.346
DTProbeTrack03	19	ProbeTrackDT	1.1	SCS215a	20110128.131542	20110128.133424	dt-shadow	8	0.013327	60	10	60-180	60	77	GapExp	0	194	2	6	0	distractor	1	440	780	248913	13.328	13.033	13.619
DTProbeTrack03	19	ProbeTrackDT	1.1	SCS215a	20110128.131542	20110128.133429	dt-shadow	8	0.013327	60	10	60-180	60	129	GapExp	0	195	2	6	1	target	1	414	793	249706	13.328	12.991	13.656
DTProbeTrack03	19	ProbeTrackDT	1.1	SCS215a	20110128.131542	20110128.133435	dt-shadow	8	0.013327	60	10	60-180	60	176	GapExp	0	196	2	9	0	distractor	1	400	800	250506	13.328	12.959	13.701
DTProbeTrack03	19	ProbeTrackDT	1.1	SCS215a	20110128.131542	20110128.133441	dt-shadow	8	0.013327	60	10	60-180	60	157	GapExp	0	197	2	3	0	distractor	1	427	787	251293	13.328	13.091	13.556
DTProbeTrack03	19	ProbeTrackDT	1.1	SCS215a	20110128.131542	20110128.133447	dt-shadow	8	0.013327	60	10	60-180	60	64	GapExp	0	198	2	1	1	target	1	534	733	252026	13.328	12.877	13.771
DTProbeTrack03	19	ProbeTrackDT	1.1	SCS215a	20110128.131542	20110128.133452	dt-shadow	8	0.013327	60	10	60-180	60	72	GapExp	0	199	2	45	1	distractor	0	467	-1000	251026	13.327	13.173	13.482
DTProbeTrack03	19	ProbeTrackDT	1.1	SCS215a	20110128.131542	20110128.133458	dt-shadow	8	0.013327	60	10	60-180	60	89	GapExp	0	200	2	1	0	distractor	1	973	514	251540	13.328	13.300	13.349
DTProbeTrack03	19	ProbeTrackDT	1.1	SCS215a	20110128.131542	20110128.133508	dt-shadow	8	0.013327	60	10	60-180	60	111	GapExp	0	201	2	3	0	distractor	1	427	787	252327	13.328	13.234	13.470
DTProbeTrack03	19	ProbeTrackDT	1.1	SCS215a	20110128.131542	20110128.133513	dt-shadow	8	0.013327	60	10	60-180	60	167	GapExp	0	202	2	45	0	distractor	1	360	820	253147	13.328	13.295	13.360
DTProbeTrack03	19	ProbeTrackDT	1.1	SCS215a	20110128.131542	20110128.133520	dt-shadow	8	0.013327	60	10	60-180	60	162	GapExp	0	203	2	1	1	target	1	400	800	253947	13.328	13.309	13.344
DTProbeTrack03	19	ProbeTrackDT	1.1	SCS215a	20110128.131542	20110128.133526	dt-shadow	8	0.013327	60	10	60-180	60	96	GapExp	0	204	2	1	1	target	1	400	800	254747	13.328	13.170	13.479
DTProbeTrack03	19	ProbeTrackDT	1.1	SCS215a	20110128.131542	20110128.133531	dt-shadow	8	0.013327	60	10	60-180	60	126	GapExp	0	205	2	6	1	target	1	414	793	255540	13.328	13.108	13.555
DTProbeTrack03	19	ProbeTrackDT	1.1	SCS215a	20110128.133829	20110128.133834	dt-generate	8	0.013327	60	10	60-180	60	126	GapPrac	1	1	2	6	1	distractor	0	387	-1000	254540	13.328	12.836	13.803
DTProbeTrack03	19	ProbeTrackDT	1.1	SCS215a	20110128.133829	20110128.133840	dt-generate	8	0.013327	60	10	60-180	60	61	GapPrac	1	2	2	6	0	target	0	547	-1000	253540	13.328	13.111	13.554
DTProbeTrack03	19	ProbeTrackDT	1.1	SCS215a	20110128.133829	20110128.133845	dt-generate	8	0.013327	60	10	60-180	60	133	GapPrac	1	3	2	3	1	target	1	614	693	254233	13.328	12.929	13.726
DTProbeTrack03	19	ProbeTrackDT	1.1	SCS215a	20110128.133829	20110128.133851	dt-generate	8	0.013327	60	10	60-180	60	151	GapPrac	1	4	2	45	1	target	1	467	767	255000	13.328	13.307	13.357
DTProbeTrack03	19	ProbeTrackDT	1.1	SCS215a	20110128.133829	20110128.133857	dt-generate	8	0.013327	60	10	60-180	60	114	GapPrac	1	5	2	9	0	target	0	773	-1000	254000	13.328	13.309	13.350
DTProbeTrack03	19	ProbeTrackDT	1.1	SCS215a	20110128.133829	20110128.133903	dt-generate	8	0.013327	60	10	60-180	60	142	GapPrac	1	6	2	45	0	distractor	1	2359	0	254000	13.328	13.305	13.348
DTProbeTrack03	19	ProbeTrackDT	1.1	SCS215a	20110128.133829	20110128.133911	dt-generate	8	0.013327	60	10	60-180	60	94	GapPrac	1	7	2	6	1	target	1	480	760	254760	13.328	13.131	13.526
DTProbeTrack03	19	ProbeTrackDT	1.1	SCS215a	20110128.133829	20110128.133916	dt-generate	8	0.013327	60	10	60-180	60	65	GapPrac	1	8	2	1	1	target	1	787	607	255367	13.328	13.301	13.354
DTProbeTrack03	19	ProbeTrackDT	1.1	SCS215a	20110128.133829	20110128.133922	dt-generate	8	0.013327	60	10	60-180	60	136	GapPrac	1	9	2	9	0	distractor	1	302	849	256216	13.328	13.092	13.550
DTProbeTrack03	19	ProbeTrackDT	1.1	SCS215a	20110128.133829	20110128.133927	dt-generate	8	0.013327	60	10	60-180	60	164	GapPrac	1	10	2	6	0	distractor	1	507	747	256963	13.328	13.307	13.354
DTProbeTrack03	19	ProbeTrackDT	1.1	SCS215a	20110128.133829	20110128.133934	dt-generate	8	0.013327	60	10	60-180	60	151	GapPrac	1	11	2	45	1	target	1	560	720	257683	13.328	13.107	13.558
DTProbeTrack03	19	ProbeTrackDT	1.1	SCS215a	20110128.133829	20110128.133940	dt-generate	8	0.013327	60	10	60-180	60	100	GapPrac	1	12	2	45	0	distractor	1	1333	334	258017	13.328	13.308	13.346
DTProbeTrack03	19	ProbeTrackDT	1.1	SCS215a	20110128.133829	20110128.133947	dt-generate	8	0.013327	60	10	60-180	60	76	GapPrac	1	13	2	1	0	target	0	534	-1000	257017	13.328	13.308	13.349
DTProbeTrack03	19	ProbeTrackDT	1.1	SCS215a	20110128.133829	20110128.133952	dt-generate	8	0.013327	60	10	60-180	60	168	GapPrac	1	14	2	3	0	distractor	1	720	640	257657	13.328	13.178	13.493
DTProbeTrack03	19	ProbeTrackDT	1.1	SCS215a	20110128.133829	20110128.133958	dt-generate	8	0.013327	60	10	60-180	60	70	GapPrac	1	15	2	3	1	target	1	520	740	258397	13.328	12.874	13.778
DTProbeTrack03	19	ProbeTrackDT	1.1	SCS215a	20110128.133829	20110128.134003	dt-generate	8	0.013327	60	10	60-180	60	87	GapPrac	1	16	2	9	1	distractor	0	294	-1000	257397	13.328	12.872	13.771
DTProbeTrack03	19	ProbeTrackDT	1.1	SCS215a	20110128.133829	20110128.134008	dt-generate	8	0.013327	60	10	60-180	60	99	GapPrac	1	17	2	1	1	target	1	374	813	258210	13.328	13.303	13.354
DTProbeTrack03	19	ProbeTrackDT	1.1	SCS215a	20110128.133829	20110128.134013	dt-generate	8	0.013327	60	10	60-180	60	146	GapPrac	1	18	2	1	0	target	0	587	-1000	257210	13.328	13.303	13.345
DTProbeTrack03	19	ProbeTrackDT	1.1	SCS215a	20110128.133829	20110128.134019	dt-generate	8	0.013327	60	10	60-180	60	140	GapPrac	1	19	2	3	0	distractor	1	360	820	258030	13.328	13.150	13.499
DTProbeTrack03	19	ProbeTrackDT	1.1	SCS215a	20110128.133829	20110128.134025	dt-generate	8	0.013327	60	10	60-180	60	70	GapPrac	1	20	2	9	1	target	1	427	787	258817	13.328	13.093	13.560
DTProbeTrack03	19	ProbeTrackDT	1.1	SCS215a	20110128.134056	20110128.134059	dt-generate	8	0.013328	60	10	60-180	60	177	GapExp	1	1	2	1	1	target	1	494	753	259570	13.328	13.117	13.546
DTProbeTrack03	19	ProbeTrackDT	1.1	SCS215a	20110128.134056	20110128.134106	dt-generate	8	0.013328	60	10	60-180	60	157	GapExp	1	2	2	6	1	target	1	547	727	260297	13.328	12.859	13.800
DTProbeTrack03	19	ProbeTrackDT	1.1	SCS215a	20110128.134056	20110128.134112	dt-generate	8	0.013328	60	10	60-180	60	119	GapExp	1	3	2	9	0	distractor	1	414	793	261090	13.328	12.946	13.715
DTProbeTrack03	19	ProbeTrackDT	1.1	SCS215a	20110128.134056	20110128.134117	dt-generate	8	0.013328	60	10	60-180	60	76	GapExp	1	4	2	9	1	target	1	573	714	261804	13.328	13.299	13.345
DTProbeTrack03	19	ProbeTrackDT	1.1	SCS215a	20110128.134056	20110128.134122	dt-generate	8	0.013328	60	10	60-180	60	150	GapExp	1	5	2	3	0	distractor	1	347	827	262631	13.478	12.885	39.991
DTProbeTrack03	19	ProbeTrackDT	1.1	SCS215a	20110128.134056	20110128.134128	dt-generate	8	0.013328	60	10	60-180	60	165	GapExp	0	6	2	6	0	distractor	1	360	820	263451	13.328	13.010	13.654
DTProbeTrack03	19	ProbeTrackDT	1.1	SCS215a	20110128.134056	20110128.134134	dt-generate	8	0.013328	60	10	60-180	60	140	GapExp	0	7	2	1	0	distractor	1	360	820	264271	13.328	12.887	13.782
DTProbeTrack03	19	ProbeTrackDT	1.1	SCS215a	20110128.134056	20110128.134140	dt-generate	8	0.013328	60	10	60-180	60	68	GapExp	0	8	2	3	0	target	0	1600	-1000	263271	13.328	12.869	13.800
DTProbeTrack03	19	ProbeTrackDT	1.1	SCS215a	20110128.134056	20110128.134146	dt-generate	8	0.013328	60	10	60-180	60	129	GapExp	0	9	2	9	0	distractor	1	627	687	263958	13.328	13.309	13.347
DTProbeTrack03	19	ProbeTrackDT	1.1	SCS215a	20110128.134056	20110128.134152	dt-generate	8	0.013328	60	10	60-180	60	157	GapExp	0	10	2	1	1	target	1	454	773	264731	13.328	13.309	13.345
DTProbeTrack03	19	ProbeTrackDT	1.1	SCS215a	20110128.134056	20110128.134158	dt-generate	8	0.013328	60	10	60-180	60	117	GapExp	0	11	2	9	0	distractor	1	467	767	265498	13.328	13.242	13.408
DTProbeTrack03	19	ProbeTrackDT	1.1	SCS215a	20110128.134056	20110128.134203	dt-generate	8	0.013328	60	10	60-180	60	97	GapExp	0	12	2	45	0	target	0	773	-1000	264498	13.328	13.118	13.539
DTProbeTrack03	19	ProbeTrackDT	1.1	SCS215a	20110128.134056	20110128.134210	dt-generate	8	0.013328	60	10	60-180	60	176	GapExp	0	13	2	3	1	target	1	400	800	265298	13.328	13.072	13.596
DTProbeTrack03	19	ProbeTrackDT	1.1	SCS215a	20110128.134056	20110128.134216	dt-generate	8	0.013328	60	10	60-180	60	146	GapExp	0	14	2	6	0	distractor	1	440	780	266078	13.328	13.066	13.592
DTProbeTrack03	19	ProbeTrackDT	1.1	SCS215a	20110128.134056	20110128.134222	dt-generate	8	0.013328	60	10	60-180	60	149	GapExp	0	15	2	9	0	distractor	1	2573	0	266078	13.328	13.105	13.543
DTProbeTrack03	19	ProbeTrackDT	1.1	SCS215a	20110128.134056	20110128.134230	dt-generate	8	0.013328	60	10	60-180	60	149	GapExp	0	16	2	6	0	distractor	1	1333	334	266412	13.328	13.096	13.550
DTProbeTrack03	19	ProbeTrackDT	1.1	SCS215a	20110128.134056	20110128.134237	dt-generate	8	0.013328	60	10	60-180	60	88	GapExp	0	17	2	9	0	distractor	1	520	740	267152	13.328	13.063	13.587
DTProbeTrack03	19	ProbeTrackDT	1.1	SCS215a	20110128.134056	20110128.134242	dt-generate	8	0.013328	60	10	60-180	60	103	GapExp	0	18	2	6	1	target	1	427	787	267939	13.328	13.310	13.344
DTProbeTrack03	19	ProbeTrackDT	1.1	SCS215a	20110128.134056	20110128.134247	dt-generate	8	0.013328	60	10	60-180	60	176	GapExp	0	19	2	3	0	distractor	1	587	707	268646	13.328	13.300	13.351
DTProbeTrack03	19	ProbeTrackDT	1.1	SCS215a	20110128.134056	20110128.134254	dt-generate	8	0.013328	60	10	60-180	60	108	GapExp	0	20	2	45	0	distractor	1	507	747	269393	13.328	12.980	13.682
DTProbeTrack03	19	ProbeTrackDT	1.1	SCS215a	20110128.134056	20110128.134300	dt-generate	8	0.013328	60	10	60-180	60	96	GapExp	0	21	2	1	1	target	1	747	627	270020	13.328	13.109	13.543
DTProbeTrack03	19	ProbeTrackDT	1.1	SCS215a	20110128.134056	20110128.134305	dt-generate	8	0.013328	60	10	60-180	60	162	GapExp	0	22	2	3	0	distractor	1	400	800	270820	13.328	13.112	13.544
DTProbeTrack03	19	ProbeTrackDT	1.1	SCS215a	20110128.134056	20110128.134311	dt-generate	8	0.013328	60	10	60-180	60	90	GapExp	0	23	2	3	0	distractor	1	467	767	271587	13.328	12.984	13.669
DTProbeTrack03	19	ProbeTrackDT	1.1	SCS215a	20110128.134056	20110128.134316	dt-generate	8	0.013328	60	10	60-180	60	135	GapExp	0	24	2	6	1	distractor	0	227	-1000	270587	13.328	12.964	13.700
DTProbeTrack03	19	ProbeTrackDT	1.1	SCS215a	20110128.134056	20110128.134322	dt-generate	8	0.013328	60	10	60-180	60	100	GapExp	0	25	2	3	1	target	1	534	733	271320	13.328	13.235	13.422
DTProbeTrack03	19	ProbeTrackDT	1.1	SCS215a	20110128.134056	20110128.134327	dt-generate	8	0.013328	60	10	60-180	60	69	GapExp	0	26	2	6	0	distractor	1	574	713	272033	13.328	13.106	13.558
DTProbeTrack03	19	ProbeTrackDT	1.1	SCS215a	20110128.134056	20110128.134332	dt-generate	8	0.013328	60	10	60-180	60	164	GapExp	0	27	2	3	0	target	0	494	-1000	271033	13.328	13.307	13.348
DTProbeTrack03	19	ProbeTrackDT	1.1	SCS215a	20110128.134056	20110128.134338	dt-generate	8	0.013328	60	10	60-180	60	95	GapExp	0	28	2	3	1	target	1	573	714	271747	13.328	12.851	13.809
DTProbeTrack03	19	ProbeTrackDT	1.1	SCS215a	20110128.134056	20110128.134344	dt-generate	8	0.013328	60	10	60-180	60	138	GapExp	0	29	2	6	1	target	1	467	767	272514	13.328	12.920	13.739
DTProbeTrack03	19	ProbeTrackDT	1.1	SCS215a	20110128.134056	20110128.134349	dt-generate	8	0.013328	60	10	60-180	60	121	GapExp	0	30	2	3	0	target	0	1040	-1000	271514	13.328	13.108	13.562
DTProbeTrack03	19	ProbeTrackDT	1.1	SCS215a	20110128.134056	20110128.134355	dt-generate	8	0.013328	60	10	60-180	60	152	GapExp	0	31	2	6	0	distractor	1	374	813	272327	13.328	12.851	13.802
DTProbeTrack03	19	ProbeTrackDT	1.1	SCS215a	20110128.134056	20110128.134401	dt-generate	8	0.013328	60	10	60-180	60	109	GapExp	0	32	2	1	0	distractor	1	480	760	273087	13.328	13.114	13.550
DTProbeTrack03	19	ProbeTrackDT	1.1	SCS215a	20110128.134056	20110128.134407	dt-generate	8	0.013328	60	10	60-180	60	145	GapExp	0	33	2	9	1	target	1	587	707	273794	13.328	13.299	13.357
DTProbeTrack03	19	ProbeTrackDT	1.1	SCS215a	20110128.134056	20110128.134413	dt-generate	8	0.013328	60	10	60-180	60	68	GapExp	0	34	2	1	1	distractor	0	827	-1000	272794	13.328	12.934	13.770
DTProbeTrack03	19	ProbeTrackDT	1.1	SCS215a	20110128.134056	20110128.134418	dt-generate	8	0.013328	60	10	60-180	60	75	GapExp	0	35	2	45	1	target	1	1067	467	273261	13.328	12.875	13.803
DTProbeTrack03	19	ProbeTrackDT	1.1	SCS215a	20110128.134056	20110128.134424	dt-generate	8	0.013328	60	10	60-180	60	159	GapExp	0	36	2	1	0	target	0	1493	-1000	272261	13.328	12.946	13.717
DTProbeTrack03	19	ProbeTrackDT	1.1	SCS215a	20110128.134056	20110128.134431	dt-generate	8	0.013328	60	10	60-180	60	90	GapExp	0	37	2	6	1	target	1	680	660	272921	13.328	13.300	13.360
DTProbeTrack03	19	ProbeTrackDT	1.1	SCS215a	20110128.134056	20110128.134436	dt-generate	8	0.013328	60	10	60-180	60	67	GapExp	0	38	2	1	1	target	1	467	767	273688	13.328	13.306	13.350
