exp	sub	code	rev	comp	runtime	trialtime	stdt	nstim	refreshdur	cuedur	gapdur	gapOnsetRange	durPostProbe	gapOnsetTime	blocktype	prac	trial	ntargets	soa	probeTarget	resp	acc	rt	pts	tpts	meanFrameDur	minFrameDur	maxFrameDur
DTProbeTrack03	14	ProbeTrackDT	1.1	SCS215a	20110121.091059	20110121.091116	single-task	8	0.013328	60	0	60-180	60	122	NoGap	1	1	2	3	1	target	1	3665	0	0	13.328	13.065	13.575
DTProbeTrack03	14	ProbeTrackDT	1.1	SCS215a	20110121.091059	20110121.091125	single-task	8	0.013328	60	0	60-180	60	158	NoGap	1	2	2	1	1	distractor	0	1933	-1000	-1000	13.328	12.874	13.774
DTProbeTrack03	14	ProbeTrackDT	1.1	SCS215a	20110121.091059	20110121.091132	single-task	8	0.013328	60	0	60-180	60	119	NoGap	1	3	2	1	0	distractor	1	1506	247	-753	13.328	13.282	13.370
DTProbeTrack03	14	ProbeTrackDT	1.1	SCS215a	20110121.091059	20110121.091139	single-task	8	0.013328	60	0	60-180	60	149	NoGap	1	4	2	6	1	target	1	973	514	-239	13.328	12.972	13.677
DTProbeTrack03	14	ProbeTrackDT	1.1	SCS215a	20110121.091059	20110121.091145	single-task	8	0.013328	60	0	60-180	60	71	NoGap	1	5	2	1	1	distractor	0	787	-1000	-1239	13.328	13.098	13.544
DTProbeTrack03	14	ProbeTrackDT	1.1	SCS215a	20110121.091059	20110121.091150	single-task	8	0.013328	60	0	60-180	60	161	NoGap	1	6	2	45	1	target	1	747	627	-612	13.328	13.107	13.550
DTProbeTrack03	14	ProbeTrackDT	1.1	SCS215a	20110121.091059	20110121.091157	single-task	8	0.013328	60	0	60-180	60	154	NoGap	1	7	2	6	1	target	1	733	634	22	13.328	13.097	13.563
DTProbeTrack03	14	ProbeTrackDT	1.1	SCS215a	20110121.091059	20110121.091203	single-task	8	0.013328	60	0	60-180	60	173	NoGap	1	8	2	6	1	target	1	1027	487	509	13.328	12.935	13.696
DTProbeTrack03	14	ProbeTrackDT	1.1	SCS215a	20110121.091059	20110121.091210	single-task	8	0.013328	60	0	60-180	60	63	NoGap	1	9	2	1	0	distractor	1	747	627	1136	13.328	13.297	13.351
DTProbeTrack03	14	ProbeTrackDT	1.1	SCS215a	20110121.091059	20110121.091215	single-task	8	0.013328	60	0	60-180	60	141	NoGap	1	10	2	1	0	distractor	1	733	634	1770	13.328	13.142	13.524
DTProbeTrack03	14	ProbeTrackDT	1.1	SCS215a	20110121.091059	20110121.091221	single-task	8	0.013328	60	0	60-180	60	79	NoGap	1	11	2	3	1	target	1	800	600	2370	13.328	12.870	13.785
DTProbeTrack03	14	ProbeTrackDT	1.1	SCS215a	20110121.091059	20110121.091226	single-task	8	0.013328	60	0	60-180	60	88	NoGap	1	12	2	1	0	distractor	1	720	640	3010	13.328	13.086	13.556
DTProbeTrack03	14	ProbeTrackDT	1.1	SCS215a	20110121.091059	20110121.091231	single-task	8	0.013328	60	0	60-180	60	166	NoGap	1	13	2	6	0	distractor	1	653	674	3684	13.328	13.309	13.357
DTProbeTrack03	14	ProbeTrackDT	1.1	SCS215a	20110121.091059	20110121.091237	single-task	8	0.013328	60	0	60-180	60	155	NoGap	1	14	2	3	0	distractor	1	760	620	4304	13.328	13.122	13.541
DTProbeTrack03	14	ProbeTrackDT	1.1	SCS215a	20110121.091059	20110121.091243	single-task	8	0.013328	60	0	60-180	60	140	NoGap	1	15	2	6	0	distractor	1	733	634	4938	13.328	12.880	13.774
DTProbeTrack03	14	ProbeTrackDT	1.1	SCS215a	20110121.091059	20110121.091249	single-task	8	0.013328	60	0	60-180	60	122	NoGap	1	16	2	9	1	target	1	813	594	5532	13.328	13.293	13.360
DTProbeTrack03	14	ProbeTrackDT	1.1	SCS215a	20110121.091059	20110121.091255	single-task	8	0.013328	60	0	60-180	60	136	NoGap	1	17	2	6	1	distractor	0	707	-1000	4532	13.328	13.097	13.557
DTProbeTrack03	14	ProbeTrackDT	1.1	SCS215a	20110121.091059	20110121.091301	single-task	8	0.013328	60	0	60-180	60	173	NoGap	1	18	2	3	0	distractor	1	773	614	5146	13.328	13.104	13.551
DTProbeTrack03	14	ProbeTrackDT	1.1	SCS215a	20110121.091059	20110121.091307	single-task	8	0.013328	60	0	60-180	60	111	NoGap	1	19	2	9	0	distractor	1	853	574	5720	13.328	13.099	13.549
DTProbeTrack03	14	ProbeTrackDT	1.1	SCS215a	20110121.091059	20110121.091313	single-task	8	0.013328	60	0	60-180	60	124	NoGap	1	20	2	1	1	target	1	507	747	6467	13.328	12.943	13.722
DTProbeTrack03	14	ProbeTrackDT	1.1	SCS215a	20110121.091059	20110121.091319	single-task	8	0.013328	60	0	60-180	60	163	NoGap	1	21	2	3	0	distractor	1	587	707	7174	13.328	12.906	13.773
DTProbeTrack03	14	ProbeTrackDT	1.1	SCS215a	20110121.091059	20110121.091325	single-task	8	0.013328	60	0	60-180	60	124	NoGap	1	22	2	45	1	target	1	840	580	7754	13.328	13.297	13.358
DTProbeTrack03	14	ProbeTrackDT	1.1	SCS215a	20110121.091059	20110121.091331	single-task	8	0.013328	60	0	60-180	60	178	NoGap	1	23	2	9	0	distractor	1	867	567	8321	13.328	12.876	13.776
DTProbeTrack03	14	ProbeTrackDT	1.1	SCS215a	20110121.091059	20110121.091338	single-task	8	0.013328	60	0	60-180	60	70	NoGap	1	24	2	45	0	distractor	1	574	713	9034	13.328	12.853	13.812
DTProbeTrack03	14	ProbeTrackDT	1.1	SCS215a	20110121.091059	20110121.091343	single-task	8	0.013328	60	0	60-180	60	88	NoGap	1	25	2	6	0	distractor	1	693	654	9688	13.328	12.894	13.773
DTProbeTrack03	14	ProbeTrackDT	1.1	SCS215a	20110121.091059	20110121.091348	single-task	8	0.013328	60	0	60-180	60	112	NoGap	1	26	2	3	0	distractor	1	720	640	10328	13.328	12.888	13.762
DTProbeTrack03	14	ProbeTrackDT	1.1	SCS215a	20110121.091059	20110121.091354	single-task	8	0.013328	60	0	60-180	60	137	NoGap	1	27	2	45	1	target	1	560	720	11048	13.328	13.309	13.350
DTProbeTrack03	14	ProbeTrackDT	1.1	SCS215a	20110121.091059	20110121.091400	single-task	8	0.013328	60	0	60-180	60	97	NoGap	1	28	2	9	1	target	1	440	780	11828	13.328	12.864	13.792
DTProbeTrack03	14	ProbeTrackDT	1.1	SCS215a	20110121.091059	20110121.091405	single-task	8	0.013328	60	0	60-180	60	92	NoGap	1	29	2	9	1	target	1	640	680	12508	13.328	13.107	13.543
DTProbeTrack03	14	ProbeTrackDT	1.1	SCS215a	20110121.091059	20110121.091410	single-task	8	0.013328	60	0	60-180	60	70	NoGap	1	30	2	3	1	target	1	693	654	13162	13.328	13.307	13.347
DTProbeTrack03	14	ProbeTrackDT	1.1	SCS215a	20110121.091059	20110121.091415	single-task	8	0.013328	60	0	60-180	60	75	NoGap	1	31	2	45	0	distractor	1	907	547	13709	13.328	13.107	13.548
DTProbeTrack03	14	ProbeTrackDT	1.1	SCS215a	20110121.091059	20110121.091421	single-task	8	0.013328	60	0	60-180	60	132	NoGap	1	32	2	3	1	target	1	574	713	14422	13.328	13.020	13.624
DTProbeTrack03	14	ProbeTrackDT	1.1	SCS215a	20110121.091059	20110121.091427	single-task	8	0.013328	60	0	60-180	60	154	NoGap	1	33	2	9	0	distractor	1	614	693	15115	13.328	13.308	13.349
DTProbeTrack03	14	ProbeTrackDT	1.1	SCS215a	20110121.091059	20110121.091433	single-task	8	0.013328	60	0	60-180	60	95	NoGap	1	34	2	1	1	target	1	667	667	15782	13.328	12.886	13.775
DTProbeTrack03	14	ProbeTrackDT	1.1	SCS215a	20110121.091059	20110121.091438	single-task	8	0.013328	60	0	60-180	60	159	NoGap	1	35	2	9	0	target	0	787	-1000	14782	13.328	13.017	13.655
DTProbeTrack03	14	ProbeTrackDT	1.1	SCS215a	20110121.091059	20110121.091444	single-task	8	0.013328	60	0	60-180	60	152	NoGap	1	36	2	9	1	target	1	680	660	15442	13.328	12.888	13.781
DTProbeTrack03	14	ProbeTrackDT	1.1	SCS215a	20110121.091059	20110121.091450	single-task	8	0.013328	60	0	60-180	60	157	NoGap	1	37	2	6	0	distractor	1	654	673	16115	13.328	13.303	13.359
DTProbeTrack03	14	ProbeTrackDT	1.1	SCS215a	20110121.091059	20110121.091456	single-task	8	0.013328	60	0	60-180	60	61	NoGap	1	38	2	45	1	target	1	973	514	16629	13.328	13.282	13.360
DTProbeTrack03	14	ProbeTrackDT	1.1	SCS215a	20110121.091059	20110121.091502	single-task	8	0.013328	60	0	60-180	60	166	NoGap	1	39	2	45	0	distractor	1	787	607	17236	13.328	13.210	13.441
DTProbeTrack03	14	ProbeTrackDT	1.1	SCS215a	20110121.091059	20110121.091509	single-task	8	0.013328	60	0	60-180	60	174	NoGap	1	40	2	45	0	distractor	1	680	660	17896	13.328	12.909	13.769
DTProbeTrack03	14	ProbeTrackDT	1.1	SCS215a	20110121.091625	20110121.091635	single-task	8	0.013328	60	10	60-180	60	130	GapPrac	1	1	2	1	1	distractor	0	1533	-1000	16896	13.328	13.273	13.378
DTProbeTrack03	14	ProbeTrackDT	1.1	SCS215a	20110121.091625	20110121.091641	single-task	8	0.013328	60	10	60-180	60	162	GapPrac	1	2	2	6	1	distractor	0	1293	-1000	15896	13.328	13.225	13.436
DTProbeTrack03	14	ProbeTrackDT	1.1	SCS215a	20110121.091625	20110121.091648	single-task	8	0.013328	60	10	60-180	60	125	GapPrac	1	3	2	9	0	distractor	1	2506	0	15896	13.328	13.112	13.552
DTProbeTrack03	14	ProbeTrackDT	1.1	SCS215a	20110121.091625	20110121.091656	single-task	8	0.013328	60	10	60-180	60	152	GapPrac	1	4	2	6	1	target	1	1653	174	16070	13.328	13.191	13.467
DTProbeTrack03	14	ProbeTrackDT	1.1	SCS215a	20110121.091625	20110121.091703	single-task	8	0.013328	60	10	60-180	60	134	GapPrac	1	5	2	1	1	target	1	1013	494	16564	13.328	13.021	13.635
DTProbeTrack03	14	ProbeTrackDT	1.1	SCS215a	20110121.091625	20110121.091709	single-task	8	0.013328	60	10	60-180	60	177	GapPrac	1	6	2	3	0	target	0	2746	-1000	15564	13.328	13.095	13.566
DTProbeTrack03	14	ProbeTrackDT	1.1	SCS215a	20110121.091625	20110121.091718	single-task	8	0.013328	60	10	60-180	60	180	GapPrac	1	7	2	3	1	target	1	773	614	16178	13.328	12.955	13.706
DTProbeTrack03	14	ProbeTrackDT	1.1	SCS215a	20110121.091625	20110121.091724	single-task	8	0.013328	60	10	60-180	60	90	GapPrac	1	8	2	45	0	distractor	1	840	580	16758	13.328	12.877	13.778
DTProbeTrack03	14	ProbeTrackDT	1.1	SCS215a	20110121.091625	20110121.091730	single-task	8	0.013328	60	10	60-180	60	120	GapPrac	1	9	2	9	0	distractor	1	3439	0	16758	13.376	12.961	26.664
DTProbeTrack03	14	ProbeTrackDT	1.1	SCS215a	20110121.091625	20110121.091739	single-task	8	0.013328	60	10	60-180	60	162	GapPrac	1	10	2	45	0	target	0	2133	-1000	15758	13.328	13.094	13.568
DTProbeTrack03	14	ProbeTrackDT	1.1	SCS215a	20110121.091625	20110121.091747	single-task	8	0.013328	60	10	60-180	60	131	GapPrac	1	11	2	45	1	distractor	0	920	-1000	14758	13.328	13.307	13.349
DTProbeTrack03	14	ProbeTrackDT	1.1	SCS215a	20110121.091625	20110121.091754	single-task	8	0.013328	60	10	60-180	60	132	GapPrac	1	12	2	1	0	target	0	1306	-1000	13758	13.328	13.111	13.538
DTProbeTrack03	14	ProbeTrackDT	1.1	SCS215a	20110121.091625	20110121.091801	single-task	8	0.013328	60	10	60-180	60	66	GapPrac	1	13	2	3	1	target	1	1320	340	14098	13.328	13.198	13.462
DTProbeTrack03	14	ProbeTrackDT	1.1	SCS215a	20110121.091625	20110121.091806	single-task	8	0.013328	60	10	60-180	60	62	GapPrac	1	14	2	6	0	distractor	1	1040	480	14578	13.328	13.303	13.345
DTProbeTrack03	14	ProbeTrackDT	1.1	SCS215a	20110121.091625	20110121.091812	single-task	8	0.013328	60	10	60-180	60	143	GapPrac	1	15	2	3	0	distractor	1	2146	0	14578	13.328	12.982	13.672
DTProbeTrack03	14	ProbeTrackDT	1.1	SCS215a	20110121.091625	20110121.091819	single-task	8	0.013328	60	10	60-180	60	68	GapPrac	1	16	2	1	0	distractor	1	1040	480	15058	13.328	13.309	13.346
DTProbeTrack03	14	ProbeTrackDT	1.1	SCS215a	20110121.091625	20110121.091824	single-task	8	0.013328	60	10	60-180	60	152	GapPrac	1	17	2	9	1	target	1	627	687	15745	13.328	13.112	13.537
DTProbeTrack03	14	ProbeTrackDT	1.1	SCS215a	20110121.091625	20110121.091831	single-task	8	0.013328	60	10	60-180	60	99	GapPrac	1	18	2	9	1	target	1	707	647	16392	13.328	13.106	13.550
DTProbeTrack03	14	ProbeTrackDT	1.1	SCS215a	20110121.091625	20110121.091836	single-task	8	0.013328	60	10	60-180	60	61	GapPrac	1	19	2	6	0	target	0	733	-1000	15392	13.328	13.261	13.393
DTProbeTrack03	14	ProbeTrackDT	1.1	SCS215a	20110121.091625	20110121.091841	single-task	8	0.013328	60	10	60-180	60	107	GapPrac	1	20	2	45	1	target	1	840	580	15972	13.328	12.992	13.665
DTProbeTrack03	14	ProbeTrackDT	1.1	SCS215a	20110121.091922	20110121.091929	single-task	8	0.013328	60	10	60-180	60	153	GapExp	1	1	2	9	1	target	1	760	620	16592	13.328	13.309	13.349
DTProbeTrack03	14	ProbeTrackDT	1.1	SCS215a	20110121.091922	20110121.091936	single-task	8	0.013328	60	10	60-180	60	107	GapExp	1	2	2	1	1	target	1	654	673	17265	13.328	13.306	13.348
DTProbeTrack03	14	ProbeTrackDT	1.1	SCS215a	20110121.091922	20110121.091941	single-task	8	0.013328	60	10	60-180	60	114	GapExp	1	3	2	45	1	target	1	587	707	17972	13.328	13.085	13.559
DTProbeTrack03	14	ProbeTrackDT	1.1	SCS215a	20110121.091922	20110121.091947	single-task	8	0.013328	60	10	60-180	60	91	GapExp	1	4	2	3	0	distractor	1	960	520	18492	13.328	12.908	13.771
DTProbeTrack03	14	ProbeTrackDT	1.1	SCS215a	20110121.091922	20110121.091953	single-task	8	0.013328	60	10	60-180	60	176	GapExp	1	5	2	3	1	target	1	507	747	19239	13.328	13.094	13.551
DTProbeTrack03	14	ProbeTrackDT	1.1	SCS215a	20110121.091922	20110121.091959	single-task	8	0.013328	60	10	60-180	60	153	GapExp	0	6	2	1	0	distractor	1	560	720	19959	13.328	13.037	13.615
DTProbeTrack03	14	ProbeTrackDT	1.1	SCS215a	20110121.091922	20110121.092005	single-task	8	0.013328	60	10	60-180	60	104	GapExp	0	7	2	6	1	target	1	920	540	20499	13.328	12.918	13.725
DTProbeTrack03	14	ProbeTrackDT	1.1	SCS215a	20110121.091922	20110121.092011	single-task	8	0.013328	60	10	60-180	60	115	GapExp	0	8	2	9	0	distractor	1	680	660	21159	13.328	13.180	13.480
DTProbeTrack03	14	ProbeTrackDT	1.1	SCS215a	20110121.091922	20110121.092017	single-task	8	0.013328	60	10	60-180	60	61	GapExp	0	9	2	1	0	distractor	1	800	600	21759	13.328	12.905	13.753
DTProbeTrack03	14	ProbeTrackDT	1.1	SCS215a	20110121.091922	20110121.092022	single-task	8	0.013328	60	10	60-180	60	166	GapExp	0	10	2	9	0	target	0	693	-1000	20759	13.328	12.942	13.724
DTProbeTrack03	14	ProbeTrackDT	1.1	SCS215a	20110121.091922	20110121.092028	single-task	8	0.013328	60	10	60-180	60	95	GapExp	0	11	2	3	0	distractor	1	653	674	21433	13.328	13.099	13.555
DTProbeTrack03	14	ProbeTrackDT	1.1	SCS215a	20110121.091922	20110121.092034	single-task	8	0.013328	60	10	60-180	60	80	GapExp	0	12	2	3	1	target	1	800	600	22033	13.328	12.886	13.787
DTProbeTrack03	14	ProbeTrackDT	1.1	SCS215a	20110121.091922	20110121.092039	single-task	8	0.013328	60	10	60-180	60	165	GapExp	0	13	2	3	1	target	1	507	747	22780	13.328	12.872	13.789
DTProbeTrack03	14	ProbeTrackDT	1.1	SCS215a	20110121.091922	20110121.092045	single-task	8	0.013328	60	10	60-180	60	167	GapExp	0	14	2	9	0	distractor	1	613	694	23474	13.328	13.016	13.640
DTProbeTrack03	14	ProbeTrackDT	1.1	SCS215a	20110121.091922	20110121.092052	single-task	8	0.013328	60	10	60-180	60	123	GapExp	0	15	2	45	0	distractor	1	587	707	24181	13.328	13.106	13.544
DTProbeTrack03	14	ProbeTrackDT	1.1	SCS215a	20110121.091922	20110121.092058	single-task	8	0.013328	60	10	60-180	60	152	GapExp	0	16	2	1	0	distractor	1	534	733	24914	13.328	12.906	13.747
DTProbeTrack03	14	ProbeTrackDT	1.1	SCS215a	20110121.091922	20110121.092104	single-task	8	0.013328	60	10	60-180	60	116	GapExp	0	17	2	9	0	distractor	1	680	660	25574	13.328	12.875	13.775
DTProbeTrack03	14	ProbeTrackDT	1.1	SCS215a	20110121.091922	20110121.092110	single-task	8	0.013328	60	10	60-180	60	71	GapExp	0	18	2	45	1	distractor	0	867	-1000	24574	13.328	13.104	13.566
DTProbeTrack03	14	ProbeTrackDT	1.1	SCS215a	20110121.091922	20110121.092116	single-task	8	0.013328	60	10	60-180	60	157	GapExp	0	19	2	45	0	distractor	1	667	667	25241	13.328	12.941	13.720
DTProbeTrack03	14	ProbeTrackDT	1.1	SCS215a	20110121.091922	20110121.092122	single-task	8	0.013328	60	10	60-180	60	118	GapExp	0	20	2	45	1	target	1	680	660	25901	13.326	12.848	13.671
DTProbeTrack03	14	ProbeTrackDT	1.1	SCS215a	20110121.091922	20110121.092129	single-task	8	0.013328	60	10	60-180	60	92	GapExp	0	21	2	45	1	target	1	653	674	26575	13.328	13.081	13.573
DTProbeTrack03	14	ProbeTrackDT	1.1	SCS215a	20110121.091922	20110121.092135	single-task	8	0.013328	60	10	60-180	60	97	GapExp	0	22	2	9	1	target	1	507	747	27322	13.328	13.305	13.348
DTProbeTrack03	14	ProbeTrackDT	1.1	SCS215a	20110121.091922	20110121.092140	single-task	8	0.013328	60	10	60-180	60	152	GapExp	0	23	2	3	1	target	1	560	720	28042	13.328	13.286	13.375
DTProbeTrack03	14	ProbeTrackDT	1.1	SCS215a	20110121.091922	20110121.092146	single-task	8	0.013328	60	10	60-180	60	173	GapExp	0	24	2	1	1	target	1	520	740	28782	13.328	13.099	13.572
DTProbeTrack03	14	ProbeTrackDT	1.1	SCS215a	20110121.091922	20110121.092152	single-task	8	0.013328	60	10	60-180	60	100	GapExp	0	25	2	6	0	target	0	747	-1000	27782	13.328	12.882	13.788
DTProbeTrack03	14	ProbeTrackDT	1.1	SCS215a	20110121.091922	20110121.092158	single-task	8	0.013328	60	10	60-180	60	177	GapExp	0	26	2	3	0	distractor	1	627	687	28469	13.328	13.304	13.349
DTProbeTrack03	14	ProbeTrackDT	1.1	SCS215a	20110121.091922	20110121.092204	single-task	8	0.013328	60	10	60-180	60	164	GapExp	0	27	2	1	1	target	1	520	740	29209	13.328	12.974	13.676
DTProbeTrack03	14	ProbeTrackDT	1.1	SCS215a	20110121.091922	20110121.092210	single-task	8	0.013328	60	10	60-180	60	126	GapExp	0	28	2	45	0	distractor	1	627	687	29896	13.372	12.927	26.987
DTProbeTrack03	14	ProbeTrackDT	1.1	SCS215a	20110121.091922	20110121.092217	single-task	8	0.013328	60	10	60-180	60	99	GapExp	0	29	2	1	1	target	1	627	687	30583	13.328	13.309	13.346
DTProbeTrack03	14	ProbeTrackDT	1.1	SCS215a	20110121.091922	20110121.092222	single-task	8	0.013328	60	10	60-180	60	134	GapExp	0	30	2	3	1	target	1	494	753	31336	13.328	13.089	13.572
DTProbeTrack03	14	ProbeTrackDT	1.1	SCS215a	20110121.091922	20110121.092228	single-task	8	0.013328	60	10	60-180	60	165	GapExp	0	31	2	3	0	distractor	1	707	647	31983	13.328	13.074	13.573
DTProbeTrack03	14	ProbeTrackDT	1.1	SCS215a	20110121.091922	20110121.092234	single-task	8	0.013328	60	10	60-180	60	111	GapExp	0	32	2	1	0	distractor	1	1213	394	32377	13.328	13.090	13.565
DTProbeTrack03	14	ProbeTrackDT	1.1	SCS215a	20110121.091922	20110121.092241	single-task	8	0.013328	60	10	60-180	60	124	GapExp	0	33	2	6	1	target	1	547	727	33104	13.328	13.035	13.614
DTProbeTrack03	14	ProbeTrackDT	1.1	SCS215a	20110121.091922	20110121.092246	single-task	8	0.013328	60	10	60-180	60	75	GapExp	0	34	2	1	0	distractor	1	733	634	33738	13.328	12.867	13.795
DTProbeTrack03	14	ProbeTrackDT	1.1	SCS215a	20110121.091922	20110121.092251	single-task	8	0.013328	60	10	60-180	60	89	GapExp	0	35	2	45	1	target	1	813	594	34332	13.328	13.295	13.360
DTProbeTrack03	14	ProbeTrackDT	1.1	SCS215a	20110121.091922	20110121.092257	single-task	8	0.013328	60	10	60-180	60	106	GapExp	0	36	2	6	0	distractor	1	640	680	35012	13.328	12.921	13.725
DTProbeTrack03	14	ProbeTrackDT	1.1	SCS215a	20110121.091922	20110121.092303	single-task	8	0.013328	60	10	60-180	60	148	GapExp	0	37	2	3	1	target	1	587	707	35719	13.328	13.096	13.554
DTProbeTrack03	14	ProbeTrackDT	1.1	SCS215a	20110121.091922	20110121.092309	single-task	8	0.013328	60	10	60-180	60	125	GapExp	0	38	2	6	0	target	0	1040	-1000	34719	13.328	13.104	13.564
DTProbeTrack03	14	ProbeTrackDT	1.1	SCS215a	20110121.091922	20110121.092315	single-task	8	0.013328	60	10	60-180	60	158	GapExp	0	39	2	45	1	target	1	574	713	35432	13.328	13.002	13.663
DTProbeTrack03	14	ProbeTrackDT	1.1	SCS215a	20110121.091922	20110121.092322	single-task	8	0.013328	60	10	60-180	60	141	GapExp	0	40	2	1	1	target	1	494	753	36185	13.328	13.299	13.352
DTProbeTrack03	14	ProbeTrackDT	1.1	SCS215a	20110121.091922	20110121.092328	single-task	8	0.013328	60	10	60-180	60	131	GapExp	0	41	2	45	0	target	0	520	-1000	35185	13.328	13.309	13.348
DTProbeTrack03	14	ProbeTrackDT	1.1	SCS215a	20110121.091922	20110121.092334	single-task	8	0.013328	60	10	60-180	60	95	GapExp	0	42	2	6	1	target	1	680	660	35845	13.384	12.887	26.631
DTProbeTrack03	14	ProbeTrackDT	1.1	SCS215a	20110121.091922	20110121.092339	single-task	8	0.013328	60	10	60-180	60	130	GapExp	0	43	2	3	1	target	1	600	700	36545	13.328	13.092	13.558
DTProbeTrack03	14	ProbeTrackDT	1.1	SCS215a	20110121.091922	20110121.092345	single-task	8	0.013328	60	10	60-180	60	96	GapExp	0	44	2	3	0	target	0	1093	-1000	35545	13.328	12.861	13.798
DTProbeTrack03	14	ProbeTrackDT	1.1	SCS215a	20110121.091922	20110121.092351	single-task	8	0.013328	60	10	60-180	60	111	GapExp	0	45	2	1	1	target	1	1173	414	35959	13.328	12.867	13.789
DTProbeTrack03	14	ProbeTrackDT	1.1	SCS215a	20110121.091922	20110121.092357	single-task	8	0.013328	60	10	60-180	60	69	GapExp	0	46	2	6	1	target	1	680	660	36619	13.328	13.310	13.347
DTProbeTrack03	14	ProbeTrackDT	1.1	SCS215a	20110121.091922	20110121.092402	single-task	8	0.013328	60	10	60-180	60	172	GapExp	0	47	2	9	0	distractor	1	667	667	37286	13.328	12.871	13.770
DTProbeTrack03	14	ProbeTrackDT	1.1	SCS215a	20110121.091922	20110121.092409	single-task	8	0.013328	60	10	60-180	60	153	GapExp	0	48	2	45	0	distractor	1	640	680	37966	13.328	13.308	13.345
DTProbeTrack03	14	ProbeTrackDT	1.1	SCS215a	20110121.091922	20110121.092416	single-task	8	0.013328	60	10	60-180	60	159	GapExp	0	49	2	6	0	distractor	1	560	720	38686	13.328	13.181	13.524
DTProbeTrack03	14	ProbeTrackDT	1.1	SCS215a	20110121.091922	20110121.092422	single-task	8	0.013328	60	10	60-180	60	127	GapExp	0	50	2	45	0	distractor	1	800	600	39286	13.328	12.963	13.685
DTProbeTrack03	14	ProbeTrackDT	1.1	SCS215a	20110121.091922	20110121.092437	single-task	8	0.013328	60	10	60-180	60	107	GapExp	0	51	2	9	0	distractor	1	494	753	40039	13.328	13.310	13.348
DTProbeTrack03	14	ProbeTrackDT	1.1	SCS215a	20110121.091922	20110121.092443	single-task	8	0.013328	60	10	60-180	60	148	GapExp	0	52	2	9	0	distractor	1	547	727	40766	13.328	13.064	13.603
DTProbeTrack03	14	ProbeTrackDT	1.1	SCS215a	20110121.091922	20110121.092449	single-task	8	0.013328	60	10	60-180	60	136	GapExp	0	53	2	45	1	target	1	640	680	41446	13.328	13.004	13.666
DTProbeTrack03	14	ProbeTrackDT	1.1	SCS215a	20110121.091922	20110121.092455	single-task	8	0.013328	60	10	60-180	60	103	GapExp	0	54	2	6	1	target	1	574	713	42159	13.328	13.109	13.561
DTProbeTrack03	14	ProbeTrackDT	1.1	SCS215a	20110121.091922	20110121.092501	single-task	8	0.013328	60	10	60-180	60	94	GapExp	0	55	2	6	1	target	1	467	767	42926	13.328	12.854	13.803
DTProbeTrack03	14	ProbeTrackDT	1.1	SCS215a	20110121.091922	20110121.092506	single-task	8	0.013328	60	10	60-180	60	75	GapExp	0	56	2	45	1	target	1	574	713	43639	13.328	12.853	13.792
DTProbeTrack03	14	ProbeTrackDT	1.1	SCS215a	20110121.091922	20110121.092511	single-task	8	0.013328	60	10	60-180	60	165	GapExp	0	57	2	3	1	target	1	507	747	44386	13.328	13.282	13.378
DTProbeTrack03	14	ProbeTrackDT	1.1	SCS215a	20110121.091922	20110121.092518	single-task	8	0.013328	60	10	60-180	60	66	GapExp	0	58	2	6	1	target	1	880	560	44946	13.328	12.880	13.766
DTProbeTrack03	14	ProbeTrackDT	1.1	SCS215a	20110121.091922	20110121.092523	single-task	8	0.013328	60	10	60-180	60	130	GapExp	0	59	2	45	0	distractor	1	693	654	45600	13.328	13.113	13.556
DTProbeTrack03	14	ProbeTrackDT	1.1	SCS215a	20110121.091922	20110121.092529	single-task	8	0.013328	60	10	60-180	60	155	GapExp	0	60	2	45	1	target	1	574	713	46313	13.328	12.935	13.715
DTProbeTrack03	14	ProbeTrackDT	1.1	SCS215a	20110121.091922	20110121.092536	single-task	8	0.013328	60	10	60-180	60	169	GapExp	0	61	2	1	1	target	1	694	653	46966	13.328	13.029	13.624
DTProbeTrack03	14	ProbeTrackDT	1.1	SCS215a	20110121.091922	20110121.092542	single-task	8	0.013328	60	10	60-180	60	178	GapExp	0	62	2	1	0	target	0	1093	-1000	45966	13.369	12.877	26.634
DTProbeTrack03	14	ProbeTrackDT	1.1	SCS215a	20110121.091922	20110121.092549	single-task	8	0.013328	60	10	60-180	60	116	GapExp	0	63	2	1	0	distractor	1	707	647	46613	13.328	13.307	13.345
DTProbeTrack03	14	ProbeTrackDT	1.1	SCS215a	20110121.091922	20110121.092555	single-task	8	0.013328	60	10	60-180	60	136	GapExp	0	64	2	1	0	distractor	1	680	660	47273	13.328	12.938	13.713
DTProbeTrack03	14	ProbeTrackDT	1.1	SCS215a	20110121.091922	20110121.092601	single-task	8	0.013328	60	10	60-180	60	114	GapExp	0	65	2	1	0	distractor	1	667	667	47940	13.486	12.985	39.979
DTProbeTrack03	14	ProbeTrackDT	1.1	SCS215a	20110121.091922	20110121.092607	single-task	8	0.013328	60	10	60-180	60	90	GapExp	0	66	2	1	0	distractor	1	587	707	48647	13.328	13.309	13.347
DTProbeTrack03	14	ProbeTrackDT	1.1	SCS215a	20110121.091922	20110121.092612	single-task	8	0.013328	60	10	60-180	60	89	GapExp	0	67	2	45	1	target	1	480	760	49407	13.328	13.103	13.561
DTProbeTrack03	14	ProbeTrackDT	1.1	SCS215a	20110121.091922	20110121.092618	single-task	8	0.013328	60	10	60-180	60	163	GapExp	0	68	2	45	1	target	1	587	707	50114	13.328	13.114	13.541
DTProbeTrack03	14	ProbeTrackDT	1.1	SCS215a	20110121.091922	20110121.092624	single-task	8	0.013328	60	10	60-180	60	74	GapExp	0	69	2	9	1	target	1	547	727	50841	13.328	13.307	13.355
DTProbeTrack03	14	ProbeTrackDT	1.1	SCS215a	20110121.091922	20110121.092629	single-task	8	0.013328	60	10	60-180	60	115	GapExp	0	70	2	6	1	target	1	520	740	51581	13.328	12.889	13.768
DTProbeTrack03	14	ProbeTrackDT	1.1	SCS215a	20110121.091922	20110121.092635	single-task	8	0.013328	60	10	60-180	60	106	GapExp	0	71	2	6	0	distractor	1	614	693	52274	13.328	12.974	13.688
DTProbeTrack03	14	ProbeTrackDT	1.1	SCS215a	20110121.091922	20110121.092640	single-task	8	0.013328	60	10	60-180	60	114	GapExp	0	72	2	3	1	target	1	733	634	52908	13.328	12.867	13.791
DTProbeTrack03	14	ProbeTrackDT	1.1	SCS215a	20110121.091922	20110121.092646	single-task	8	0.013328	60	10	60-180	60	173	GapExp	0	73	2	6	1	target	1	467	767	53675	13.328	13.104	13.564
DTProbeTrack03	14	ProbeTrackDT	1.1	SCS215a	20110121.091922	20110121.092652	single-task	8	0.013328	60	10	60-180	60	89	GapExp	0	74	2	9	0	distractor	1	693	654	54329	13.328	13.013	13.646
DTProbeTrack03	14	ProbeTrackDT	1.1	SCS215a	20110121.091922	20110121.092658	single-task	8	0.013328	60	10	60-180	60	112	GapExp	0	75	2	9	1	target	1	534	733	55062	13.328	12.859	13.796
DTProbeTrack03	14	ProbeTrackDT	1.1	SCS215a	20110121.091922	20110121.092703	single-task	8	0.013328	60	10	60-180	60	136	GapExp	0	76	2	1	0	distractor	1	614	693	55755	13.328	12.902	13.768
DTProbeTrack03	14	ProbeTrackDT	1.1	SCS215a	20110121.091922	20110121.092709	single-task	8	0.013328	60	10	60-180	60	127	GapExp	0	77	2	3	1	target	1	454	773	56528	13.328	13.101	13.568
DTProbeTrack03	14	ProbeTrackDT	1.1	SCS215a	20110121.091922	20110121.092715	single-task	8	0.013328	60	10	60-180	60	122	GapExp	0	78	2	6	0	distractor	1	547	727	57255	13.328	13.308	13.351
DTProbeTrack03	14	ProbeTrackDT	1.1	SCS215a	20110121.091922	20110121.092721	single-task	8	0.013328	60	10	60-180	60	162	GapExp	0	79	2	3	0	distractor	1	560	720	57975	13.328	12.902	13.761
DTProbeTrack03	14	ProbeTrackDT	1.1	SCS215a	20110121.091922	20110121.092727	single-task	8	0.013328	60	10	60-180	60	77	GapExp	0	80	2	3	0	distractor	1	667	667	58642	13.328	13.116	13.531
DTProbeTrack03	14	ProbeTrackDT	1.1	SCS215a	20110121.091922	20110121.092732	single-task	8	0.013328	60	10	60-180	60	162	GapExp	0	81	2	3	0	distractor	1	587	707	59349	13.328	12.947	13.703
DTProbeTrack03	14	ProbeTrackDT	1.1	SCS215a	20110121.091922	20110121.092738	single-task	8	0.013328	60	10	60-180	60	161	GapExp	0	82	2	9	0	distractor	1	773	614	59963	13.328	13.104	13.560
DTProbeTrack03	14	ProbeTrackDT	1.1	SCS215a	20110121.091922	20110121.092745	single-task	8	0.013328	60	10	60-180	60	174	GapExp	0	83	2	9	1	target	1	747	627	60590	13.328	12.866	13.790
DTProbeTrack03	14	ProbeTrackDT	1.1	SCS215a	20110121.091922	20110121.092751	single-task	8	0.013328	60	10	60-180	60	134	GapExp	0	84	2	1	0	target	0	547	-1000	59590	13.328	13.104	13.553
DTProbeTrack03	14	ProbeTrackDT	1.1	SCS215a	20110121.091922	20110121.092757	single-task	8	0.013328	60	10	60-180	60	101	GapExp	0	85	2	9	1	target	1	547	727	60317	13.328	13.119	13.551
DTProbeTrack03	14	ProbeTrackDT	1.1	SCS215a	20110121.091922	20110121.092802	single-task	8	0.013328	60	10	60-180	60	85	GapExp	0	86	2	6	0	distractor	1	1546	227	60544	13.328	13.039	13.622
DTProbeTrack03	14	ProbeTrackDT	1.1	SCS215a	20110121.091922	20110121.092809	single-task	8	0.013328	60	10	60-180	60	90	GapExp	0	87	2	3	1	target	1	680	660	61204	13.328	12.893	13.762
DTProbeTrack03	14	ProbeTrackDT	1.1	SCS215a	20110121.091922	20110121.092814	single-task	8	0.013328	60	10	60-180	60	172	GapExp	0	88	2	45	0	distractor	1	547	727	61931	13.328	13.308	13.349
DTProbeTrack03	14	ProbeTrackDT	1.1	SCS215a	20110121.091922	20110121.092821	single-task	8	0.013328	60	10	60-180	60	80	GapExp	0	89	2	9	1	target	1	640	680	62611	13.387	13.291	26.634
DTProbeTrack03	14	ProbeTrackDT	1.1	SCS215a	20110121.091922	20110121.092826	single-task	8	0.013328	60	10	60-180	60	171	GapExp	0	90	2	6	1	target	1	667	667	63278	13.328	12.857	13.779
DTProbeTrack03	14	ProbeTrackDT	1.1	SCS215a	20110121.091922	20110121.092833	single-task	8	0.013328	60	10	60-180	60	64	GapExp	0	91	2	45	0	distractor	1	720	640	63918	13.328	13.115	13.547
DTProbeTrack03	14	ProbeTrackDT	1.1	SCS215a	20110121.091922	20110121.092838	single-task	8	0.013328	60	10	60-180	60	94	GapExp	0	92	2	3	1	target	1	507	747	64665	13.328	12.830	13.847
DTProbeTrack03	14	ProbeTrackDT	1.1	SCS215a	20110121.091922	20110121.092843	single-task	8	0.013328	60	10	60-180	60	66	GapExp	0	93	2	6	1	target	1	893	554	65219	13.328	12.893	13.778
DTProbeTrack03	14	ProbeTrackDT	1.1	SCS215a	20110121.091922	20110121.092849	single-task	8	0.013328	60	10	60-180	60	103	GapExp	0	94	2	1	1	target	1	480	760	65979	13.328	13.109	13.541
DTProbeTrack03	14	ProbeTrackDT	1.1	SCS215a	20110121.091922	20110121.092854	single-task	8	0.013328	60	10	60-180	60	63	GapExp	0	95	2	45	1	target	1	613	694	66673	13.328	13.310	13.354
DTProbeTrack03	14	ProbeTrackDT	1.1	SCS215a	20110121.091922	20110121.092859	single-task	8	0.013328	60	10	60-180	60	73	GapExp	0	96	2	9	1	target	1	813	594	67267	13.328	12.927	13.718
DTProbeTrack03	14	ProbeTrackDT	1.1	SCS215a	20110121.091922	20110121.092905	single-task	8	0.013328	60	10	60-180	60	174	GapExp	0	97	2	6	0	distractor	1	454	773	68040	13.328	13.286	13.368
DTProbeTrack03	14	ProbeTrackDT	1.1	SCS215a	20110121.091922	20110121.092911	single-task	8	0.013328	60	10	60-180	60	103	GapExp	0	98	2	1	1	target	1	1053	474	68514	13.328	12.904	13.746
DTProbeTrack03	14	ProbeTrackDT	1.1	SCS215a	20110121.091922	20110121.092917	single-task	8	0.013328	60	10	60-180	60	63	GapExp	0	99	2	6	1	target	1	1027	487	69001	13.328	12.859	13.796
DTProbeTrack03	14	ProbeTrackDT	1.1	SCS215a	20110121.091922	20110121.092922	single-task	8	0.013328	60	10	60-180	60	146	GapExp	0	100	2	1	0	target	0	1027	-1000	68001	13.373	12.885	26.656
DTProbeTrack03	14	ProbeTrackDT	1.1	SCS215a	20110121.091922	20110121.092936	single-task	8	0.013328	60	10	60-180	60	133	GapExp	0	101	2	9	0	target	0	627	-1000	67001	13.328	13.106	13.552
DTProbeTrack03	14	ProbeTrackDT	1.1	SCS215a	20110121.091922	20110121.092942	single-task	8	0.013328	60	10	60-180	60	61	GapExp	0	102	2	45	0	83	-3	613	-1000	66001	13.328	13.053	13.596
DTProbeTrack03	14	ProbeTrackDT	1.1	SCS215a	20110121.091922	20110121.092948	single-task	8	0.013328	60	10	60-180	60	87	GapExp	0	103	2	45	1	target	1	1240	380	66381	13.328	13.088	13.551
DTProbeTrack03	14	ProbeTrackDT	1.1	SCS215a	20110121.091922	20110121.092954	single-task	8	0.013328	60	10	60-180	60	67	GapExp	0	104	2	1	1	target	1	654	673	67054	13.328	13.002	13.657
DTProbeTrack03	14	ProbeTrackDT	1.1	SCS215a	20110121.091922	20110121.092959	single-task	8	0.013328	60	10	60-180	60	146	GapExp	0	105	2	1	0	target	0	840	-1000	66054	13.328	13.308	13.350
DTProbeTrack03	14	ProbeTrackDT	1.1	SCS215a	20110121.091922	20110121.093006	single-task	8	0.013328	60	10	60-180	60	173	GapExp	0	106	2	45	0	distractor	1	627	687	66741	13.328	12.862	13.782
DTProbeTrack03	14	ProbeTrackDT	1.1	SCS215a	20110121.091922	20110121.093013	single-task	8	0.013328	60	10	60-180	60	125	GapExp	0	107	2	3	0	distractor	1	613	694	67435	13.328	13.306	13.349
DTProbeTrack03	14	ProbeTrackDT	1.1	SCS215a	20110121.091922	20110121.093018	single-task	8	0.013328	60	10	60-180	60	154	GapExp	0	108	2	3	0	distractor	1	534	733	68168	13.328	13.108	13.547
DTProbeTrack03	14	ProbeTrackDT	1.1	SCS215a	20110121.091922	20110121.093024	single-task	8	0.013328	60	10	60-180	60	67	GapExp	0	109	2	9	1	target	1	733	634	68802	13.389	12.876	27.088
DTProbeTrack03	14	ProbeTrackDT	1.1	SCS215a	20110121.091922	20110121.093030	single-task	8	0.013328	60	10	60-180	60	93	GapExp	0	110	2	9	0	distractor	1	414	793	69595	13.328	13.104	13.565
DTProbeTrack03	14	ProbeTrackDT	1.1	SCS215a	20110121.091922	20110121.093035	single-task	8	0.013328	60	10	60-180	60	62	GapExp	0	111	2	6	0	distractor	1	734	633	70228	13.328	12.892	13.770
DTProbeTrack03	14	ProbeTrackDT	1.1	SCS215a	20110121.091922	20110121.093040	single-task	8	0.013328	60	10	60-180	60	94	GapExp	0	112	2	45	1	distractor	0	840	-1000	69228	13.328	13.101	13.555
DTProbeTrack03	14	ProbeTrackDT	1.1	SCS215a	20110121.091922	20110121.093046	single-task	8	0.013328	60	10	60-180	60	146	GapExp	0	113	2	3	1	target	1	600	700	69928	13.328	12.962	13.687
DTProbeTrack03	14	ProbeTrackDT	1.1	SCS215a	20110121.091922	20110121.093052	single-task	8	0.013328	60	10	60-180	60	115	GapExp	0	114	2	3	1	target	1	480	760	70688	13.383	13.076	26.871
DTProbeTrack03	14	ProbeTrackDT	1.1	SCS215a	20110121.091922	20110121.093058	single-task	8	0.013328	60	10	60-180	60	70	GapExp	0	115	2	6	0	target	0	720	-1000	69688	13.328	12.847	13.809
DTProbeTrack03	14	ProbeTrackDT	1.1	SCS215a	20110121.091922	20110121.093103	single-task	8	0.013328	60	10	60-180	60	137	GapExp	0	116	2	9	1	target	1	601	700	70388	13.424	12.896	39.972
DTProbeTrack03	14	ProbeTrackDT	1.1	SCS215a	20110121.091922	20110121.093109	single-task	8	0.013328	60	10	60-180	60	178	GapExp	0	117	2	3	0	target	0	706	-1000	69388	13.328	12.834	13.804
DTProbeTrack03	14	ProbeTrackDT	1.1	SCS215a	20110121.091922	20110121.093115	single-task	8	0.013328	60	10	60-180	60	111	GapExp	0	118	2	3	0	distractor	1	947	527	69915	13.328	13.106	13.541
DTProbeTrack03	14	ProbeTrackDT	1.1	SCS215a	20110121.091922	20110121.093121	single-task	8	0.013328	60	10	60-180	60	128	GapExp	0	119	2	9	0	distractor	1	574	713	70628	13.328	13.086	13.559
DTProbeTrack03	14	ProbeTrackDT	1.1	SCS215a	20110121.091922	20110121.093127	single-task	8	0.013328	60	10	60-180	60	142	GapExp	0	120	2	6	1	target	1	547	727	71355	13.328	13.098	13.545
DTProbeTrack03	14	ProbeTrackDT	1.1	SCS215a	20110121.091922	20110121.093133	single-task	8	0.013328	60	10	60-180	60	110	GapExp	0	121	2	9	1	target	1	747	627	71982	13.328	13.031	13.625
DTProbeTrack03	14	ProbeTrackDT	1.1	SCS215a	20110121.091922	20110121.093139	single-task	8	0.013328	60	10	60-180	60	106	GapExp	0	122	2	9	0	distractor	1	667	667	72649	13.328	13.077	13.581
DTProbeTrack03	14	ProbeTrackDT	1.1	SCS215a	20110121.091922	20110121.093144	single-task	8	0.013328	60	10	60-180	60	76	GapExp	0	123	2	9	0	distractor	1	440	780	73429	13.328	13.310	13.346
DTProbeTrack03	14	ProbeTrackDT	1.1	SCS215a	20110121.091922	20110121.093149	single-task	8	0.013328	60	10	60-180	60	129	GapExp	0	124	2	1	0	distractor	1	454	773	74202	13.328	13.099	13.556
DTProbeTrack03	14	ProbeTrackDT	1.1	SCS215a	20110121.091922	20110121.093155	single-task	8	0.013328	60	10	60-180	60	149	GapExp	0	125	2	9	1	target	1	560	720	74922	13.328	13.121	13.554
DTProbeTrack03	14	ProbeTrackDT	1.1	SCS215a	20110121.091922	20110121.093201	single-task	8	0.013328	60	10	60-180	60	166	GapExp	0	126	2	1	1	target	1	574	713	75635	13.328	12.929	13.719
DTProbeTrack03	14	ProbeTrackDT	1.1	SCS215a	20110121.091922	20110121.093207	single-task	8	0.013328	60	10	60-180	60	72	GapExp	0	127	2	9	1	target	1	520	740	76375	13.328	12.858	13.794
DTProbeTrack03	14	ProbeTrackDT	1.1	SCS215a	20110121.091922	20110121.093212	single-task	8	0.013328	60	10	60-180	60	122	GapExp	0	128	2	45	1	target	1	1013	494	76869	13.328	12.971	13.679
DTProbeTrack03	14	ProbeTrackDT	1.1	SCS215a	20110121.091922	20110121.093219	single-task	8	0.013328	60	10	60-180	60	132	GapExp	0	129	2	6	1	target	1	494	753	77622	13.328	12.979	13.659
DTProbeTrack03	14	ProbeTrackDT	1.1	SCS215a	20110121.091922	20110121.093225	single-task	8	0.013328	60	10	60-180	60	112	GapExp	0	130	2	3	0	distractor	1	680	660	78282	13.328	13.089	13.558
DTProbeTrack03	14	ProbeTrackDT	1.1	SCS215a	20110121.091922	20110121.093231	single-task	8	0.013328	60	10	60-180	60	122	GapExp	0	131	2	9	1	distractor	0	827	-1000	77282	13.328	12.868	13.777
DTProbeTrack03	14	ProbeTrackDT	1.1	SCS215a	20110121.091922	20110121.093237	single-task	8	0.013328	60	10	60-180	60	116	GapExp	0	132	2	9	1	target	1	467	767	78049	13.328	12.875	13.762
DTProbeTrack03	14	ProbeTrackDT	1.1	SCS215a	20110121.091922	20110121.093242	single-task	8	0.013328	60	10	60-180	60	94	GapExp	0	133	2	45	0	distractor	1	600	700	78749	13.328	13.259	13.378
DTProbeTrack03	14	ProbeTrackDT	1.1	SCS215a	20110121.091922	20110121.093248	single-task	8	0.013328	60	10	60-180	60	153	GapExp	0	134	2	6	1	target	1	480	760	79509	13.328	12.870	13.774
DTProbeTrack03	14	ProbeTrackDT	1.1	SCS215a	20110121.091922	20110121.093254	single-task	8	0.013328	60	10	60-180	60	179	GapExp	0	135	2	6	0	distractor	1	467	767	80276	13.328	12.861	13.780
DTProbeTrack03	14	ProbeTrackDT	1.1	SCS215a	20110121.091922	20110121.093301	single-task	8	0.013328	60	10	60-180	60	88	GapExp	0	136	2	9	0	distractor	1	627	687	80963	13.328	12.952	13.705
DTProbeTrack03	14	ProbeTrackDT	1.1	SCS215a	20110121.091922	20110121.093306	single-task	8	0.013328	60	10	60-180	60	161	GapExp	0	137	2	3	0	distractor	1	640	680	81643	13.328	12.877	13.787
DTProbeTrack03	14	ProbeTrackDT	1.1	SCS215a	20110121.091922	20110121.093312	single-task	8	0.013328	60	10	60-180	60	136	GapExp	0	138	2	45	1	target	1	613	694	82337	13.328	12.923	13.734
DTProbeTrack03	14	ProbeTrackDT	1.1	SCS215a	20110121.091922	20110121.093319	single-task	8	0.013328	60	10	60-180	60	171	GapExp	0	139	2	45	1	target	1	574	713	83050	13.328	13.306	13.358
DTProbeTrack03	14	ProbeTrackDT	1.1	SCS215a	20110121.091922	20110121.093325	single-task	8	0.013328	60	10	60-180	60	140	GapExp	0	140	2	3	1	target	1	574	713	83763	13.328	13.107	13.552
DTProbeTrack03	14	ProbeTrackDT	1.1	SCS215a	20110121.091922	20110121.093331	single-task	8	0.013328	60	10	60-180	60	77	GapExp	0	141	2	3	0	target	0	1053	-1000	82763	13.328	13.309	13.360
DTProbeTrack03	14	ProbeTrackDT	1.1	SCS215a	20110121.091922	20110121.093337	single-task	8	0.013328	60	10	60-180	60	87	GapExp	0	142	2	9	0	distractor	1	787	607	83370	13.328	12.858	13.803
DTProbeTrack03	14	ProbeTrackDT	1.1	SCS215a	20110121.091922	20110121.093342	single-task	8	0.013328	60	10	60-180	60	171	GapExp	0	143	2	1	0	target	0	440	-1000	82370	13.328	13.309	13.348
DTProbeTrack03	14	ProbeTrackDT	1.1	SCS215a	20110121.091922	20110121.093349	single-task	8	0.013328	60	10	60-180	60	163	GapExp	0	144	2	1	1	target	1	560	720	83090	13.328	13.091	13.558
DTProbeTrack03	14	ProbeTrackDT	1.1	SCS215a	20110121.091922	20110121.093355	single-task	8	0.013328	60	10	60-180	60	144	GapExp	0	145	2	9	1	distractor	0	480	-1000	82090	13.328	12.988	13.781
DTProbeTrack03	14	ProbeTrackDT	1.1	SCS215a	20110121.091922	20110121.093401	single-task	8	0.013328	60	10	60-180	60	162	GapExp	0	146	2	1	1	target	1	560	720	82810	13.328	12.930	13.717
DTProbeTrack03	14	ProbeTrackDT	1.1	SCS215a	20110121.091922	20110121.093407	single-task	8	0.013328	60	10	60-180	60	87	GapExp	0	147	2	6	1	target	1	507	747	83557	13.328	12.956	13.687
DTProbeTrack03	14	ProbeTrackDT	1.1	SCS215a	20110121.091922	20110121.093412	single-task	8	0.013328	60	10	60-180	60	83	GapExp	0	148	2	6	0	distractor	1	1053	474	84031	13.328	12.891	13.769
DTProbeTrack03	14	ProbeTrackDT	1.1	SCS215a	20110121.091922	20110121.093418	single-task	8	0.013328	60	10	60-180	60	179	GapExp	0	149	2	1	0	target	0	640	-1000	83031	13.328	12.883	13.775
DTProbeTrack03	14	ProbeTrackDT	1.1	SCS215a	20110121.091922	20110121.093424	single-task	8	0.013328	60	10	60-180	60	140	GapExp	0	150	2	3	1	target	1	494	753	83784	13.328	13.055	13.611
DTProbeTrack03	14	ProbeTrackDT	1.1	SCS215a	20110121.091922	20110121.093435	single-task	8	0.013328	60	10	60-180	60	150	GapExp	0	151	2	9	0	distractor	1	520	740	84524	13.328	12.893	13.769
DTProbeTrack03	14	ProbeTrackDT	1.1	SCS215a	20110121.091922	20110121.093441	single-task	8	0.013328	60	10	60-180	60	113	GapExp	0	152	2	3	0	target	0	534	-1000	83524	13.328	13.281	13.361
DTProbeTrack03	14	ProbeTrackDT	1.1	SCS215a	20110121.091922	20110121.093447	single-task	8	0.013328	60	10	60-180	60	151	GapExp	0	153	2	9	1	target	1	574	713	84237	13.328	13.307	13.351
DTProbeTrack03	14	ProbeTrackDT	1.1	SCS215a	20110121.091922	20110121.093453	single-task	8	0.013328	60	10	60-180	60	146	GapExp	0	154	2	6	1	target	1	507	747	84984	13.328	12.882	13.776
DTProbeTrack03	14	ProbeTrackDT	1.1	SCS215a	20110121.091922	20110121.093459	single-task	8	0.013328	60	10	60-180	60	67	GapExp	0	155	2	3	1	target	1	600	700	85684	13.328	13.299	13.365
DTProbeTrack03	14	ProbeTrackDT	1.1	SCS215a	20110121.091922	20110121.093504	single-task	8	0.013328	60	10	60-180	60	83	GapExp	0	156	2	45	0	distractor	1	627	687	86371	13.328	13.107	13.553
DTProbeTrack03	14	ProbeTrackDT	1.1	SCS215a	20110121.091922	20110121.093510	single-task	8	0.013328	60	10	60-180	60	71	GapExp	0	157	2	3	1	target	1	574	713	87084	13.328	13.036	13.608
DTProbeTrack03	14	ProbeTrackDT	1.1	SCS215a	20110121.091922	20110121.093515	single-task	8	0.013328	60	10	60-180	60	67	GapExp	0	158	2	3	0	distractor	1	627	687	87771	13.328	13.305	13.353
DTProbeTrack03	14	ProbeTrackDT	1.1	SCS215a	20110121.091922	20110121.093520	single-task	8	0.013328	60	10	60-180	60	162	GapExp	0	159	2	3	1	target	1	494	753	88524	13.328	12.855	13.802
DTProbeTrack03	14	ProbeTrackDT	1.1	SCS215a	20110121.091922	20110121.093526	single-task	8	0.013328	60	10	60-180	60	144	GapExp	0	160	2	6	0	distractor	1	680	660	89184	13.328	12.895	13.768
DTProbeTrack03	14	ProbeTrackDT	1.1	SCS215a	20110121.091922	20110121.093532	single-task	8	0.013328	60	10	60-180	60	178	GapExp	0	161	2	1	1	target	1	520	740	89924	13.328	13.308	13.348
DTProbeTrack03	14	ProbeTrackDT	1.1	SCS215a	20110121.091922	20110121.093538	single-task	8	0.013328	60	10	60-180	60	115	GapExp	0	162	2	1	1	target	1	547	727	90651	13.328	13.104	13.563
DTProbeTrack03	14	ProbeTrackDT	1.1	SCS215a	20110121.091922	20110121.093544	single-task	8	0.013328	60	10	60-180	60	170	GapExp	0	163	2	6	1	target	1	747	627	91278	13.328	13.307	13.350
DTProbeTrack03	14	ProbeTrackDT	1.1	SCS215a	20110121.091922	20110121.093550	single-task	8	0.013328	60	10	60-180	60	76	GapExp	0	164	2	45	0	distractor	1	627	687	91965	13.328	13.307	13.347
DTProbeTrack03	14	ProbeTrackDT	1.1	SCS215a	20110121.091922	20110121.093556	single-task	8	0.013328	60	10	60-180	60	101	GapExp	0	165	2	6	0	distractor	1	520	740	92705	13.328	13.308	13.348
DTProbeTrack03	14	ProbeTrackDT	1.1	SCS215a	20110121.091922	20110121.093601	single-task	8	0.013328	60	10	60-180	60	85	GapExp	0	166	2	45	0	distractor	1	587	707	93412	13.328	13.095	13.565
DTProbeTrack03	14	ProbeTrackDT	1.1	SCS215a	20110121.091922	20110121.093607	single-task	8	0.013328	60	10	60-180	60	155	GapExp	0	167	2	9	0	distractor	1	760	620	94032	13.328	12.862	13.802
DTProbeTrack03	14	ProbeTrackDT	1.1	SCS215a	20110121.091922	20110121.093613	single-task	8	0.013328	60	10	60-180	60	139	GapExp	0	168	2	6	0	distractor	1	640	680	94712	13.328	12.839	13.830
DTProbeTrack03	14	ProbeTrackDT	1.1	SCS215a	20110121.091922	20110121.093619	single-task	8	0.013328	60	10	60-180	60	152	GapExp	0	169	2	45	1	target	1	1560	220	94932	13.328	12.920	13.728
DTProbeTrack03	14	ProbeTrackDT	1.1	SCS215a	20110121.091922	20110121.093627	single-task	8	0.013328	60	10	60-180	60	158	GapExp	0	170	2	6	0	distractor	1	614	693	95625	13.328	12.965	13.692
DTProbeTrack03	14	ProbeTrackDT	1.1	SCS215a	20110121.091922	20110121.093633	single-task	8	0.013328	60	10	60-180	60	108	GapExp	0	171	2	6	0	target	0	867	-1000	94625	13.328	12.975	13.684
DTProbeTrack03	14	ProbeTrackDT	1.1	SCS215a	20110121.091922	20110121.093639	single-task	8	0.013328	60	10	60-180	60	173	GapExp	0	172	2	1	0	distractor	1	813	594	95219	13.328	13.306	13.346
DTProbeTrack03	14	ProbeTrackDT	1.1	SCS215a	20110121.091922	20110121.093646	single-task	8	0.013328	60	10	60-180	60	122	GapExp	0	173	2	9	1	target	1	667	667	95886	13.328	13.027	13.617
DTProbeTrack03	14	ProbeTrackDT	1.1	SCS215a	20110121.091922	20110121.093651	single-task	8	0.013328	60	10	60-180	60	74	GapExp	0	174	2	3	0	distractor	1	1120	440	96326	13.328	12.933	13.710
DTProbeTrack03	14	ProbeTrackDT	1.1	SCS215a	20110121.091922	20110121.093657	single-task	8	0.013328	60	10	60-180	60	154	GapExp	0	175	2	6	1	target	1	480	760	97086	13.328	12.903	13.753
DTProbeTrack03	14	ProbeTrackDT	1.1	SCS215a	20110121.091922	20110121.093703	single-task	8	0.013328	60	10	60-180	60	151	GapExp	0	176	2	6	1	target	1	640	680	97766	13.328	12.863	13.788
DTProbeTrack03	14	ProbeTrackDT	1.1	SCS215a	20110121.091922	20110121.093709	single-task	8	0.013328	60	10	60-180	60	137	GapExp	0	177	2	6	0	distractor	1	547	727	98493	13.328	12.965	13.688
DTProbeTrack03	14	ProbeTrackDT	1.1	SCS215a	20110121.091922	20110121.093715	single-task	8	0.013328	60	10	60-180	60	142	GapExp	0	178	2	9	0	distractor	1	880	560	99053	13.328	12.960	13.695
DTProbeTrack03	14	ProbeTrackDT	1.1	SCS215a	20110121.091922	20110121.093722	single-task	8	0.013328	60	10	60-180	60	115	GapExp	0	179	2	1	0	distractor	1	547	727	99780	13.328	13.307	13.348
DTProbeTrack03	14	ProbeTrackDT	1.1	SCS215a	20110121.091922	20110121.093727	single-task	8	0.013328	60	10	60-180	60	176	GapExp	0	180	2	9	0	distractor	1	574	713	100493	13.328	12.900	13.759
DTProbeTrack03	14	ProbeTrackDT	1.1	SCS215a	20110121.091922	20110121.093734	single-task	8	0.013328	60	10	60-180	60	165	GapExp	0	181	2	1	1	target	1	680	660	101153	13.328	12.973	13.699
DTProbeTrack03	14	ProbeTrackDT	1.1	SCS215a	20110121.091922	20110121.093740	single-task	8	0.013328	60	10	60-180	60	90	GapExp	0	182	2	45	0	distractor	1	587	707	101860	13.328	12.948	13.695
DTProbeTrack03	14	ProbeTrackDT	1.1	SCS215a	20110121.091922	20110121.093746	single-task	8	0.013328	60	10	60-180	60	167	GapExp	0	183	2	45	1	target	1	640	680	102540	13.328	13.299	13.350
DTProbeTrack03	14	ProbeTrackDT	1.1	SCS215a	20110121.091922	20110121.093753	single-task	8	0.013328	60	10	60-180	60	110	GapExp	0	184	2	45	0	distractor	1	747	627	103167	13.328	12.917	13.734
DTProbeTrack03	14	ProbeTrackDT	1.1	SCS215a	20110121.091922	20110121.093759	single-task	8	0.013328	60	10	60-180	60	143	GapExp	0	185	2	3	1	target	1	480	760	103927	13.328	13.093	13.786
DTProbeTrack03	14	ProbeTrackDT	1.1	SCS215a	20110121.091922	20110121.093805	single-task	8	0.013328	60	10	60-180	60	136	GapExp	0	186	2	45	0	distractor	1	840	580	104507	13.328	12.948	13.716
DTProbeTrack03	14	ProbeTrackDT	1.1	SCS215a	20110121.091922	20110121.093811	single-task	8	0.013328	60	10	60-180	60	158	GapExp	0	187	2	3	0	distractor	1	573	714	105221	13.328	12.995	13.660
DTProbeTrack03	14	ProbeTrackDT	1.1	SCS215a	20110121.091922	20110121.093818	single-task	8	0.013328	60	10	60-180	60	78	GapExp	0	188	2	9	1	target	1	627	687	105908	13.328	13.012	13.652
DTProbeTrack03	14	ProbeTrackDT	1.1	SCS215a	20110121.091922	20110121.093823	single-task	8	0.013328	60	10	60-180	60	160	GapExp	0	189	2	9	1	target	1	494	753	106661	13.328	12.852	13.807
DTProbeTrack03	14	ProbeTrackDT	1.1	SCS215a	20110121.091922	20110121.093829	single-task	8	0.013328	60	10	60-180	60	178	GapExp	0	190	2	45	1	target	1	560	720	107381	13.328	12.939	13.714
DTProbeTrack03	14	ProbeTrackDT	1.1	SCS215a	20110121.091922	20110121.093836	single-task	8	0.013328	60	10	60-180	60	102	GapExp	0	191	2	6	0	target	0	640	-1000	106381	13.328	13.105	13.567
DTProbeTrack03	14	ProbeTrackDT	1.1	SCS215a	20110121.091922	20110121.093841	single-task	8	0.013328	60	10	60-180	60	125	GapExp	0	192	2	45	0	distractor	1	507	747	107128	13.328	12.858	13.798
DTProbeTrack03	14	ProbeTrackDT	1.1	SCS215a	20110121.091922	20110121.093848	single-task	8	0.013328	60	10	60-180	60	84	GapExp	0	193	2	3	0	distractor	1	547	727	107855	13.328	13.102	13.554
DTProbeTrack03	14	ProbeTrackDT	1.1	SCS215a	20110121.091922	20110121.093853	single-task	8	0.013328	60	10	60-180	60	180	GapExp	0	194	2	1	1	target	1	440	780	108635	13.328	12.893	13.771
DTProbeTrack03	14	ProbeTrackDT	1.1	SCS215a	20110121.091922	20110121.093859	single-task	8	0.013328	60	10	60-180	60	73	GapExp	0	195	2	45	1	target	1	534	733	109368	13.328	13.311	13.346
DTProbeTrack03	14	ProbeTrackDT	1.1	SCS215a	20110121.091922	20110121.093905	single-task	8	0.013328	60	10	60-180	60	113	GapExp	0	196	2	1	1	target	1	440	780	110148	13.328	13.308	13.352
DTProbeTrack03	14	ProbeTrackDT	1.1	SCS215a	20110121.091922	20110121.093910	single-task	8	0.013328	60	10	60-180	60	62	GapExp	0	197	2	3	1	target	1	440	780	110928	13.328	12.908	13.743
DTProbeTrack03	14	ProbeTrackDT	1.1	SCS215a	20110121.091922	20110121.093915	single-task	8	0.013328	60	10	60-180	60	107	GapExp	0	198	2	3	0	distractor	1	614	693	111621	13.328	12.930	13.726
DTProbeTrack03	14	ProbeTrackDT	1.1	SCS215a	20110121.091922	20110121.093920	single-task	8	0.013328	60	10	60-180	60	64	GapExp	0	199	2	1	0	distractor	1	574	713	112334	13.328	12.874	13.783
DTProbeTrack03	14	ProbeTrackDT	1.1	SCS215a	20110121.091922	20110121.093925	single-task	8	0.013328	60	10	60-180	60	177	GapExp	0	200	2	1	1	target	1	400	800	113134	13.328	12.940	13.710
DTProbeTrack03	14	ProbeTrackDT	1.1	SCS215a	20110121.091922	20110121.093937	single-task	8	0.013328	60	10	60-180	60	68	GapExp	0	201	2	1	1	target	1	494	753	113887	13.328	12.910	13.753
DTProbeTrack03	14	ProbeTrackDT	1.1	SCS215a	20110121.091922	20110121.093942	single-task	8	0.013328	60	10	60-180	60	103	GapExp	0	202	2	9	1	target	1	414	793	114680	13.328	13.309	13.347
DTProbeTrack03	14	ProbeTrackDT	1.1	SCS215a	20110121.091922	20110121.093947	single-task	8	0.013328	60	10	60-180	60	93	GapExp	0	203	2	1	1	target	1	400	800	115480	13.328	12.884	13.777
DTProbeTrack03	14	ProbeTrackDT	1.1	SCS215a	20110121.091922	20110121.093952	single-task	8	0.013328	60	10	60-180	60	165	GapExp	0	204	2	45	0	distractor	1	933	534	116014	13.328	12.908	13.757
DTProbeTrack03	14	ProbeTrackDT	1.1	SCS215a	20110121.091922	20110121.094000	single-task	8	0.013328	60	10	60-180	60	68	GapExp	0	205	2	6	0	distractor	1	760	620	116634	13.328	12.966	13.686
DTProbeTrack03	14	ProbeTrackDT	1.1	SCS215a	20110121.094355	20110121.094402	dt-generate	8	0.013328	60	10	60-180	60	69	GapPrac	1	1	2	9	0	target	0	4585	-1000	115634	13.328	12.958	13.698
DTProbeTrack03	14	ProbeTrackDT	1.1	SCS215a	20110121.094355	20110121.094411	dt-generate	8	0.013328	60	10	60-180	60	87	GapPrac	1	2	2	1	1	distractor	0	-13	-1000	114634	13.328	13.119	13.550
DTProbeTrack03	14	ProbeTrackDT	1.1	SCS215a	20110121.094355	20110121.094416	dt-generate	8	0.013328	60	10	60-180	60	152	GapPrac	1	3	2	6	0	target	0	1080	-1000	113634	13.328	12.847	13.819
DTProbeTrack03	14	ProbeTrackDT	1.1	SCS215a	20110121.094355	20110121.094422	dt-generate	8	0.013328	60	10	60-180	60	77	GapPrac	1	4	2	45	0	target	0	4558	-1000	112634	13.328	12.956	13.696
DTProbeTrack03	14	ProbeTrackDT	1.1	SCS215a	20110121.094355	20110121.094432	dt-generate	8	0.013328	60	10	60-180	60	102	GapPrac	1	5	2	6	1	target	1	0	1000	113634	13.328	12.862	13.802
DTProbeTrack03	14	ProbeTrackDT	1.1	SCS215a	20110121.094355	20110121.094437	dt-generate	8	0.013328	60	10	60-180	60	175	GapPrac	1	6	2	9	1	distractor	0	1626	-1000	112634	13.328	13.086	13.564
DTProbeTrack03	14	ProbeTrackDT	1.1	SCS215a	20110121.094355	20110121.094444	dt-generate	8	0.013328	60	10	60-180	60	118	GapPrac	1	7	2	9	1	target	1	440	780	113414	13.328	12.959	13.710
DTProbeTrack03	14	ProbeTrackDT	1.1	SCS215a	20110121.094355	20110121.094450	dt-generate	8	0.013328	60	10	60-180	60	158	GapPrac	1	8	2	45	1	target	1	494	753	114167	13.328	13.282	13.378
DTProbeTrack03	14	ProbeTrackDT	1.1	SCS215a	20110121.094355	20110121.094456	dt-generate	8	0.013328	60	10	60-180	60	73	GapPrac	1	9	2	1	0	target	0	587	-1000	113167	13.328	12.898	13.760
DTProbeTrack03	14	ProbeTrackDT	1.1	SCS215a	20110121.094355	20110121.094501	dt-generate	8	0.013328	60	10	60-180	60	159	GapPrac	1	10	2	9	0	distractor	1	1160	420	113587	13.328	13.300	13.351
DTProbeTrack03	14	ProbeTrackDT	1.1	SCS215a	20110121.094355	20110121.094508	dt-generate	8	0.013328	60	10	60-180	60	143	GapPrac	1	11	2	3	0	target	0	5638	-1000	112587	13.328	12.914	13.765
DTProbeTrack03	14	ProbeTrackDT	1.1	SCS215a	20110121.094355	20110121.094519	dt-generate	8	0.013328	60	10	60-180	60	147	GapPrac	1	12	2	3	1	distractor	0	1027	-1000	111587	13.328	13.092	13.563
DTProbeTrack03	14	ProbeTrackDT	1.1	SCS215a	20110121.094355	20110121.094526	dt-generate	8	0.013328	60	10	60-180	60	123	GapPrac	1	13	2	1	1	target	1	1413	294	111881	13.377	13.064	26.787
DTProbeTrack03	14	ProbeTrackDT	1.1	SCS215a	20110121.094355	20110121.094532	dt-generate	8	0.013328	60	10	60-180	60	110	GapPrac	1	14	2	6	0	target	0	1560	-1000	110881	13.328	12.908	13.773
DTProbeTrack03	14	ProbeTrackDT	1.1	SCS215a	20110121.094355	20110121.094539	dt-generate	8	0.013328	60	10	60-180	60	165	GapPrac	1	15	2	45	1	target	1	454	773	111654	13.328	12.852	13.792
DTProbeTrack03	14	ProbeTrackDT	1.1	SCS215a	20110121.094355	20110121.094546	dt-generate	8	0.013328	60	10	60-180	60	158	GapPrac	1	16	2	3	1	target	1	400	800	112454	13.328	12.898	13.763
DTProbeTrack03	14	ProbeTrackDT	1.1	SCS215a	20110121.094355	20110121.094552	dt-generate	8	0.013328	60	10	60-180	60	107	GapPrac	1	17	2	45	0	distractor	1	494	753	113207	13.328	12.968	13.693
DTProbeTrack03	14	ProbeTrackDT	1.1	SCS215a	20110121.094355	20110121.094558	dt-generate	8	0.013328	60	10	60-180	60	153	GapPrac	1	18	2	6	1	distractor	0	360	-1000	112207	13.328	13.299	13.350
DTProbeTrack03	14	ProbeTrackDT	1.1	SCS215a	20110121.094355	20110121.094603	dt-generate	8	0.013328	60	10	60-180	60	132	GapPrac	1	19	2	3	0	target	0	1413	-1000	111207	13.328	12.910	13.791
DTProbeTrack03	14	ProbeTrackDT	1.1	SCS215a	20110121.094355	20110121.094610	dt-generate	8	0.013328	60	10	60-180	60	145	GapPrac	1	20	2	1	0	distractor	1	4532	0	111207	13.328	12.884	13.775
DTProbeTrack03	14	ProbeTrackDT	1.1	SCS215a	20110121.094659	20110121.094704	dt-generate	8	0.013328	60	10	60-180	60	130	GapExp	1	1	2	6	0	distractor	1	707	647	111854	13.328	13.092	13.574
DTProbeTrack03	14	ProbeTrackDT	1.1	SCS215a	20110121.094659	20110121.094710	dt-generate	8	0.013328	60	10	60-180	60	91	GapExp	1	2	2	1	0	distractor	1	800	600	112454	13.328	13.278	13.384
DTProbeTrack03	14	ProbeTrackDT	1.1	SCS215a	20110121.094659	20110121.094715	dt-generate	8	0.013328	60	10	60-180	60	175	GapExp	1	3	2	3	1	target	1	629	686	113140	13.501	12.935	40.420
DTProbeTrack03	14	ProbeTrackDT	1.1	SCS215a	20110121.094659	20110121.094722	dt-generate	8	0.013328	60	10	60-180	60	122	GapExp	1	4	2	9	0	distractor	1	1280	360	113500	13.328	13.033	13.631
DTProbeTrack03	14	ProbeTrackDT	1.1	SCS215a	20110121.094659	20110121.094728	dt-generate	8	0.013328	60	10	60-180	60	112	GapExp	1	5	2	6	1	target	1	627	687	114187	13.328	12.849	13.775
DTProbeTrack03	14	ProbeTrackDT	1.1	SCS215a	20110121.094659	20110121.094734	dt-generate	8	0.013328	60	10	60-180	60	129	GapExp	0	6	2	9	0	distractor	1	427	787	114974	13.380	13.109	26.648
DTProbeTrack03	14	ProbeTrackDT	1.1	SCS215a	20110121.094659	20110121.094740	dt-generate	8	0.013328	60	10	60-180	60	129	GapExp	0	7	2	9	0	target	0	813	-1000	113974	13.328	12.865	13.746
DTProbeTrack03	14	ProbeTrackDT	1.1	SCS215a	20110121.094659	20110121.094746	dt-generate	8	0.013328	60	10	60-180	60	134	GapExp	0	8	2	6	1	distractor	0	667	-1000	112974	13.328	12.850	13.800
DTProbeTrack03	14	ProbeTrackDT	1.1	SCS215a	20110121.094659	20110121.094752	dt-generate	8	0.013328	60	10	60-180	60	145	GapExp	0	9	2	9	0	distractor	1	733	634	113608	13.328	12.887	13.747
DTProbeTrack03	14	ProbeTrackDT	1.1	SCS215a	20110121.094659	20110121.094758	dt-generate	8	0.013328	60	10	60-180	60	126	GapExp	0	10	2	1	1	target	1	1840	80	113688	13.328	13.000	13.669
DTProbeTrack03	14	ProbeTrackDT	1.1	SCS215a	20110121.094659	20110121.094805	dt-generate	8	0.013328	60	10	60-180	60	111	GapExp	0	11	2	6	0	distractor	1	1373	314	114002	13.328	12.860	13.800
DTProbeTrack03	14	ProbeTrackDT	1.1	SCS215a	20110121.094659	20110121.094811	dt-generate	8	0.013328	60	10	60-180	60	129	GapExp	0	12	2	3	0	distractor	1	653	674	114676	13.328	12.864	13.802
DTProbeTrack03	14	ProbeTrackDT	1.1	SCS215a	20110121.094659	20110121.094817	dt-generate	8	0.013328	60	10	60-180	60	118	GapExp	0	13	2	45	0	distractor	1	640	680	115356	13.372	12.920	26.579
DTProbeTrack03	14	ProbeTrackDT	1.1	SCS215a	20110121.094659	20110121.094824	dt-generate	8	0.013328	60	10	60-180	60	75	GapExp	0	14	2	9	1	target	1	773	614	115970	13.328	12.887	13.774
DTProbeTrack03	14	ProbeTrackDT	1.1	SCS215a	20110121.094659	20110121.094829	dt-generate	8	0.013328	60	10	60-180	60	151	GapExp	0	15	2	3	0	target	0	1186	-1000	114970	13.328	12.911	13.748
DTProbeTrack03	14	ProbeTrackDT	1.1	SCS215a	20110121.094659	20110121.094835	dt-generate	8	0.013328	60	10	60-180	60	87	GapExp	0	16	2	3	0	distractor	1	574	713	115683	13.328	13.104	13.545
DTProbeTrack03	14	ProbeTrackDT	1.1	SCS215a	20110121.094659	20110121.094841	dt-generate	8	0.013328	60	10	60-180	60	82	GapExp	0	17	2	6	1	distractor	0	853	-1000	114683	13.328	12.978	13.674
DTProbeTrack03	14	ProbeTrackDT	1.1	SCS215a	20110121.094659	20110121.094846	dt-generate	8	0.013328	60	10	60-180	60	121	GapExp	0	18	2	1	0	target	0	667	-1000	113683	13.328	12.873	13.783
DTProbeTrack03	14	ProbeTrackDT	1.1	SCS215a	20110121.094659	20110121.094852	dt-generate	8	0.013328	60	10	60-180	60	166	GapExp	0	19	2	1	0	distractor	1	614	693	114376	13.328	12.854	13.801
DTProbeTrack03	14	ProbeTrackDT	1.1	SCS215a	20110121.094659	20110121.094858	dt-generate	8	0.013328	60	10	60-180	60	104	GapExp	0	20	2	45	0	distractor	1	1546	227	114603	13.328	13.099	13.568
DTProbeTrack03	14	ProbeTrackDT	1.1	SCS215a	20110121.094659	20110121.094905	dt-generate	8	0.013328	60	10	60-180	60	74	GapExp	0	21	2	9	1	target	1	827	587	115190	13.328	13.118	13.562
DTProbeTrack03	14	ProbeTrackDT	1.1	SCS215a	20110121.094659	20110121.094911	dt-generate	8	0.013328	60	10	60-180	60	77	GapExp	0	22	2	9	1	target	1	494	753	115943	13.328	13.105	13.549
DTProbeTrack03	14	ProbeTrackDT	1.1	SCS215a	20110121.094659	20110121.094916	dt-generate	8	0.013328	60	10	60-180	60	136	GapExp	0	23	2	6	1	distractor	0	680	-1000	114943	13.328	13.101	13.555
DTProbeTrack03	14	ProbeTrackDT	1.1	SCS215a	20110121.094659	20110121.094922	dt-generate	8	0.013328	60	10	60-180	60	175	GapExp	0	24	2	45	1	distractor	0	1653	-1000	113943	13.401	12.870	39.998
DTProbeTrack03	14	ProbeTrackDT	1.1	SCS215a	20110121.094659	20110121.094930	dt-generate	8	0.013328	60	10	60-180	60	139	GapExp	0	25	2	6	0	target	0	560	-1000	112943	13.328	12.882	13.771
DTProbeTrack03	14	ProbeTrackDT	1.1	SCS215a	20110121.094659	20110121.094936	dt-generate	8	0.013328	60	10	60-180	60	136	GapExp	0	26	2	9	0	distractor	1	2319	0	112943	13.328	12.988	13.672
DTProbeTrack03	14	ProbeTrackDT	1.1	SCS215a	20110121.094659	20110121.094944	dt-generate	8	0.013328	60	10	60-180	60	137	GapExp	0	27	2	45	1	target	1	627	687	113630	13.961	12.863	40.205
DTProbeTrack03	14	ProbeTrackDT	1.1	SCS215a	20110121.094659	20110121.094950	dt-generate	8	0.013328	60	10	60-180	60	72	GapExp	0	28	2	6	1	distractor	0	893	-1000	112630	13.328	12.919	13.732
DTProbeTrack03	14	ProbeTrackDT	1.1	SCS215a	20110121.094659	20110121.094956	dt-generate	8	0.013328	60	10	60-180	60	102	GapExp	0	29	2	45	1	target	1	1733	134	112764	13.328	12.840	13.818
DTProbeTrack03	14	ProbeTrackDT	1.1	SCS215a	20110121.094659	20110121.095003	dt-generate	8	0.013328	60	10	60-180	60	124	GapExp	0	30	2	45	0	distractor	1	853	574	113338	13.328	12.914	13.735
DTProbeTrack03	14	ProbeTrackDT	1.1	SCS215a	20110121.094659	20110121.095009	dt-generate	8	0.013328	60	10	60-180	60	170	GapExp	0	31	2	45	1	distractor	0	680	-1000	112338	13.328	12.889	13.759
DTProbeTrack03	14	ProbeTrackDT	1.1	SCS215a	20110121.094659	20110121.095016	dt-generate	8	0.013328	60	10	60-180	60	179	GapExp	0	32	2	45	0	target	0	1173	-1000	111338	13.328	13.004	13.661
DTProbeTrack03	14	ProbeTrackDT	1.1	SCS215a	20110121.094659	20110121.095024	dt-generate	8	0.013328	60	10	60-180	60	78	GapExp	0	33	2	6	1	distractor	0	1880	-1000	110338	13.328	13.143	13.523
DTProbeTrack03	14	ProbeTrackDT	1.1	SCS215a	20110121.094659	20110121.095030	dt-generate	8	0.013328	60	10	60-180	60	143	GapExp	0	34	2	45	1	target	1	547	727	111065	13.328	12.840	13.807
DTProbeTrack03	14	ProbeTrackDT	1.1	SCS215a	20110121.094659	20110121.095037	dt-generate	8	0.013328	60	10	60-180	60	65	GapExp	0	35	2	1	0	distractor	1	1053	474	111539	15.475	12.861	39.998
DTProbeTrack03	14	ProbeTrackDT	1.1	SCS215a	20110121.094659	20110121.095043	dt-generate	8	0.013328	60	10	60-180	60	67	GapExp	0	36	2	9	1	target	1	440	780	112319	15.232	12.929	359.945
DTProbeTrack03	14	ProbeTrackDT	1.1	SCS215a	20110121.094659	20110121.095048	dt-generate	8	0.013328	60	10	60-180	60	108	GapExp	0	37	2	1	0	distractor	1	3692	0	112319	13.328	12.878	13.766
DTProbeTrack03	14	ProbeTrackDT	1.1	SCS215a	20110121.094659	20110121.095057	dt-generate	8	0.013328	60	10	60-180	60	143	GapExp	0	38	2	3	1	target	1	1720	140	112459	13.374	12.880	27.075
DTProbeTrack03	14	ProbeTrackDT	1.1	SCS215a	20110121.094659	20110121.095104	dt-generate	8	0.013328	60	10	60-180	60	106	GapExp	0	39	2	9	0	distractor	1	1520	240	112699	13.328	12.891	13.799
DTProbeTrack03	14	ProbeTrackDT	1.1	SCS215a	20110121.094659	20110121.095110	dt-generate	8	0.013328	60	10	60-180	60	80	GapExp	0	40	2	3	1	target	1	1453	274	112973	13.328	13.098	13.562
DTProbeTrack03	14	ProbeTrackDT	1.1	SCS215a	20110121.094659	20110121.095116	dt-generate	8	0.013328	60	10	60-180	60	123	GapExp	0	41	2	3	0	distractor	1	747	627	113600	13.328	13.092	13.555
DTProbeTrack03	14	ProbeTrackDT	1.1	SCS215a	20110121.094659	20110121.095122	dt-generate	8	0.013328	60	10	60-180	60	174	GapExp	0	42	2	9	1	target	1	1520	240	113840	13.328	12.879	13.784
DTProbeTrack03	14	ProbeTrackDT	1.1	SCS215a	20110121.094659	20110121.095130	dt-generate	8	0.013328	60	10	60-180	60	100	GapExp	0	43	2	45	0	target	0	547	-1000	112840	13.328	13.114	13.554
DTProbeTrack03	14	ProbeTrackDT	1.1	SCS215a	20110121.094659	20110121.095136	dt-generate	8	0.013328	60	10	60-180	60	133	GapExp	0	44	2	3	0	distractor	1	640	680	113520	13.328	12.921	13.742
DTProbeTrack03	14	ProbeTrackDT	1.1	SCS215a	20110121.094659	20110121.095142	dt-generate	8	0.013328	60	10	60-180	60	108	GapExp	0	45	2	45	1	target	1	613	694	114214	13.328	12.953	13.706
DTProbeTrack03	14	ProbeTrackDT	1.1	SCS215a	20110121.094659	20110121.095148	dt-generate	8	0.013328	60	10	60-180	60	180	GapExp	0	46	2	9	0	distractor	1	693	654	114868	13.328	12.906	13.750
DTProbeTrack03	14	ProbeTrackDT	1.1	SCS215a	20110121.094659	20110121.095154	dt-generate	8	0.013328	60	10	60-180	60	136	GapExp	0	47	2	6	0	distractor	1	2239	0	114868	13.328	12.985	13.678
DTProbeTrack03	14	ProbeTrackDT	1.1	SCS215a	20110121.094659	20110121.095202	dt-generate	8	0.013328	60	10	60-180	60	83	GapExp	0	48	2	45	1	target	1	1040	480	115348	13.328	13.294	13.362
DTProbeTrack03	14	ProbeTrackDT	1.1	SCS215a	20110121.094659	20110121.095208	dt-generate	8	0.013328	60	10	60-180	60	77	GapExp	0	49	2	6	0	distractor	1	1000	500	115848	13.328	12.882	13.760
DTProbeTrack03	14	ProbeTrackDT	1.1	SCS215a	20110121.094659	20110121.095214	dt-generate	8	0.013328	60	10	60-180	60	85	GapExp	0	50	2	6	1	target	1	1306	347	116195	13.328	13.310	13.347
DTProbeTrack03	14	ProbeTrackDT	1.1	SCS215a	20110121.094659	20110121.095225	dt-generate	8	0.013328	60	10	60-180	60	149	GapExp	0	51	2	6	1	distractor	0	1786	-1000	115195	13.328	12.887	13.783
DTProbeTrack03	14	ProbeTrackDT	1.1	SCS215a	20110121.094659	20110121.095232	dt-generate	8	0.013328	60	10	60-180	60	109	GapExp	0	52	2	45	1	186	-3	1453	-1000	114195	13.328	13.046	13.616
DTProbeTrack03	14	ProbeTrackDT	1.1	SCS215a	20110121.094659	20110121.095239	dt-generate	8	0.013328	60	10	60-180	60	100	GapExp	0	53	2	45	1	distractor	0	1520	-1000	113195	13.328	12.926	13.711
DTProbeTrack03	14	ProbeTrackDT	1.1	SCS215a	20110121.094659	20110121.095246	dt-generate	8	0.013328	60	10	60-180	60	140	GapExp	0	54	2	3	1	target	1	507	747	113942	13.328	12.878	13.776
DTProbeTrack03	14	ProbeTrackDT	1.1	SCS215a	20110121.094659	20110121.095252	dt-generate	8	0.013328	60	10	60-180	60	158	GapExp	0	55	2	1	1	distractor	0	733	-1000	112942	13.328	12.989	13.661
DTProbeTrack03	14	ProbeTrackDT	1.1	SCS215a	20110121.094659	20110121.095259	dt-generate	8	0.013328	60	10	60-180	60	84	GapExp	0	56	2	3	0	target	0	1826	-1000	111942	13.328	13.310	13.351
DTProbeTrack03	14	ProbeTrackDT	1.1	SCS215a	20110121.094659	20110121.095305	dt-generate	8	0.013328	60	10	60-180	60	99	GapExp	0	57	2	45	1	distractor	0	1680	-1000	110942	13.328	12.945	13.708
DTProbeTrack03	14	ProbeTrackDT	1.1	SCS215a	20110121.094659	20110121.095312	dt-generate	8	0.013328	60	10	60-180	60	78	GapExp	0	58	2	3	0	target	0	654	-1000	109942	13.328	12.869	13.782
DTProbeTrack03	14	ProbeTrackDT	1.1	SCS215a	20110121.094659	20110121.095318	dt-generate	8	0.013328	60	10	60-180	60	123	GapExp	0	59	2	3	1	distractor	0	1533	-1000	108942	13.328	12.993	13.674
DTProbeTrack03	14	ProbeTrackDT	1.1	SCS215a	20110121.094659	20110121.095324	dt-generate	8	0.013328	60	10	60-180	60	77	GapExp	0	60	2	1	0	distractor	1	1506	247	109189	13.328	13.099	13.541
DTProbeTrack03	14	ProbeTrackDT	1.1	SCS215a	20110121.094659	20110121.095330	dt-generate	8	0.013328	60	10	60-180	60	72	GapExp	0	61	2	1	0	target	0	1253	-1000	108189	13.328	13.093	13.549
DTProbeTrack03	14	ProbeTrackDT	1.1	SCS215a	20110121.094659	20110121.095336	dt-generate	8	0.013328	60	10	60-180	60	156	GapExp	0	62	2	6	0	distractor	1	747	627	108816	13.328	13.107	13.562
DTProbeTrack03	14	ProbeTrackDT	1.1	SCS215a	20110121.094659	20110121.095342	dt-generate	8	0.013328	60	10	60-180	60	161	GapExp	0	63	2	9	0	target	0	534	-1000	107816	13.328	13.023	13.656
DTProbeTrack03	14	ProbeTrackDT	1.1	SCS215a	20110121.094659	20110121.095349	dt-generate	8	0.013328	60	10	60-180	60	161	GapExp	0	64	2	9	1	distractor	0	1067	-1000	106816	13.328	13.303	13.361
DTProbeTrack03	14	ProbeTrackDT	1.1	SCS215a	20110121.094659	20110121.095355	dt-generate	8	0.013328	60	10	60-180	60	115	GapExp	0	65	2	45	1	distractor	0	1226	-1000	105816	13.328	13.308	13.348
DTProbeTrack03	14	ProbeTrackDT	1.1	SCS215a	20110121.094659	20110121.095402	dt-generate	8	0.013328	60	10	60-180	60	164	GapExp	0	66	2	3	0	distractor	1	1680	160	105976	13.328	13.218	13.436
DTProbeTrack03	14	ProbeTrackDT	1.1	SCS215a	20110121.094659	20110121.095410	dt-generate	8	0.013328	60	10	60-180	60	68	GapExp	0	67	2	45	0	distractor	1	1586	207	106183	13.379	13.294	26.645
DTProbeTrack03	14	ProbeTrackDT	1.1	SCS215a	20110121.094659	20110121.095416	dt-generate	8	0.013328	60	10	60-180	60	129	GapExp	0	68	2	6	1	target	1	574	713	106896	13.328	13.307	13.348
DTProbeTrack03	14	ProbeTrackDT	1.1	SCS215a	20110121.094659	20110121.095422	dt-generate	8	0.013328	60	10	60-180	60	88	GapExp	0	69	2	45	1	distractor	0	1333	-1000	105896	13.328	13.286	13.361
DTProbeTrack03	14	ProbeTrackDT	1.1	SCS215a	20110121.094659	20110121.095429	dt-generate	8	0.013328	60	10	60-180	60	115	GapExp	0	70	2	1	1	target	1	387	807	106703	13.328	12.772	13.895
DTProbeTrack03	14	ProbeTrackDT	1.1	SCS215a	20110121.094659	20110121.095434	dt-generate	8	0.013328	60	10	60-180	60	150	GapExp	0	71	2	9	0	target	0	2359	-1000	105703	13.328	13.101	13.557
DTProbeTrack03	14	ProbeTrackDT	1.1	SCS215a	20110121.094659	20110121.095442	dt-generate	8	0.013328	60	10	60-180	60	65	GapExp	0	72	2	45	0	target	0	574	-1000	104703	13.328	12.860	13.803
DTProbeTrack03	14	ProbeTrackDT	1.1	SCS215a	20110121.094659	20110121.095447	dt-generate	8	0.013328	60	10	60-180	60	118	GapExp	0	73	2	9	0	distractor	1	1227	387	105090	13.328	13.107	13.549
DTProbeTrack03	14	ProbeTrackDT	1.1	SCS215a	20110121.094659	20110121.095454	dt-generate	8	0.013328	60	10	60-180	60	132	GapExp	0	74	2	1	0	distractor	1	1133	434	105524	13.328	12.899	13.752
DTProbeTrack03	14	ProbeTrackDT	1.1	SCS215a	20110121.094659	20110121.095500	dt-generate	8	0.013328	60	10	60-180	60	163	GapExp	0	75	2	1	0	distractor	1	2839	0	105524	13.328	13.012	13.636
DTProbeTrack03	14	ProbeTrackDT	1.1	SCS215a	20110121.094659	20110121.095509	dt-generate	8	0.013328	60	10	60-180	60	81	GapExp	0	76	2	3	0	target	0	1748	-1000	104524	13.328	13.099	13.543
DTProbeTrack03	14	ProbeTrackDT	1.1	SCS215a	20110121.094659	20110121.095515	dt-generate	8	0.013328	60	10	60-180	60	175	GapExp	0	77	2	3	1	distractor	0	467	-1000	103524	13.328	13.088	13.562
DTProbeTrack03	14	ProbeTrackDT	1.1	SCS215a	20110121.094659	20110121.095521	dt-generate	8	0.013328	60	10	60-180	60	157	GapExp	0	78	2	3	0	target	0	1440	-1000	102524	13.328	12.888	13.768
DTProbeTrack03	14	ProbeTrackDT	1.1	SCS215a	20110121.094659	20110121.095528	dt-generate	8	0.013328	60	10	60-180	60	126	GapExp	0	79	2	6	0	distractor	1	1333	334	102858	13.328	13.107	13.552
DTProbeTrack03	14	ProbeTrackDT	1.1	SCS215a	20110121.094659	20110121.095535	dt-generate	8	0.013328	60	10	60-180	60	166	GapExp	0	80	2	6	1	target	1	587	707	103565	13.328	13.011	13.640
DTProbeTrack03	14	ProbeTrackDT	1.1	SCS215a	20110121.094659	20110121.095541	dt-generate	8	0.013328	60	10	60-180	60	157	GapExp	0	81	2	1	0	distractor	1	1600	200	103765	13.328	12.867	13.788
DTProbeTrack03	14	ProbeTrackDT	1.1	SCS215a	20110121.094659	20110121.095548	dt-generate	8	0.013328	60	10	60-180	60	157	GapExp	0	82	2	6	0	distractor	1	707	647	104412	13.328	13.096	13.548
DTProbeTrack03	14	ProbeTrackDT	1.1	SCS215a	20110121.094659	20110121.095555	dt-generate	8	0.013328	60	10	60-180	60	126	GapExp	0	83	2	6	0	distractor	1	534	733	105145	13.328	13.307	13.347
DTProbeTrack03	14	ProbeTrackDT	1.1	SCS215a	20110121.094659	20110121.095601	dt-generate	8	0.013328	60	10	60-180	60	66	GapExp	0	84	2	6	0	target	0	1653	-1000	104145	13.328	13.095	13.562
DTProbeTrack03	14	ProbeTrackDT	1.1	SCS215a	20110121.094659	20110121.095607	dt-generate	8	0.013328	60	10	60-180	60	144	GapExp	0	85	2	45	0	target	0	987	-1000	103145	13.328	12.888	13.794
DTProbeTrack03	14	ProbeTrackDT	1.1	SCS215a	20110121.094659	20110121.095614	dt-generate	8	0.013328	60	10	60-180	60	94	GapExp	0	86	2	1	0	distractor	1	5012	0	103145	13.328	13.048	13.610
DTProbeTrack03	14	ProbeTrackDT	1.1	SCS215a	20110121.094659	20110121.095623	dt-generate	8	0.013328	60	10	60-180	60	98	GapExp	0	87	2	6	0	distractor	1	2279	0	103145	13.328	12.931	13.723
DTProbeTrack03	14	ProbeTrackDT	1.1	SCS215a	20110121.094659	20110121.095631	dt-generate	8	0.013328	60	10	60-180	60	147	GapExp	0	88	2	6	1	target	1	600	700	103845	13.328	12.939	13.723
DTProbeTrack03	14	ProbeTrackDT	1.1	SCS215a	20110121.094659	20110121.095637	dt-generate	8	0.013328	60	10	60-180	60	163	GapExp	0	89	2	1	1	distractor	0	614	-1000	102845	13.328	12.935	13.726
DTProbeTrack03	14	ProbeTrackDT	1.1	SCS215a	20110121.094659	20110121.095643	dt-generate	8	0.013328	60	10	60-180	60	67	GapExp	0	90	2	45	1	target	1	1986	7	102852	13.327	13.156	13.495
DTProbeTrack03	14	ProbeTrackDT	1.1	SCS215a	20110121.094659	20110121.095650	dt-generate	8	0.013328	60	10	60-180	60	64	GapExp	0	91	2	1	0	distractor	1	627	687	103539	13.328	13.310	13.352
DTProbeTrack03	14	ProbeTrackDT	1.1	SCS215a	20110121.094659	20110121.095655	dt-generate	8	0.013328	60	10	60-180	60	67	GapExp	0	92	2	3	0	target	0	614	-1000	102539	13.328	13.098	13.565
DTProbeTrack03	14	ProbeTrackDT	1.1	SCS215a	20110121.094659	20110121.095700	dt-generate	8	0.013328	60	10	60-180	60	123	GapExp	0	93	2	1	1	target	1	494	753	103292	13.328	13.114	13.550
DTProbeTrack03	14	ProbeTrackDT	1.1	SCS215a	20110121.094659	20110121.095705	dt-generate	8	0.013328	60	10	60-180	60	94	GapExp	0	94	2	1	1	distractor	0	1626	-1000	102292	13.328	12.895	13.763
DTProbeTrack03	14	ProbeTrackDT	1.1	SCS215a	20110121.094659	20110121.095712	dt-generate	8	0.013328	60	10	60-180	60	93	GapExp	0	95	2	1	1	distractor	0	2519	-1000	101292	13.328	13.054	13.598
DTProbeTrack03	14	ProbeTrackDT	1.1	SCS215a	20110121.094659	20110121.095719	dt-generate	8	0.013328	60	10	60-180	60	123	GapExp	0	96	2	6	1	target	1	440	780	102072	13.328	12.893	13.754
DTProbeTrack03	14	ProbeTrackDT	1.1	SCS215a	20110121.094659	20110121.095725	dt-generate	8	0.013328	60	10	60-180	60	99	GapExp	0	97	2	45	1	target	1	574	713	102785	13.328	13.310	13.347
DTProbeTrack03	14	ProbeTrackDT	1.1	SCS215a	20110121.094659	20110121.095731	dt-generate	8	0.013328	60	10	60-180	60	142	GapExp	0	98	2	9	1	target	1	640	680	103465	13.328	12.848	13.818
DTProbeTrack03	14	ProbeTrackDT	1.1	SCS215a	20110121.094659	20110121.095737	dt-generate	8	0.013328	60	10	60-180	60	144	GapExp	0	99	2	45	0	target	0	1107	-1000	102465	13.328	13.100	13.549
DTProbeTrack03	14	ProbeTrackDT	1.1	SCS215a	20110121.094659	20110121.095744	dt-generate	8	0.013328	60	10	60-180	60	104	GapExp	0	100	2	9	0	distractor	1	400	800	103265	13.328	13.108	13.557
DTProbeTrack03	14	ProbeTrackDT	1.1	SCS215a	20110121.094659	20110121.095757	dt-generate	8	0.013328	60	10	60-180	60	141	GapExp	0	101	2	3	1	distractor	0	1653	-1000	102265	13.328	12.908	13.750
DTProbeTrack03	14	ProbeTrackDT	1.1	SCS215a	20110121.094659	20110121.095804	dt-generate	8	0.013328	60	10	60-180	60	71	GapExp	0	102	2	1	1	32	-3	8090	-1000	101265	13.328	13.094	13.557
DTProbeTrack03	14	ProbeTrackDT	1.1	SCS215a	20110121.094659	20110121.095817	dt-generate	8	0.013328	60	10	60-180	60	143	GapExp	0	103	2	1	1	186	-3	1213	-1000	100265	13.328	13.292	13.365
DTProbeTrack03	14	ProbeTrackDT	1.1	SCS215a	20110121.094659	20110121.095823	dt-generate	8	0.013328	60	10	60-180	60	131	GapExp	0	104	2	6	0	distractor	1	600	700	100965	13.328	13.102	13.545
DTProbeTrack03	14	ProbeTrackDT	1.1	SCS215a	20110121.094659	20110121.095829	dt-generate	8	0.013328	60	10	60-180	60	105	GapExp	0	105	2	45	1	distractor	0	1440	-1000	99965	13.328	13.090	13.564
DTProbeTrack03	14	ProbeTrackDT	1.1	SCS215a	20110121.094659	20110121.095836	dt-generate	8	0.013328	60	10	60-180	60	179	GapExp	0	106	2	1	0	distractor	1	760	620	100585	13.328	12.921	13.721
DTProbeTrack03	14	ProbeTrackDT	1.1	SCS215a	20110121.094659	20110121.095843	dt-generate	8	0.013328	60	10	60-180	60	108	GapExp	0	107	2	9	0	distractor	1	8197	0	100585	13.328	12.892	13.766
DTProbeTrack03	14	ProbeTrackDT	1.1	SCS215a	20110121.094659	20110121.095856	dt-generate	8	0.013328	60	10	60-180	60	152	GapExp	0	108	2	3	0	distractor	1	1053	474	101059	13.328	12.931	13.747
DTProbeTrack03	14	ProbeTrackDT	1.1	SCS215a	20110121.094659	20110121.095903	dt-generate	8	0.013328	60	10	60-180	60	125	GapExp	0	109	2	9	0	target	0	1000	-1000	100059	13.328	13.306	13.347
DTProbeTrack03	14	ProbeTrackDT	1.1	SCS215a	20110121.094659	20110121.095909	dt-generate	8	0.013328	60	10	60-180	60	111	GapExp	0	110	2	3	1	distractor	0	1253	-1000	99059	13.328	13.288	13.362
DTProbeTrack03	14	ProbeTrackDT	1.1	SCS215a	20110121.094659	20110121.095915	dt-generate	8	0.013328	60	10	60-180	60	84	GapExp	0	111	2	9	0	target	0	2106	-1000	98059	13.328	12.856	13.802
DTProbeTrack03	14	ProbeTrackDT	1.1	SCS215a	20110121.094659	20110121.095922	dt-generate	8	0.013328	60	10	60-180	60	71	GapExp	0	112	2	45	0	distractor	1	1240	380	98439	13.328	13.099	13.347
DTProbeTrack03	14	ProbeTrackDT	1.1	SCS215a	20110121.094659	20110121.095929	dt-generate	8	0.013328	60	10	60-180	60	73	GapExp	0	113	2	6	1	distractor	0	1213	-1000	97439	13.328	13.306	13.349
DTProbeTrack03	14	ProbeTrackDT	1.1	SCS215a	20110121.094659	20110121.095934	dt-generate	8	0.013328	60	10	60-180	60	157	GapExp	0	114	2	1	0	target	0	1480	-1000	96439	13.372	13.107	26.631
DTProbeTrack03	14	ProbeTrackDT	1.1	SCS215a	20110121.094659	20110121.095941	dt-generate	8	0.013328	60	10	60-180	60	129	GapExp	0	115	2	45	1	distractor	0	400	-1000	95439	13.328	13.097	13.554
DTProbeTrack03	14	ProbeTrackDT	1.1	SCS215a	20110121.094659	20110121.095948	dt-generate	8	0.013328	60	10	60-180	60	109	GapExp	0	116	2	6	1	target	1	547	727	96166	13.328	12.939	13.739
DTProbeTrack03	14	ProbeTrackDT	1.1	SCS215a	20110121.094659	20110121.095953	dt-generate	8	0.013328	60	10	60-180	60	80	GapExp	0	117	2	1	0	distractor	1	933	534	96700	13.328	12.860	13.796
DTProbeTrack03	14	ProbeTrackDT	1.1	SCS215a	20110121.094659	20110121.095959	dt-generate	8	0.013328	60	10	60-180	60	150	GapExp	0	118	2	45	0	distractor	1	507	747	97447	13.328	12.831	13.813
DTProbeTrack03	14	ProbeTrackDT	1.1	SCS215a	20110121.094659	20110121.100006	dt-generate	8	0.013328	60	10	60-180	60	164	GapExp	0	119	2	9	1	distractor	0	1386	-1000	96447	13.328	13.307	13.358
DTProbeTrack03	14	ProbeTrackDT	1.1	SCS215a	20110121.094659	20110121.100013	dt-generate	8	0.013328	60	10	60-180	60	98	GapExp	0	120	2	1	1	target	1	853	574	97021	13.328	13.311	13.359
DTProbeTrack03	14	ProbeTrackDT	1.1	SCS215a	20110121.094659	20110121.100018	dt-generate	8	0.013328	60	10	60-180	60	138	GapExp	0	121	2	6	0	distractor	1	760	620	97641	13.328	13.309	13.345
DTProbeTrack03	14	ProbeTrackDT	1.1	SCS215a	20110121.094659	20110121.100025	dt-generate	8	0.013328	60	10	60-180	60	98	GapExp	0	122	2	9	1	target	1	680	660	98301	13.328	13.104	13.539
DTProbeTrack03	14	ProbeTrackDT	1.1	SCS215a	20110121.094659	20110121.100030	dt-generate	8	0.013328	60	10	60-180	60	101	GapExp	0	123	2	9	0	distractor	1	1133	434	98735	13.328	13.309	13.344
DTProbeTrack03	14	ProbeTrackDT	1.1	SCS215a	20110121.094659	20110121.100036	dt-generate	8	0.013328	60	10	60-180	60	133	GapExp	0	124	2	1	0	distractor	1	-13	1007	99742	13.328	13.308	13.358
DTProbeTrack03	14	ProbeTrackDT	1.1	SCS215a	20110121.094659	20110121.100041	dt-generate	8	0.013328	60	10	60-180	60	145	GapExp	0	125	2	9	0	distractor	1	760	620	100362	13.328	12.876	13.735
DTProbeTrack03	14	ProbeTrackDT	1.1	SCS215a	20110121.094659	20110121.100048	dt-generate	8	0.013328	60	10	60-180	60	108	GapExp	0	126	2	6	1	distractor	0	614	-1000	99362	13.328	13.305	13.352
DTProbeTrack03	14	ProbeTrackDT	1.1	SCS215a	20110121.094659	20110121.100053	dt-generate	8	0.013328	60	10	60-180	60	73	GapExp	0	127	2	6	1	target	1	1453	274	99636	13.328	13.231	13.424
DTProbeTrack03	14	ProbeTrackDT	1.1	SCS215a	20110121.094659	20110121.100059	dt-generate	8	0.013328	60	10	60-180	60	142	GapExp	0	128	2	3	0	distractor	1	1266	367	100003	13.328	13.109	13.546
DTProbeTrack03	14	ProbeTrackDT	1.1	SCS215a	20110121.094659	20110121.100106	dt-generate	8	0.013328	60	10	60-180	60	149	GapExp	0	129	2	6	1	target	1	574	713	100716	13.328	12.971	13.679
DTProbeTrack03	14	ProbeTrackDT	1.1	SCS215a	20110121.094659	20110121.100112	dt-generate	8	0.013328	60	10	60-180	60	169	GapExp	0	130	2	45	0	distractor	1	614	693	101409	13.328	13.056	13.593
DTProbeTrack03	14	ProbeTrackDT	1.1	SCS215a	20110121.094659	20110121.100119	dt-generate	8	0.013328	60	10	60-180	60	125	GapExp	0	131	2	9	1	distractor	0	720	-1000	100409	13.328	13.080	13.584
DTProbeTrack03	14	ProbeTrackDT	1.1	SCS215a	20110121.094659	20110121.100125	dt-generate	8	0.013328	60	10	60-180	60	116	GapExp	0	132	2	1	1	target	1	1719	141	100550	13.328	13.001	13.657
DTProbeTrack03	14	ProbeTrackDT	1.1	SCS215a	20110121.094659	20110121.100132	dt-generate	8	0.013328	60	10	60-180	60	137	GapExp	0	133	2	3	1	target	1	480	760	101310	13.328	13.095	13.557
DTProbeTrack03	14	ProbeTrackDT	1.1	SCS215a	20110121.094659	20110121.100138	dt-generate	8	0.013328	60	10	60-180	60	145	GapExp	0	134	2	3	0	target	0	2239	-1000	100310	13.328	13.280	13.381
DTProbeTrack03	14	ProbeTrackDT	1.1	SCS215a	20110121.094659	20110121.100145	dt-generate	8	0.013328	60	10	60-180	60	175	GapExp	0	135	2	3	1	distractor	0	720	-1000	99310	13.328	13.085	13.571
DTProbeTrack03	14	ProbeTrackDT	1.1	SCS215a	20110121.094659	20110121.100152	dt-generate	8	0.013328	60	10	60-180	60	101	GapExp	0	136	2	6	0	target	0	1760	-1000	98310	13.328	13.309	13.345
DTProbeTrack03	14	ProbeTrackDT	1.1	SCS215a	20110121.094659	20110121.100158	dt-generate	8	0.013328	60	10	60-180	60	75	GapExp	0	137	2	3	0	target	0	2399	-1000	97310	13.328	13.303	13.348
DTProbeTrack03	14	ProbeTrackDT	1.1	SCS215a	20110121.094659	20110121.100205	dt-generate	8	0.013328	60	10	60-180	60	159	GapExp	0	138	2	3	1	distractor	0	1053	-1000	96310	13.328	12.886	13.793
DTProbeTrack03	14	ProbeTrackDT	1.1	SCS215a	20110121.094659	20110121.100212	dt-generate	8	0.013328	60	10	60-180	60	96	GapExp	0	139	2	1	1	target	1	680	660	96970	13.328	13.307	13.347
DTProbeTrack03	14	ProbeTrackDT	1.1	SCS215a	20110121.094659	20110121.100218	dt-generate	8	0.013328	60	10	60-180	60	140	GapExp	0	140	2	45	1	target	1	600	700	97670	13.328	12.927	13.731
DTProbeTrack03	14	ProbeTrackDT	1.1	SCS215a	20110121.094659	20110121.100224	dt-generate	8	0.013328	60	10	60-180	60	102	GapExp	0	141	2	6	1	target	1	693	654	98324	13.328	13.115	13.546
DTProbeTrack03	14	ProbeTrackDT	1.1	SCS215a	20110121.094659	20110121.100230	dt-generate	8	0.013328	60	10	60-180	60	170	GapExp	0	142	2	3	1	target	1	1466	267	98591	13.328	12.911	13.754
DTProbeTrack03	14	ProbeTrackDT	1.1	SCS215a	20110121.094659	20110121.100237	dt-generate	8	0.013328	60	10	60-180	60	113	GapExp	0	143	2	9	0	target	0	1546	-1000	97591	13.328	13.097	13.565
DTProbeTrack03	14	ProbeTrackDT	1.1	SCS215a	20110121.094659	20110121.100244	dt-generate	8	0.013328	60	10	60-180	60	85	GapExp	0	144	2	3	0	target	0	1760	-1000	96591	13.328	12.951	13.691
DTProbeTrack03	14	ProbeTrackDT	1.1	SCS215a	20110121.094659	20110121.100250	dt-generate	8	0.013328	60	10	60-180	60	163	GapExp	0	145	2	1	1	distractor	0	507	-1000	95591	13.328	13.019	13.637
DTProbeTrack03	14	ProbeTrackDT	1.1	SCS215a	20110121.094659	20110121.100256	dt-generate	8	0.013328	60	10	60-180	60	63	GapExp	0	146	2	45	0	distractor	1	1400	300	95891	13.328	12.913	13.752
DTProbeTrack03	14	ProbeTrackDT	1.1	SCS215a	20110121.094659	20110121.100302	dt-generate	8	0.013328	60	10	60-180	60	132	GapExp	0	147	2	1	1	distractor	0	480	-1000	94891	13.328	13.304	13.350
DTProbeTrack03	14	ProbeTrackDT	1.1	SCS215a	20110121.094659	20110121.100308	dt-generate	8	0.013328	60	10	60-180	60	175	GapExp	0	148	2	6	1	target	1	1400	300	95191	13.328	13.309	13.352
DTProbeTrack03	14	ProbeTrackDT	1.1	SCS215a	20110121.094659	20110121.100315	dt-generate	8	0.013328	60	10	60-180	60	116	GapExp	0	149	2	3	1	distractor	0	1293	-1000	94191	13.328	13.305	13.351
DTProbeTrack03	14	ProbeTrackDT	1.1	SCS215a	20110121.094659	20110121.100322	dt-generate	8	0.013328	60	10	60-180	60	152	GapExp	0	150	2	1	0	distractor	1	1653	174	94365	13.328	13.295	13.349
DTProbeTrack03	14	ProbeTrackDT	1.1	SCS215a	20110121.094659	20110121.100345	dt-generate	8	0.013328	60	10	60-180	60	144	GapExp	0	151	2	9	1	target	1	1800	100	94465	13.328	13.091	13.568
DTProbeTrack03	14	ProbeTrackDT	1.1	SCS215a	20110121.094659	20110121.100352	dt-generate	8	0.013328	60	10	60-180	60	149	GapExp	0	152	2	1	1	target	1	467	767	95232	13.328	12.935	13.709
DTProbeTrack03	14	ProbeTrackDT	1.1	SCS215a	20110121.094659	20110121.100358	dt-generate	8	0.013328	60	10	60-180	60	108	GapExp	0	153	2	3	0	distractor	1	840	580	95812	13.328	13.311	13.345
DTProbeTrack03	14	ProbeTrackDT	1.1	SCS215a	20110121.094659	20110121.100404	dt-generate	8	0.013328	60	10	60-180	60	130	GapExp	0	154	2	1	1	distractor	0	720	-1000	94812	13.328	13.072	13.577
DTProbeTrack03	14	ProbeTrackDT	1.1	SCS215a	20110121.094659	20110121.100410	dt-generate	8	0.013328	60	10	60-180	60	156	GapExp	0	155	2	9	1	target	1	440	780	95592	13.328	13.016	13.629
DTProbeTrack03	14	ProbeTrackDT	1.1	SCS215a	20110121.094659	20110121.100416	dt-generate	8	0.013328	60	10	60-180	60	177	GapExp	0	156	2	3	0	distractor	1	414	793	96385	13.328	12.907	13.742
DTProbeTrack03	14	ProbeTrackDT	1.1	SCS215a	20110121.094659	20110121.100422	dt-generate	8	0.013328	60	10	60-180	60	168	GapExp	0	157	2	9	0	distractor	1	600	700	97085	13.328	12.911	13.745
DTProbeTrack03	14	ProbeTrackDT	1.1	SCS215a	20110121.094659	20110121.100429	dt-generate	8	0.013328	60	10	60-180	60	138	GapExp	0	158	2	1	1	target	1	627	687	97772	13.328	13.015	13.652
DTProbeTrack03	14	ProbeTrackDT	1.1	SCS215a	20110121.094659	20110121.100434	dt-generate	8	0.013328	60	10	60-180	60	167	GapExp	0	159	2	9	1	distractor	0	494	-1000	96772	13.328	12.858	13.794
DTProbeTrack03	14	ProbeTrackDT	1.1	SCS215a	20110121.094659	20110121.100441	dt-generate	8	0.013328	60	10	60-180	60	65	GapExp	0	160	2	9	1	target	1	1346	327	97099	13.328	13.308	13.350
DTProbeTrack03	14	ProbeTrackDT	1.1	SCS215a	20110121.094659	20110121.100447	dt-generate	8	0.013328	60	10	60-180	60	123	GapExp	0	161	2	9	1	target	1	1120	440	97539	13.328	13.040	13.636
DTProbeTrack03	14	ProbeTrackDT	1.1	SCS215a	20110121.094659	20110121.100453	dt-generate	8	0.013328	60	10	60-180	60	150	GapExp	0	162	2	3	1	distractor	0	1706	-1000	96539	13.328	13.309	13.346
DTProbeTrack03	14	ProbeTrackDT	1.1	SCS215a	20110121.094659	20110121.100500	dt-generate	8	0.013328	60	10	60-180	60	65	GapExp	0	163	2	45	0	distractor	1	773	614	97153	13.328	13.024	13.627
DTProbeTrack03	14	ProbeTrackDT	1.1	SCS215a	20110121.094659	20110121.100506	dt-generate	8	0.013328	60	10	60-180	60	156	GapExp	0	164	2	9	0	distractor	1	614	693	97846	13.328	13.297	13.353
DTProbeTrack03	14	ProbeTrackDT	1.1	SCS215a	20110121.094659	20110121.100512	dt-generate	8	0.013328	60	10	60-180	60	99	GapExp	0	165	2	3	1	distractor	0	1373	-1000	96846	13.328	13.112	13.543
DTProbeTrack03	14	ProbeTrackDT	1.1	SCS215a	20110121.094659	20110121.100518	dt-generate	8	0.013328	60	10	60-180	60	127	GapExp	0	166	2	3	1	target	1	1440	280	97126	13.376	13.108	26.615
DTProbeTrack03	14	ProbeTrackDT	1.1	SCS215a	20110121.094659	20110121.100525	dt-generate	8	0.013328	60	10	60-180	60	113	GapExp	0	167	2	9	1	target	1	107	947	98073	13.328	13.096	13.551
DTProbeTrack03	14	ProbeTrackDT	1.1	SCS215a	20110121.094659	20110121.100530	dt-generate	8	0.013328	60	10	60-180	60	86	GapExp	0	168	2	1	1	distractor	0	1320	-1000	97073	13.328	13.302	13.348
DTProbeTrack03	14	ProbeTrackDT	1.1	SCS215a	20110121.094659	20110121.100536	dt-generate	8	0.013328	60	10	60-180	60	70	GapExp	0	169	2	3	0	distractor	1	1466	267	97340	13.328	13.307	13.344
DTProbeTrack03	14	ProbeTrackDT	1.1	SCS215a	20110121.094659	20110121.100542	dt-generate	8	0.013328	60	10	60-180	60	145	GapExp	0	170	2	45	1	target	1	1000	500	97840	13.328	12.861	13.799
DTProbeTrack03	14	ProbeTrackDT	1.1	SCS215a	20110121.094659	20110121.100549	dt-generate	8	0.013328	60	10	60-180	60	174	GapExp	0	171	2	45	0	distractor	1	587	707	98547	13.328	12.956	13.726
DTProbeTrack03	14	ProbeTrackDT	1.1	SCS215a	20110121.094659	20110121.100556	dt-generate	8	0.013328	60	10	60-180	60	123	GapExp	0	172	2	3	1	distractor	0	747	-1000	97547	13.328	12.890	13.796
DTProbeTrack03	14	ProbeTrackDT	1.1	SCS215a	20110121.094659	20110121.100602	dt-generate	8	0.013328	60	10	60-180	60	178	GapExp	0	173	2	1	1	target	1	1280	360	97907	13.328	13.297	13.352
DTProbeTrack03	14	ProbeTrackDT	1.1	SCS215a	20110121.094659	20110121.100609	dt-generate	8	0.013328	60	10	60-180	60	167	GapExp	0	174	2	1	1	target	1	574	713	98620	13.328	13.298	13.351
DTProbeTrack03	14	ProbeTrackDT	1.1	SCS215a	20110121.094659	20110121.100616	dt-generate	8	0.013328	60	10	60-180	60	119	GapExp	0	175	2	6	0	distractor	1	520	740	99360	13.328	13.306	13.345
DTProbeTrack03	14	ProbeTrackDT	1.1	SCS215a	20110121.094659	20110121.100621	dt-generate	8	0.013328	60	10	60-180	60	108	GapExp	0	176	2	9	1	target	1	1173	414	99774	13.328	12.933	13.736
DTProbeTrack03	14	ProbeTrackDT	1.1	SCS215a	20110121.094659	20110121.100627	dt-generate	8	0.013328	60	10	60-180	60	91	GapExp	0	177	2	6	0	target	0	2386	-1000	98774	13.328	13.102	13.547
DTProbeTrack03	14	ProbeTrackDT	1.1	SCS215a	20110121.094659	20110121.100635	dt-generate	8	0.013328	60	10	60-180	60	116	GapExp	0	178	2	3	1	target	1	1013	494	99268	13.328	13.024	13.644
DTProbeTrack03	14	ProbeTrackDT	1.1	SCS215a	20110121.094659	20110121.100641	dt-generate	8	0.013328	60	10	60-180	60	179	GapExp	0	179	2	6	0	distractor	1	520	740	100008	13.328	13.309	13.347
DTProbeTrack03	14	ProbeTrackDT	1.1	SCS215a	20110121.094659	20110121.100647	dt-generate	8	0.013328	60	10	60-180	60	97	GapExp	0	180	2	6	1	distractor	0	987	-1000	99008	13.328	13.110	13.553
DTProbeTrack03	14	ProbeTrackDT	1.1	SCS215a	20110121.094659	20110121.100653	dt-generate	8	0.013328	60	10	60-180	60	126	GapExp	0	181	2	45	1	target	1	467	767	99775	13.328	12.886	13.770
DTProbeTrack03	14	ProbeTrackDT	1.1	SCS215a	20110121.094659	20110121.100659	dt-generate	8	0.013328	60	10	60-180	60	132	GapExp	0	182	2	1	0	distractor	1	707	647	100422	13.328	13.292	13.372
DTProbeTrack03	14	ProbeTrackDT	1.1	SCS215a	20110121.094659	20110121.100705	dt-generate	8	0.013328	60	10	60-180	60	167	GapExp	0	183	2	3	1	target	1	773	614	101036	13.328	13.295	13.350
DTProbeTrack03	14	ProbeTrackDT	1.1	SCS215a	20110121.094659	20110121.100712	dt-generate	8	0.013328	60	10	60-180	60	73	GapExp	0	184	2	6	0	distractor	1	1466	267	101303	13.328	12.956	13.681
DTProbeTrack03	14	ProbeTrackDT	1.1	SCS215a	20110121.094659	20110121.100718	dt-generate	8	0.013328	60	10	60-180	60	131	GapExp	0	185	2	1	0	distractor	1	374	813	102116	13.328	12.856	13.801
DTProbeTrack03	14	ProbeTrackDT	1.1	SCS215a	20110121.094659	20110121.100723	dt-generate	8	0.013328	60	10	60-180	60	67	GapExp	0	186	2	6	0	target	0	3279	-1000	101116	13.328	13.100	13.520
DTProbeTrack03	14	ProbeTrackDT	1.1	SCS215a	20110121.094659	20110121.100731	dt-generate	8	0.013328	60	10	60-180	60	90	GapExp	0	187	2	3	1	distractor	0	574	-1000	100116	13.328	13.099	13.556
DTProbeTrack03	14	ProbeTrackDT	1.1	SCS215a	20110121.094659	20110121.100736	dt-generate	8	0.013328	60	10	60-180	60	107	GapExp	0	188	2	3	1	target	1	1160	420	100536	13.328	13.104	13.547
DTProbeTrack03	14	ProbeTrackDT	1.1	SCS215a	20110121.094659	20110121.100742	dt-generate	8	0.013328	60	10	60-180	60	161	GapExp	0	189	2	45	1	target	1	427	787	101323	13.328	12.872	13.790
DTProbeTrack03	14	ProbeTrackDT	1.1	SCS215a	20110121.094659	20110121.100749	dt-generate	8	0.013328	60	10	60-180	60	144	GapExp	0	190	2	6	0	target	0	520	-1000	100323	13.328	12.977	13.669
DTProbeTrack03	14	ProbeTrackDT	1.1	SCS215a	20110121.094659	20110121.100755	dt-generate	8	0.013328	60	10	60-180	60	132	GapExp	0	191	2	9	0	distractor	1	573	714	101037	13.328	13.307	13.346
DTProbeTrack03	14	ProbeTrackDT	1.1	SCS215a	20110121.094659	20110121.100801	dt-generate	8	0.013328	60	10	60-180	60	133	GapExp	0	192	2	9	1	distractor	0	1226	-1000	100037	13.328	13.304	13.360
DTProbeTrack03	14	ProbeTrackDT	1.1	SCS215a	20110121.094659	20110121.100807	dt-generate	8	0.013328	60	10	60-180	60	174	GapExp	0	193	2	6	0	target	0	534	-1000	99037	13.328	13.160	13.511
DTProbeTrack03	14	ProbeTrackDT	1.1	SCS215a	20110121.094659	20110121.100814	dt-generate	8	0.013328	60	10	60-180	60	135	GapExp	0	194	2	45	0	distractor	1	707	647	99684	13.328	13.098	13.560
DTProbeTrack03	14	ProbeTrackDT	1.1	SCS215a	20110121.094659	20110121.100820	dt-generate	8	0.013328	60	10	60-180	60	68	GapExp	0	195	2	9	0	distractor	1	1213	394	100078	13.328	13.309	13.346
DTProbeTrack03	14	ProbeTrackDT	1.1	SCS215a	20110121.094659	20110121.100826	dt-generate	8	0.013328	60	10	60-180	60	95	GapExp	0	196	2	6	1	target	1	1320	340	100418	13.328	13.114	13.547
DTProbeTrack03	14	ProbeTrackDT	1.1	SCS215a	20110121.094659	20110121.100832	dt-generate	8	0.013328	60	10	60-180	60	171	GapExp	0	197	2	45	0	distractor	1	587	707	101125	13.328	13.107	13.548
DTProbeTrack03	14	ProbeTrackDT	1.1	SCS215a	20110121.094659	20110121.100839	dt-generate	8	0.013328	60	10	60-180	60	93	GapExp	0	198	2	3	0	distractor	1	1373	314	101439	13.328	12.904	13.769
DTProbeTrack03	14	ProbeTrackDT	1.1	SCS215a	20110121.094659	20110121.100845	dt-generate	8	0.013328	60	10	60-180	60	88	GapExp	0	199	2	45	0	distractor	1	640	680	102119	13.328	12.869	13.781
DTProbeTrack03	14	ProbeTrackDT	1.1	SCS215a	20110121.094659	20110121.100851	dt-generate	8	0.013328	60	10	60-180	60	75	GapExp	0	200	2	45	0	distractor	1	560	720	102839	13.328	13.302	13.345
DTProbeTrack03	14	ProbeTrackDT	1.1	SCS215a	20110121.094659	20110121.100901	dt-generate	8	0.013328	60	10	60-180	60	124	GapExp	0	201	2	1	0	distractor	1	1053	474	103313	13.328	13.087	13.570
DTProbeTrack03	14	ProbeTrackDT	1.1	SCS215a	20110121.094659	20110121.100907	dt-generate	8	0.013328	60	10	60-180	60	80	GapExp	0	202	2	45	0	distractor	1	534	733	104046	13.328	12.852	13.806
DTProbeTrack03	14	ProbeTrackDT	1.1	SCS215a	20110121.094659	20110121.100913	dt-generate	8	0.013328	60	10	60-180	60	87	GapExp	0	203	2	1	0	distractor	1	1693	154	104200	13.328	13.284	13.362
DTProbeTrack03	14	ProbeTrackDT	1.1	SCS215a	20110121.094659	20110121.100920	dt-generate	8	0.013328	60	10	60-180	60	90	GapExp	0	204	2	9	1	distractor	0	480	-1000	103200	13.328	13.311	13.358
DTProbeTrack03	14	ProbeTrackDT	1.1	SCS215a	20110121.094659	20110121.100925	dt-generate	8	0.013328	60	10	60-180	60	79	GapExp	0	205	2	9	1	target	1	187	907	104107	13.328	13.307	13.346
DTProbeTrack03	14	ProbeTrackDT	1.1	SCS215a	20110121.101006	20110121.101011	dt-shadow	8	0.013328	60	10	60-180	60	70	GapPrac	1	1	2	9	0	target	0	560	-1000	103107	13.328	13.309	13.349
DTProbeTrack03	14	ProbeTrackDT	1.1	SCS215a	20110121.101006	20110121.101016	dt-shadow	8	0.013328	60	10	60-180	60	167	GapPrac	1	2	2	9	0	distractor	1	560	720	103827	13.328	13.097	13.549
DTProbeTrack03	14	ProbeTrackDT	1.1	SCS215a	20110121.101006	20110121.101022	dt-shadow	8	0.013328	60	10	60-180	60	95	GapPrac	1	3	2	45	1	target	1	1080	460	104287	13.328	13.295	13.377
DTProbeTrack03	14	ProbeTrackDT	1.1	SCS215a	20110121.101006	20110121.101028	dt-shadow	8	0.013328	60	10	60-180	60	168	GapPrac	1	4	2	3	1	distractor	0	907	-1000	103287	13.328	13.027	13.634
DTProbeTrack03	14	ProbeTrackDT	1.1	SCS215a	20110121.101006	20110121.101035	dt-shadow	8	0.013328	60	10	60-180	60	141	GapPrac	1	5	2	3	0	distractor	1	574	713	104000	13.328	13.307	13.357
DTProbeTrack03	14	ProbeTrackDT	1.1	SCS215a	20110121.101006	20110121.101041	dt-shadow	8	0.013328	60	10	60-180	60	131	GapPrac	1	6	2	1	1	target	1	480	760	104760	13.328	12.846	13.811
DTProbeTrack03	14	ProbeTrackDT	1.1	SCS215a	20110121.101006	20110121.101047	dt-shadow	8	0.013328	60	10	60-180	60	157	GapPrac	1	7	2	3	1	target	1	467	767	105527	13.328	13.098	13.551
DTProbeTrack03	14	ProbeTrackDT	1.1	SCS215a	20110121.101006	20110121.101053	dt-shadow	8	0.013328	60	10	60-180	60	140	GapPrac	1	8	2	6	0	distractor	1	560	720	106247	13.328	13.113	13.550
DTProbeTrack03	14	ProbeTrackDT	1.1	SCS215a	20110121.101006	20110121.101059	dt-shadow	8	0.013328	60	10	60-180	60	67	GapPrac	1	9	2	1	0	distractor	1	827	587	106834	13.328	12.870	13.788
DTProbeTrack03	14	ProbeTrackDT	1.1	SCS215a	20110121.101006	20110121.101104	dt-shadow	8	0.013328	60	10	60-180	60	65	GapPrac	1	10	2	45	1	target	1	627	687	107521	13.328	13.143	13.510
DTProbeTrack03	14	ProbeTrackDT	1.1	SCS215a	20110121.101006	20110121.101109	dt-shadow	8	0.013328	60	10	60-180	60	119	GapPrac	1	11	2	6	1	target	1	534	733	108254	13.328	13.100	13.548
DTProbeTrack03	14	ProbeTrackDT	1.1	SCS215a	20110121.101006	20110121.101115	dt-shadow	8	0.013328	60	10	60-180	60	129	GapPrac	1	12	2	3	0	distractor	1	494	753	109007	13.328	13.083	13.554
DTProbeTrack03	14	ProbeTrackDT	1.1	SCS215a	20110121.101006	20110121.101121	dt-shadow	8	0.013328	60	10	60-180	60	129	GapPrac	1	13	2	1	1	target	1	440	780	109787	13.328	13.300	13.344
DTProbeTrack03	14	ProbeTrackDT	1.1	SCS215a	20110121.101006	20110121.101126	dt-shadow	8	0.013328	60	10	60-180	60	84	GapPrac	1	14	2	1	0	distractor	1	574	713	110500	13.328	13.303	13.348
DTProbeTrack03	14	ProbeTrackDT	1.1	SCS215a	20110121.101006	20110121.101132	dt-shadow	8	0.013328	60	10	60-180	60	65	GapPrac	1	15	2	9	1	target	1	600	700	111200	13.328	13.085	13.558
DTProbeTrack03	14	ProbeTrackDT	1.1	SCS215a	20110121.101006	20110121.101136	dt-shadow	8	0.013328	60	10	60-180	60	172	GapPrac	1	16	2	6	1	target	1	427	787	111987	13.328	13.309	13.346
DTProbeTrack03	14	ProbeTrackDT	1.1	SCS215a	20110121.101006	20110121.101143	dt-shadow	8	0.013328	60	10	60-180	60	89	GapPrac	1	17	2	45	0	target	0	640	-1000	110987	13.328	13.097	13.549
DTProbeTrack03	14	ProbeTrackDT	1.1	SCS215a	20110121.101006	20110121.101149	dt-shadow	8	0.013328	60	10	60-180	60	171	GapPrac	1	18	2	6	0	distractor	1	534	733	111720	13.328	13.306	13.365
DTProbeTrack03	14	ProbeTrackDT	1.1	SCS215a	20110121.101006	20110121.101155	dt-shadow	8	0.013328	60	10	60-180	60	103	GapPrac	1	19	2	9	1	distractor	0	387	-1000	110720	13.328	13.312	13.344
DTProbeTrack03	14	ProbeTrackDT	1.1	SCS215a	20110121.101006	20110121.101200	dt-shadow	8	0.013328	60	10	60-180	60	144	GapPrac	1	20	2	45	0	distractor	1	800	600	111320	13.328	7.146	19.498
DTProbeTrack03	14	ProbeTrackDT	1.1	SCS215a	20110121.101252	20110121.101257	dt-shadow	8	0.013328	60	10	60-180	60	99	GapExp	1	1	2	6	1	distractor	0	547	-1000	110320	13.328	12.850	13.806
DTProbeTrack03	14	ProbeTrackDT	1.1	SCS215a	20110121.101252	20110121.101302	dt-shadow	8	0.013328	60	10	60-180	60	119	GapExp	1	2	2	9	0	distractor	1	494	753	111073	13.328	13.098	13.549
DTProbeTrack03	14	ProbeTrackDT	1.1	SCS215a	20110121.101252	20110121.101308	dt-shadow	8	0.013328	60	10	60-180	60	138	GapExp	1	3	2	1	0	target	0	507	-1000	110073	13.328	13.107	13.542
DTProbeTrack03	14	ProbeTrackDT	1.1	SCS215a	20110121.101252	20110121.101314	dt-shadow	8	0.013328	60	10	60-180	60	76	GapExp	1	4	2	45	0	distractor	1	574	713	110786	13.328	12.862	13.782
DTProbeTrack03	14	ProbeTrackDT	1.1	SCS215a	20110121.101252	20110121.101319	dt-shadow	8	0.013328	60	10	60-180	60	110	GapExp	1	5	2	3	0	distractor	1	667	667	111453	13.328	12.855	13.785
DTProbeTrack03	14	ProbeTrackDT	1.1	SCS215a	20110121.101252	20110121.101325	dt-shadow	8	0.013328	60	10	60-180	60	136	GapExp	0	6	2	9	0	distractor	1	507	747	112200	13.328	13.308	13.348
DTProbeTrack03	14	ProbeTrackDT	1.1	SCS215a	20110121.101252	20110121.101331	dt-shadow	8	0.013328	60	10	60-180	60	120	GapExp	0	7	2	9	1	target	1	400	800	113000	13.328	13.063	13.611
DTProbeTrack03	14	ProbeTrackDT	1.1	SCS215a	20110121.101252	20110121.101336	dt-shadow	8	0.013328	60	10	60-180	60	151	GapExp	0	8	2	45	0	distractor	1	813	594	113594	13.328	12.960	13.683
DTProbeTrack03	14	ProbeTrackDT	1.1	SCS215a	20110121.101252	20110121.101343	dt-shadow	8	0.013328	60	10	60-180	60	145	GapExp	0	9	2	3	0	distractor	1	587	707	114301	13.328	13.102	13.560
DTProbeTrack03	14	ProbeTrackDT	1.1	SCS215a	20110121.101252	20110121.101349	dt-shadow	8	0.013328	60	10	60-180	60	122	GapExp	0	10	2	1	0	distractor	1	1000	500	114801	13.328	13.308	13.352
DTProbeTrack03	14	ProbeTrackDT	1.1	SCS215a	20110121.101252	20110121.101355	dt-shadow	8	0.013328	60	10	60-180	60	174	GapExp	0	11	2	3	0	distractor	1	494	753	115554	13.328	13.097	13.551
DTProbeTrack03	14	ProbeTrackDT	1.1	SCS215a	20110121.101252	20110121.101402	dt-shadow	8	0.013328	60	10	60-180	60	115	GapExp	0	12	2	45	0	distractor	1	600	700	116254	13.328	13.301	13.351
DTProbeTrack03	14	ProbeTrackDT	1.1	SCS215a	20110121.101252	20110121.101408	dt-shadow	8	0.013328	60	10	60-180	60	70	GapExp	0	13	2	1	0	distractor	1	987	507	116761	13.328	13.307	13.347
DTProbeTrack03	14	ProbeTrackDT	1.1	SCS215a	20110121.101252	20110121.101413	dt-shadow	8	0.013328	60	10	60-180	60	117	GapExp	0	14	2	9	1	target	1	640	680	117441	13.328	13.091	13.549
DTProbeTrack03	14	ProbeTrackDT	1.1	SCS215a	20110121.101252	20110121.101419	dt-shadow	8	0.013328	60	10	60-180	60	113	GapExp	0	15	2	6	0	target	0	1000	-1000	116441	13.328	12.978	13.664
DTProbeTrack03	14	ProbeTrackDT	1.1	SCS215a	20110121.101252	20110121.101425	dt-shadow	8	0.013328	60	10	60-180	60	114	GapExp	0	16	2	6	1	distractor	0	627	-1000	115441	13.328	12.999	13.661
DTProbeTrack03	14	ProbeTrackDT	1.1	SCS215a	20110121.101252	20110121.101431	dt-shadow	8	0.013328	60	10	60-180	60	65	GapExp	0	17	2	1	1	target	1	547	727	116168	13.328	12.976	13.672
DTProbeTrack03	14	ProbeTrackDT	1.1	SCS215a	20110121.101252	20110121.101435	dt-shadow	8	0.013328	60	10	60-180	60	81	GapExp	0	18	2	9	0	distractor	1	574	713	116881	13.328	12.998	13.667
DTProbeTrack03	14	ProbeTrackDT	1.1	SCS215a	20110121.101252	20110121.101441	dt-shadow	8	0.013328	60	10	60-180	60	175	GapExp	0	19	2	6	0	distractor	1	440	780	117661	13.328	12.859	13.791
DTProbeTrack03	14	ProbeTrackDT	1.1	SCS215a	20110121.101252	20110121.101447	dt-shadow	8	0.013328	60	10	60-180	60	166	GapExp	0	20	2	45	1	distractor	0	587	-1000	116661	13.328	12.838	13.820
DTProbeTrack03	14	ProbeTrackDT	1.1	SCS215a	20110121.101252	20110121.101454	dt-shadow	8	0.013328	60	10	60-180	60	118	GapExp	0	21	2	9	1	target	1	414	793	117454	13.328	13.099	13.553
DTProbeTrack03	14	ProbeTrackDT	1.1	SCS215a	20110121.101252	20110121.101459	dt-shadow	8	0.013328	60	10	60-180	60	68	GapExp	0	22	2	3	1	distractor	0	1187	-1000	116454	13.328	13.306	13.349
DTProbeTrack03	14	ProbeTrackDT	1.1	SCS215a	20110121.101252	20110121.101505	dt-shadow	8	0.013328	60	10	60-180	60	101	GapExp	0	23	2	9	1	target	1	480	760	117214	13.328	12.931	13.378
DTProbeTrack03	14	ProbeTrackDT	1.1	SCS215a	20110121.101252	20110121.101510	dt-shadow	8	0.013328	60	10	60-180	60	141	GapExp	0	24	2	9	0	target	0	534	-1000	116214	13.328	12.900	13.756
DTProbeTrack03	14	ProbeTrackDT	1.1	SCS215a	20110121.101252	20110121.101516	dt-shadow	8	0.013328	60	10	60-180	60	115	GapExp	0	25	2	3	1	distractor	0	574	-1000	115214	13.328	13.158	13.486
DTProbeTrack03	14	ProbeTrackDT	1.1	SCS215a	20110121.101252	20110121.101522	dt-shadow	8	0.013328	60	10	60-180	60	61	GapExp	0	26	2	45	0	target	0	880	-1000	114214	13.328	13.106	13.561
DTProbeTrack03	14	ProbeTrackDT	1.1	SCS215a	20110121.101252	20110121.101528	dt-shadow	8	0.013328	60	10	60-180	60	156	GapExp	0	27	2	6	1	distractor	0	587	-1000	113214	13.328	12.973	13.695
DTProbeTrack03	14	ProbeTrackDT	1.1	SCS215a	20110121.101252	20110121.101534	dt-shadow	8	0.013328	60	10	60-180	60	179	GapExp	0	28	2	3	0	distractor	1	494	753	113967	13.328	12.850	13.787
DTProbeTrack03	14	ProbeTrackDT	1.1	SCS215a	20110121.101252	20110121.101541	dt-shadow	8	0.013328	60	10	60-180	60	129	GapExp	0	29	2	45	0	target	0	547	-1000	112967	13.328	12.936	13.721
DTProbeTrack03	14	ProbeTrackDT	1.1	SCS215a	20110121.101252	20110121.101547	dt-shadow	8	0.013328	60	10	60-180	60	153	GapExp	0	30	2	6	1	target	1	494	753	113720	13.328	13.306	13.357
DTProbeTrack03	14	ProbeTrackDT	1.1	SCS215a	20110121.101252	20110121.101553	dt-shadow	8	0.013328	60	10	60-180	60	142	GapExp	0	31	2	1	0	target	0	880	-1000	112720	13.328	13.307	13.355
DTProbeTrack03	14	ProbeTrackDT	1.1	SCS215a	20110121.101252	20110121.101559	dt-shadow	8	0.013328	60	10	60-180	60	102	GapExp	0	32	2	1	1	distractor	0	534	-1000	111720	13.328	13.073	13.588
DTProbeTrack03	14	ProbeTrackDT	1.1	SCS215a	20110121.101252	20110121.101604	dt-shadow	8	0.013328	60	10	60-180	60	110	GapExp	0	33	2	45	1	target	1	694	653	112373	13.328	13.305	13.347
DTProbeTrack03	14	ProbeTrackDT	1.1	SCS215a	20110121.101252	20110121.101611	dt-shadow	8	0.013328	60	10	60-180	60	129	GapExp	0	34	2	9	0	distractor	1	454	773	113146	13.328	13.059	13.593
DTProbeTrack03	14	ProbeTrackDT	1.1	SCS215a	20110121.101252	20110121.101616	dt-shadow	8	0.013328	60	10	60-180	60	121	GapExp	0	35	2	1	0	distractor	1	547	727	113873	13.328	13.095	13.555
