exp	sub	code	rev	comp	runtime	trialtime	stdt	nstim	refreshdur	cuedur	gapdur	gapOnsetRange	durPostProbe	gapOnsetTime	blocktype	prac	trial	ntargets	soa	probeTarget	resp	acc	rt	pts	tpts	meanFrameDur	minFrameDur	maxFrameDur
DTProbeTrack03	6	ProbeTrackDT	1.1	SCS215a	20101105.132701	20101105.132718	single-task	8	0.013345	60	0	60-180	60	86	NoGap	1	1	2	6	1	target	1	2199	0	0	13.328	12.973	13.684
DTProbeTrack03	6	ProbeTrackDT	1.1	SCS215a	20101105.132701	20101105.132725	single-task	8	0.013345	60	0	60-180	60	83	NoGap	1	2	2	3	0	distractor	1	534	733	733	13.328	13.088	13.557
DTProbeTrack03	6	ProbeTrackDT	1.1	SCS215a	20101105.132701	20101105.132730	single-task	8	0.013345	60	0	60-180	60	92	NoGap	1	3	2	3	1	target	1	480	760	1493	13.328	12.941	13.714
DTProbeTrack03	6	ProbeTrackDT	1.1	SCS215a	20101105.132701	20101105.132735	single-task	8	0.013345	60	0	60-180	60	68	NoGap	1	4	2	45	1	target	1	520	740	2233	13.328	12.890	13.746
DTProbeTrack03	6	ProbeTrackDT	1.1	SCS215a	20101105.132701	20101105.132740	single-task	8	0.013345	60	0	60-180	60	67	NoGap	1	5	2	1	1	target	1	414	793	3026	13.328	13.098	13.558
DTProbeTrack03	6	ProbeTrackDT	1.1	SCS215a	20101105.132701	20101105.132745	single-task	8	0.013345	60	0	60-180	60	165	NoGap	1	6	2	45	0	distractor	1	480	760	3786	13.328	13.106	13.562
DTProbeTrack03	6	ProbeTrackDT	1.1	SCS215a	20101105.132701	20101105.132752	single-task	8	0.013345	60	0	60-180	60	120	NoGap	1	7	2	1	1	target	1	467	767	4553	13.328	13.106	13.545
DTProbeTrack03	6	ProbeTrackDT	1.1	SCS215a	20101105.132701	20101105.132757	single-task	8	0.013345	60	0	60-180	60	65	NoGap	1	8	2	1	0	distractor	1	454	773	5326	13.328	13.311	13.348
DTProbeTrack03	6	ProbeTrackDT	1.1	SCS215a	20101105.132701	20101105.132801	single-task	8	0.013345	60	0	60-180	60	148	NoGap	1	9	2	3	0	distractor	1	534	733	6059	13.328	13.114	13.550
DTProbeTrack03	6	ProbeTrackDT	1.1	SCS215a	20101105.132701	20101105.132807	single-task	8	0.013345	60	0	60-180	60	68	NoGap	1	10	2	1	1	target	1	440	780	6839	13.328	13.311	13.351
DTProbeTrack03	6	ProbeTrackDT	1.1	SCS215a	20101105.132701	20101105.132812	single-task	8	0.013345	60	0	60-180	60	158	NoGap	1	11	2	3	1	target	1	440	780	7619	13.328	13.297	13.355
DTProbeTrack03	6	ProbeTrackDT	1.1	SCS215a	20101105.132701	20101105.132818	single-task	8	0.013345	60	0	60-180	60	147	NoGap	1	12	2	9	0	distractor	1	347	827	8446	13.328	13.306	13.348
DTProbeTrack03	6	ProbeTrackDT	1.1	SCS215a	20101105.132701	20101105.132824	single-task	8	0.013345	60	0	60-180	60	67	NoGap	1	13	2	45	0	distractor	1	427	787	9233	13.328	13.308	13.345
DTProbeTrack03	6	ProbeTrackDT	1.1	SCS215a	20101105.132701	20101105.132829	single-task	8	0.013345	60	0	60-180	60	166	NoGap	1	14	2	6	1	target	1	307	847	10080	13.328	13.110	13.560
DTProbeTrack03	6	ProbeTrackDT	1.1	SCS215a	20101105.132701	20101105.132835	single-task	8	0.013345	60	0	60-180	60	98	NoGap	1	15	2	9	1	target	1	360	820	10900	13.328	13.100	13.549
DTProbeTrack03	6	ProbeTrackDT	1.1	SCS215a	20101105.132701	20101105.132840	single-task	8	0.013345	60	0	60-180	60	138	NoGap	1	16	2	6	0	distractor	1	454	773	11673	13.328	13.025	13.631
DTProbeTrack03	6	ProbeTrackDT	1.1	SCS215a	20101105.132701	20101105.132845	single-task	8	0.013345	60	0	60-180	60	114	NoGap	1	17	2	3	1	target	1	427	787	12460	13.328	13.308	13.353
DTProbeTrack03	6	ProbeTrackDT	1.1	SCS215a	20101105.132701	20101105.132851	single-task	8	0.013345	60	0	60-180	60	178	NoGap	1	18	2	45	1	distractor	0	440	-1000	11460	13.328	13.097	13.551
DTProbeTrack03	6	ProbeTrackDT	1.1	SCS215a	20101105.132701	20101105.132857	single-task	8	0.013345	60	0	60-180	60	140	NoGap	1	19	2	3	0	distractor	1	454	773	12233	13.328	12.849	13.796
DTProbeTrack03	6	ProbeTrackDT	1.1	SCS215a	20101105.132701	20101105.132903	single-task	8	0.013345	60	0	60-180	60	93	NoGap	1	20	2	45	0	distractor	1	494	753	12986	13.328	13.094	13.550
DTProbeTrack03	6	ProbeTrackDT	1.1	SCS215a	20101105.132701	20101105.132908	single-task	8	0.013345	60	0	60-180	60	101	NoGap	1	21	2	1	1	target	1	400	800	13786	13.328	13.033	13.614
DTProbeTrack03	6	ProbeTrackDT	1.1	SCS215a	20101105.132701	20101105.132913	single-task	8	0.013345	60	0	60-180	60	78	NoGap	1	22	2	45	1	target	1	454	773	14559	13.328	13.306	13.348
DTProbeTrack03	6	ProbeTrackDT	1.1	SCS215a	20101105.132701	20101105.132919	single-task	8	0.013345	60	0	60-180	60	153	NoGap	1	23	2	1	0	distractor	1	414	793	15352	13.328	13.305	13.353
DTProbeTrack03	6	ProbeTrackDT	1.1	SCS215a	20101105.132701	20101105.132925	single-task	8	0.013345	60	0	60-180	60	103	NoGap	1	24	2	9	0	distractor	1	387	807	16159	13.328	12.865	13.796
DTProbeTrack03	6	ProbeTrackDT	1.1	SCS215a	20101105.132701	20101105.132930	single-task	8	0.013345	60	0	60-180	60	85	NoGap	1	25	2	9	0	distractor	1	494	753	16912	13.328	13.287	13.370
DTProbeTrack03	6	ProbeTrackDT	1.1	SCS215a	20101105.132701	20101105.132935	single-task	8	0.013345	60	0	60-180	60	146	NoGap	1	26	2	45	1	target	1	400	800	17712	13.328	13.245	13.396
DTProbeTrack03	6	ProbeTrackDT	1.1	SCS215a	20101105.132701	20101105.132941	single-task	8	0.013345	60	0	60-180	60	148	NoGap	1	27	2	9	0	distractor	1	360	820	18532	13.328	12.994	13.664
DTProbeTrack03	6	ProbeTrackDT	1.1	SCS215a	20101105.132701	20101105.132947	single-task	8	0.013345	60	0	60-180	60	95	NoGap	1	28	2	45	0	distractor	1	454	773	19305	13.328	13.307	13.348
DTProbeTrack03	6	ProbeTrackDT	1.1	SCS215a	20101105.132701	20101105.132952	single-task	8	0.013345	60	0	60-180	60	111	NoGap	1	29	2	9	1	target	1	547	727	20032	13.328	12.992	13.656
DTProbeTrack03	6	ProbeTrackDT	1.1	SCS215a	20101105.132701	20101105.132957	single-task	8	0.013345	60	0	60-180	60	127	NoGap	1	30	2	6	0	distractor	1	467	767	20799	13.328	13.097	13.552
DTProbeTrack03	6	ProbeTrackDT	1.1	SCS215a	20101105.132701	20101105.133003	single-task	8	0.013345	60	0	60-180	60	81	NoGap	1	31	2	9	1	target	1	454	773	21572	13.328	13.304	13.348
DTProbeTrack03	6	ProbeTrackDT	1.1	SCS215a	20101105.132701	20101105.133008	single-task	8	0.013345	60	0	60-180	60	113	NoGap	1	32	2	9	1	target	1	414	793	22365	13.328	13.308	13.349
DTProbeTrack03	6	ProbeTrackDT	1.1	SCS215a	20101105.132701	20101105.133013	single-task	8	0.013345	60	0	60-180	60	157	NoGap	1	33	2	6	0	distractor	1	320	840	23205	13.328	13.098	13.544
DTProbeTrack03	6	ProbeTrackDT	1.1	SCS215a	20101105.132701	20101105.133019	single-task	8	0.013345	60	0	60-180	60	149	NoGap	1	34	2	6	1	target	1	320	840	24045	13.328	13.303	13.354
DTProbeTrack03	6	ProbeTrackDT	1.1	SCS215a	20101105.132701	20101105.133024	single-task	8	0.013345	60	0	60-180	60	148	NoGap	1	35	2	6	0	distractor	1	387	807	24852	13.328	13.149	13.500
DTProbeTrack03	6	ProbeTrackDT	1.1	SCS215a	20101105.132701	20101105.133030	single-task	8	0.013345	60	0	60-180	60	96	NoGap	1	36	2	1	0	distractor	1	667	667	25519	13.328	13.307	13.346
DTProbeTrack03	6	ProbeTrackDT	1.1	SCS215a	20101105.132701	20101105.133035	single-task	8	0.013345	60	0	60-180	60	106	NoGap	1	37	2	3	0	distractor	1	547	727	26246	13.328	13.098	13.559
DTProbeTrack03	6	ProbeTrackDT	1.1	SCS215a	20101105.132701	20101105.133041	single-task	8	0.013345	60	0	60-180	60	178	NoGap	1	38	2	6	1	target	1	480	760	27006	13.328	13.094	13.545
DTProbeTrack03	6	ProbeTrackDT	1.1	SCS215a	20101105.132701	20101105.133047	single-task	8	0.013345	60	0	60-180	60	91	NoGap	1	39	2	3	1	target	1	547	727	27733	13.328	13.110	13.555
DTProbeTrack03	6	ProbeTrackDT	1.1	SCS215a	20101105.132701	20101105.133052	single-task	8	0.013345	60	0	60-180	60	145	NoGap	1	40	2	1	0	distractor	1	387	807	28540	13.328	13.260	13.390
DTProbeTrack03	6	ProbeTrackDT	1.1	SCS215a	20101105.133120	20101105.133425	dt-generate	8	0.013328	60	10	60-180	60	125	GapPrac	1	1	2	9	0	distractor	1	1040	480	29020	13.328	13.106	13.564
DTProbeTrack03	6	ProbeTrackDT	1.1	SCS215a	20101105.133120	20101105.133431	dt-generate	8	0.013328	60	10	60-180	60	98	GapPrac	1	2	2	3	0	target	0	454	-1000	28020	13.328	13.035	13.613
DTProbeTrack03	6	ProbeTrackDT	1.1	SCS215a	20101105.133120	20101105.133436	dt-generate	8	0.013328	60	10	60-180	60	104	GapPrac	1	3	2	9	1	distractor	0	574	-1000	27020	13.328	13.308	13.349
DTProbeTrack03	6	ProbeTrackDT	1.1	SCS215a	20101105.133120	20101105.133442	dt-generate	8	0.013328	60	10	60-180	60	108	GapPrac	1	4	2	6	0	target	0	680	-1000	26020	13.328	13.002	13.717
DTProbeTrack03	6	ProbeTrackDT	1.1	SCS215a	20101105.133120	20101105.133447	dt-generate	8	0.013328	60	10	60-180	60	100	GapPrac	1	5	2	6	1	distractor	0	520	-1000	25020	13.328	12.861	13.615
DTProbeTrack03	6	ProbeTrackDT	1.1	SCS215a	20101105.133120	20101105.133453	dt-generate	8	0.013328	60	10	60-180	60	121	GapPrac	1	6	2	9	0	distractor	1	560	720	25740	13.328	12.992	13.672
DTProbeTrack03	6	ProbeTrackDT	1.1	SCS215a	20101105.133120	20101105.133458	dt-generate	8	0.013328	60	10	60-180	60	176	GapPrac	1	7	2	1	1	multi	-2	9370	-1000	24740	13.328	12.843	13.794
DTProbeTrack03	6	ProbeTrackDT	1.1	SCS215a	20101105.133120	20101105.133514	dt-generate	8	0.013328	60	10	60-180	60	156	GapPrac	1	8	2	45	1	distractor	0	867	-1000	23740	13.328	12.973	13.691
DTProbeTrack03	6	ProbeTrackDT	1.1	SCS215a	20101105.133120	20101105.133521	dt-generate	8	0.013328	60	10	60-180	60	116	GapPrac	1	9	2	1	0	target	0	547	-1000	22740	13.328	13.266	13.392
DTProbeTrack03	6	ProbeTrackDT	1.1	SCS215a	20101105.133120	20101105.133526	dt-generate	8	0.013328	60	10	60-180	60	133	GapPrac	1	10	2	3	1	distractor	0	1067	-1000	21740	13.328	12.971	13.683
DTProbeTrack03	6	ProbeTrackDT	1.1	SCS215a	20101105.133120	20101105.133532	dt-generate	8	0.013328	60	10	60-180	60	166	GapPrac	1	11	2	1	1	distractor	0	693	-1000	20740	13.328	13.305	13.347
DTProbeTrack03	6	ProbeTrackDT	1.1	SCS215a	20101105.133120	20101105.133539	dt-generate	8	0.013328	60	10	60-180	60	65	GapPrac	1	12	2	6	0	target	0	360	-1000	19740	13.328	12.879	13.778
DTProbeTrack03	6	ProbeTrackDT	1.1	SCS215a	20101105.133120	20101105.133543	dt-generate	8	0.013328	60	10	60-180	60	73	GapPrac	1	13	2	1	0	distractor	1	534	733	20473	13.328	13.107	13.558
DTProbeTrack03	6	ProbeTrackDT	1.1	SCS215a	20101105.133120	20101105.133548	dt-generate	8	0.013328	60	10	60-180	60	72	GapPrac	1	14	2	6	1	target	1	520	740	21213	13.328	13.074	13.591
DTProbeTrack03	6	ProbeTrackDT	1.1	SCS215a	20101105.133120	20101105.133553	dt-generate	8	0.013328	60	10	60-180	60	80	GapPrac	1	15	2	45	0	distractor	1	933	534	21747	13.328	13.309	13.346
DTProbeTrack03	6	ProbeTrackDT	1.1	SCS215a	20101105.133120	20101105.133559	dt-generate	8	0.013328	60	10	60-180	60	135	GapPrac	1	16	2	9	1	target	1	414	793	22540	13.328	13.018	13.638
DTProbeTrack03	6	ProbeTrackDT	1.1	SCS215a	20101105.133120	20101105.133605	dt-generate	8	0.013328	60	10	60-180	60	63	GapPrac	1	17	2	3	0	distractor	1	733	634	23174	13.328	13.099	13.543
DTProbeTrack03	6	ProbeTrackDT	1.1	SCS215a	20101105.133120	20101105.133610	dt-generate	8	0.013328	60	10	60-180	60	65	GapPrac	1	18	2	3	1	distractor	0	480	-1000	22174	13.328	12.977	13.685
DTProbeTrack03	6	ProbeTrackDT	1.1	SCS215a	20101105.133120	20101105.133614	dt-generate	8	0.013328	60	10	60-180	60	141	GapPrac	1	19	2	45	1	target	1	707	647	22821	13.328	13.093	13.564
DTProbeTrack03	6	ProbeTrackDT	1.1	SCS215a	20101105.133120	20101105.133621	dt-generate	8	0.013328	60	10	60-180	60	140	GapPrac	1	20	2	45	0	target	0	547	-1000	21821	13.328	13.042	13.614
DTProbeTrack03	6	ProbeTrackDT	1.1	SCS215a	20101105.133723	20101105.133731	dt-generate	8	0.013328	60	10	60-180	60	67	GapExp	1	1	2	6	0	distractor	1	640	680	22501	13.328	13.156	13.507
DTProbeTrack03	6	ProbeTrackDT	1.1	SCS215a	20101105.133723	20101105.133736	dt-generate	8	0.013328	60	10	60-180	60	107	GapExp	1	2	2	45	0	distractor	1	547	727	23228	13.328	12.900	13.766
DTProbeTrack03	6	ProbeTrackDT	1.1	SCS215a	20101105.133723	20101105.133742	dt-generate	8	0.013328	60	10	60-180	60	63	GapExp	1	3	2	6	1	target	1	520	740	23968	13.328	13.083	13.575
DTProbeTrack03	6	ProbeTrackDT	1.1	SCS215a	20101105.133723	20101105.133747	dt-generate	8	0.013328	60	10	60-180	60	176	GapExp	1	4	2	45	1	distractor	0	627	-1000	22968	13.328	12.906	13.744
DTProbeTrack03	6	ProbeTrackDT	1.1	SCS215a	20101105.133723	20101105.133754	dt-generate	8	0.013328	60	10	60-180	60	156	GapExp	1	5	2	1	0	distractor	1	760	620	23588	13.328	12.942	13.720
DTProbeTrack03	6	ProbeTrackDT	1.1	SCS215a	20101105.133723	20101105.133800	dt-generate	8	0.013328	60	10	60-180	60	157	GapExp	0	6	2	9	1	target	1	707	647	24235	13.328	12.958	13.699
DTProbeTrack03	6	ProbeTrackDT	1.1	SCS215a	20101105.133723	20101105.133806	dt-generate	8	0.013328	60	10	60-180	60	104	GapExp	0	7	2	3	1	target	1	733	634	24869	13.328	13.308	13.349
DTProbeTrack03	6	ProbeTrackDT	1.1	SCS215a	20101105.133723	20101105.133812	dt-generate	8	0.013328	60	10	60-180	60	171	GapExp	0	8	2	6	1	target	1	560	720	25589	13.328	13.003	13.627
DTProbeTrack03	6	ProbeTrackDT	1.1	SCS215a	20101105.133723	20101105.133818	dt-generate	8	0.013328	60	10	60-180	60	150	GapExp	0	9	2	3	1	target	1	494	753	26342	13.328	12.907	13.737
DTProbeTrack03	6	ProbeTrackDT	1.1	SCS215a	20101105.133723	20101105.133824	dt-generate	8	0.013328	60	10	60-180	60	65	GapExp	0	10	2	1	0	target	0	507	-1000	25342	13.328	13.087	13.573
DTProbeTrack03	6	ProbeTrackDT	1.1	SCS215a	20101105.133723	20101105.133829	dt-generate	8	0.013328	60	10	60-180	60	176	GapExp	0	11	2	1	1	distractor	0	693	-1000	24342	13.328	13.106	13.550
DTProbeTrack03	6	ProbeTrackDT	1.1	SCS215a	20101105.133723	20101105.133835	dt-generate	8	0.013328	60	10	60-180	60	121	GapExp	0	12	2	6	0	target	0	534	-1000	23342	13.328	12.910	13.740
DTProbeTrack03	6	ProbeTrackDT	1.1	SCS215a	20101105.133723	20101105.133841	dt-generate	8	0.013328	60	10	60-180	60	175	GapExp	0	13	2	45	1	target	1	574	713	24055	13.328	12.980	13.677
DTProbeTrack03	6	ProbeTrackDT	1.1	SCS215a	20101105.133723	20101105.133848	dt-generate	8	0.013328	60	10	60-180	60	99	GapExp	0	14	2	9	0	distractor	1	454	773	24828	13.328	13.298	13.361
DTProbeTrack03	6	ProbeTrackDT	1.1	SCS215a	20101105.133723	20101105.133853	dt-generate	8	0.013328	60	10	60-180	60	145	GapExp	0	15	2	9	1	target	1	467	767	25595	13.328	12.963	13.766
DTProbeTrack03	6	ProbeTrackDT	1.1	SCS215a	20101105.133723	20101105.133859	dt-generate	8	0.013328	60	10	60-180	60	98	GapExp	0	16	2	3	1	target	1	640	680	26275	13.328	12.991	13.683
DTProbeTrack03	6	ProbeTrackDT	1.1	SCS215a	20101105.133723	20101105.133904	dt-generate	8	0.013328	60	10	60-180	60	83	GapExp	0	17	2	3	0	target	0	494	-1000	25275	13.328	13.093	13.556
DTProbeTrack03	6	ProbeTrackDT	1.1	SCS215a	20101105.133723	20101105.133909	dt-generate	8	0.013328	60	10	60-180	60	160	GapExp	0	18	2	3	1	distractor	0	507	-1000	24275	13.328	12.987	13.682
DTProbeTrack03	6	ProbeTrackDT	1.1	SCS215a	20101105.133723	20101105.133915	dt-generate	8	0.013328	60	10	60-180	60	168	GapExp	0	19	2	9	1	target	1	494	753	25028	13.328	13.177	13.466
DTProbeTrack03	6	ProbeTrackDT	1.1	SCS215a	20101105.133723	20101105.133922	dt-generate	8	0.013328	60	10	60-180	60	86	GapExp	0	20	2	45	0	distractor	1	427	787	25815	13.328	12.860	13.809
DTProbeTrack03	6	ProbeTrackDT	1.1	SCS215a	20101105.133723	20101105.133927	dt-generate	8	0.013328	60	10	60-180	60	88	GapExp	0	21	2	6	1	target	1	574	713	26528	13.328	13.099	13.540
DTProbeTrack03	6	ProbeTrackDT	1.1	SCS215a	20101105.133723	20101105.133932	dt-generate	8	0.013328	60	10	60-180	60	134	GapExp	0	22	2	6	0	target	0	654	-1000	25528	13.328	13.099	13.565
DTProbeTrack03	6	ProbeTrackDT	1.1	SCS215a	20101105.133723	20101105.133938	dt-generate	8	0.013328	60	10	60-180	60	128	GapExp	0	23	2	9	0	distractor	1	534	733	26261	13.328	13.104	13.544
DTProbeTrack03	6	ProbeTrackDT	1.1	SCS215a	20101105.133723	20101105.133944	dt-generate	8	0.013328	60	10	60-180	60	179	GapExp	0	24	2	45	0	distractor	1	520	740	27001	13.328	12.842	13.800
DTProbeTrack03	6	ProbeTrackDT	1.1	SCS215a	20101105.133723	20101105.133951	dt-generate	8	0.013328	60	10	60-180	60	123	GapExp	0	25	2	3	0	target	0	720	-1000	26001	13.328	13.303	13.356
DTProbeTrack03	6	ProbeTrackDT	1.1	SCS215a	20101105.133723	20101105.133957	dt-generate	8	0.013328	60	10	60-180	60	143	GapExp	0	26	2	9	0	distractor	1	693	654	26655	13.328	13.299	13.349
DTProbeTrack03	6	ProbeTrackDT	1.1	SCS215a	20101105.133723	20101105.134003	dt-generate	8	0.013328	60	10	60-180	60	160	GapExp	0	27	2	1	0	distractor	1	547	727	27382	13.328	13.203	13.452
DTProbeTrack03	6	ProbeTrackDT	1.1	SCS215a	20101105.133723	20101105.134009	dt-generate	8	0.013328	60	10	60-180	60	62	GapExp	0	28	2	6	1	target	1	640	680	28062	13.328	13.104	13.565
DTProbeTrack03	6	ProbeTrackDT	1.1	SCS215a	20101105.133723	20101105.134014	dt-generate	8	0.013328	60	10	60-180	60	166	GapExp	0	29	2	1	1	target	1	653	674	28736	13.328	13.046	13.646
DTProbeTrack03	6	ProbeTrackDT	1.1	SCS215a	20101105.133723	20101105.134020	dt-generate	8	0.013328	60	10	60-180	60	177	GapExp	0	30	2	9	0	distractor	1	693	654	29390	13.328	13.095	13.558
DTProbeTrack03	6	ProbeTrackDT	1.1	SCS215a	20101105.133723	20101105.134027	dt-generate	8	0.013328	60	10	60-180	60	145	GapExp	0	31	2	6	1	target	1	227	887	30277	13.328	12.919	13.722
DTProbeTrack03	6	ProbeTrackDT	1.1	SCS215a	20101105.133723	20101105.134032	dt-generate	8	0.013328	60	10	60-180	60	135	GapExp	0	32	2	6	1	target	1	507	747	31024	13.328	12.945	13.720
DTProbeTrack03	6	ProbeTrackDT	1.1	SCS215a	20101105.133723	20101105.134038	dt-generate	8	0.013328	60	10	60-180	60	90	GapExp	0	33	2	3	1	target	1	733	634	31658	13.328	13.309	13.347
DTProbeTrack03	6	ProbeTrackDT	1.1	SCS215a	20101105.133723	20101105.134043	dt-generate	8	0.013328	60	10	60-180	60	162	GapExp	0	34	2	1	0	distractor	1	560	720	32378	13.328	13.103	13.561
DTProbeTrack03	6	ProbeTrackDT	1.1	SCS215a	20101105.133723	20101105.134049	dt-generate	8	0.013328	60	10	60-180	60	177	GapExp	0	35	2	1	1	target	1	560	720	33098	13.328	13.307	13.351
DTProbeTrack03	6	ProbeTrackDT	1.1	SCS215a	20101105.133723	20101105.134056	dt-generate	8	0.013328	60	10	60-180	60	68	GapExp	0	36	2	1	0	distractor	1	893	554	33652	13.328	12.852	13.799
DTProbeTrack03	6	ProbeTrackDT	1.1	SCS215a	20101105.133723	20101105.134101	dt-generate	8	0.013328	60	10	60-180	60	80	GapExp	0	37	2	3	0	distractor	1	627	687	34339	13.328	13.038	13.689
DTProbeTrack03	6	ProbeTrackDT	1.1	SCS215a	20101105.133723	20101105.134106	dt-generate	8	0.013328	60	10	60-180	60	136	GapExp	0	38	2	9	0	target	0	494	-1000	33339	13.328	12.873	13.785
DTProbeTrack03	6	ProbeTrackDT	1.1	SCS215a	20101105.133723	20101105.134112	dt-generate	8	0.013328	60	10	60-180	60	134	GapExp	0	39	2	45	0	distractor	1	587	707	34046	13.328	13.044	13.648
DTProbeTrack03	6	ProbeTrackDT	1.1	SCS215a	20101105.133723	20101105.134118	dt-generate	8	0.013328	60	10	60-180	60	124	GapExp	0	40	2	1	1	target	1	640	680	34726	13.328	13.096	13.558
DTProbeTrack03	6	ProbeTrackDT	1.1	SCS215a	20101105.133723	20101105.134124	dt-generate	8	0.013328	60	10	60-180	60	151	GapExp	0	41	2	3	0	target	0	307	-1000	33726	13.328	13.027	13.641
DTProbeTrack03	6	ProbeTrackDT	1.1	SCS215a	20101105.133723	20101105.134130	dt-generate	8	0.013328	60	10	60-180	60	94	GapExp	0	42	2	6	0	distractor	1	547	727	34453	13.328	12.911	13.756
DTProbeTrack03	6	ProbeTrackDT	1.1	SCS215a	20101105.133723	20101105.134135	dt-generate	8	0.013328	60	10	60-180	60	171	GapExp	0	43	2	6	1	target	1	454	773	35226	13.328	13.186	13.483
DTProbeTrack03	6	ProbeTrackDT	1.1	SCS215a	20101105.133723	20101105.134141	dt-generate	8	0.013328	60	10	60-180	60	178	GapExp	0	44	2	3	1	target	1	800	600	35826	13.328	13.143	13.514
DTProbeTrack03	6	ProbeTrackDT	1.1	SCS215a	20101105.133723	20101105.134148	dt-generate	8	0.013328	60	10	60-180	60	111	GapExp	0	45	2	9	1	target	1	480	760	36586	13.328	12.895	13.760
DTProbeTrack03	6	ProbeTrackDT	1.1	SCS215a	20101105.133723	20101105.134153	dt-generate	8	0.013328	60	10	60-180	60	69	GapExp	0	46	2	45	1	target	1	8490	0	36586	13.328	13.102	13.550
DTProbeTrack03	6	ProbeTrackDT	1.1	SCS215a	20101105.133723	20101105.134207	dt-generate	8	0.013328	60	10	60-180	60	120	GapExp	0	47	2	3	0	target	0	507	-1000	35586	13.435	13.099	39.962
DTProbeTrack03	6	ProbeTrackDT	1.1	SCS215a	20101105.133723	20101105.134212	dt-generate	8	0.013328	60	10	60-180	60	127	GapExp	0	48	2	1	0	distractor	1	1973	14	35600	13.328	13.094	13.575
DTProbeTrack03	6	ProbeTrackDT	1.1	SCS215a	20101105.133723	20101105.134219	dt-generate	8	0.013328	60	10	60-180	60	96	GapExp	0	49	2	45	1	target	1	534	733	36333	13.328	12.930	13.722
DTProbeTrack03	6	ProbeTrackDT	1.1	SCS215a	20101105.133723	20101105.134225	dt-generate	8	0.013328	60	10	60-180	60	95	GapExp	0	50	2	6	0	distractor	1	494	753	37086	13.328	13.148	13.528
DTProbeTrack03	6	ProbeTrackDT	1.1	SCS215a	20101105.133723	20101105.134242	dt-generate	8	0.013328	60	10	60-180	60	85	GapExp	0	51	2	9	0	distractor	1	654	673	37759	13.328	13.099	13.558
DTProbeTrack03	6	ProbeTrackDT	1.1	SCS215a	20101105.133723	20101105.134247	dt-generate	8	0.013328	60	10	60-180	60	81	GapExp	0	52	2	3	0	distractor	1	600	700	38459	13.328	13.309	13.347
DTProbeTrack03	6	ProbeTrackDT	1.1	SCS215a	20101105.133723	20101105.134252	dt-generate	8	0.013328	60	10	60-180	60	155	GapExp	0	53	2	1	1	target	1	520	740	39199	13.328	13.301	13.347
DTProbeTrack03	6	ProbeTrackDT	1.1	SCS215a	20101105.133723	20101105.134258	dt-generate	8	0.013328	60	10	60-180	60	70	GapExp	0	54	2	6	1	distractor	0	627	-1000	38199	13.328	12.897	13.757
DTProbeTrack03	6	ProbeTrackDT	1.1	SCS215a	20101105.133723	20101105.134303	dt-generate	8	0.013328	60	10	60-180	60	154	GapExp	0	55	2	45	0	distractor	1	414	793	38992	13.328	13.269	13.392
DTProbeTrack03	6	ProbeTrackDT	1.1	SCS215a	20101105.133723	20101105.134309	dt-generate	8	0.013328	60	10	60-180	60	112	GapExp	0	56	2	9	1	target	1	454	773	39765	13.328	13.086	13.556
DTProbeTrack03	6	ProbeTrackDT	1.1	SCS215a	20101105.133723	20101105.134315	dt-generate	8	0.013328	60	10	60-180	60	125	GapExp	0	57	2	9	1	target	1	467	767	40532	13.328	13.305	13.353
DTProbeTrack03	6	ProbeTrackDT	1.1	SCS215a	20101105.133723	20101105.134321	dt-generate	8	0.013328	60	10	60-180	60	180	GapExp	0	58	2	1	0	target	0	1400	-1000	39532	13.328	13.306	13.348
DTProbeTrack03	6	ProbeTrackDT	1.1	SCS215a	20101105.133723	20101105.134328	dt-generate	8	0.013328	60	10	60-180	60	141	GapExp	0	59	2	45	0	distractor	1	574	713	40245	13.328	13.297	13.348
DTProbeTrack03	6	ProbeTrackDT	1.1	SCS215a	20101105.133723	20101105.134334	dt-generate	8	0.013328	60	10	60-180	60	165	GapExp	0	60	2	45	1	target	1	693	654	40899	13.328	12.830	13.812
DTProbeTrack03	6	ProbeTrackDT	1.1	SCS215a	20101105.133723	20101105.134341	dt-generate	8	0.013328	60	10	60-180	60	177	GapExp	0	61	2	45	1	target	1	880	560	41459	13.328	13.286	13.363
DTProbeTrack03	6	ProbeTrackDT	1.1	SCS215a	20101105.133723	20101105.134348	dt-generate	8	0.013328	60	10	60-180	60	178	GapExp	0	62	2	45	1	target	1	1107	447	41906	13.328	12.909	13.765
DTProbeTrack03	6	ProbeTrackDT	1.1	SCS215a	20101105.133723	20101105.134356	dt-generate	8	0.013328	60	10	60-180	60	156	GapExp	0	63	2	9	1	target	1	880	560	42466	13.328	12.879	13.776
DTProbeTrack03	6	ProbeTrackDT	1.1	SCS215a	20101105.133723	20101105.134402	dt-generate	8	0.013328	60	10	60-180	60	141	GapExp	0	64	2	1	1	target	1	534	733	43199	13.328	12.848	13.809
DTProbeTrack03	6	ProbeTrackDT	1.1	SCS215a	20101105.133723	20101105.134408	dt-generate	8	0.013328	60	10	60-180	60	99	GapExp	0	65	2	45	1	target	1	374	813	44012	13.328	13.304	13.357
DTProbeTrack03	6	ProbeTrackDT	1.1	SCS215a	20101105.133723	20101105.134414	dt-generate	8	0.013328	60	10	60-180	60	106	GapExp	0	66	2	9	1	target	1	1133	434	44446	13.328	13.307	13.354
DTProbeTrack03	6	ProbeTrackDT	1.1	SCS215a	20101105.133723	20101105.134420	dt-generate	8	0.013328	60	10	60-180	60	110	GapExp	0	67	2	6	0	target	0	1346	-1000	43446	13.328	13.104	13.553
DTProbeTrack03	6	ProbeTrackDT	1.1	SCS215a	20101105.133723	20101105.134426	dt-generate	8	0.013328	60	10	60-180	60	62	GapExp	0	68	2	9	0	distractor	1	720	640	44086	13.328	12.943	13.714
DTProbeTrack03	6	ProbeTrackDT	1.1	SCS215a	20101105.133723	20101105.134431	dt-generate	8	0.013328	60	10	60-180	60	96	GapExp	0	69	2	6	0	distractor	1	733	634	44720	13.328	12.891	13.762
DTProbeTrack03	6	ProbeTrackDT	1.1	SCS215a	20101105.133723	20101105.134437	dt-generate	8	0.013328	60	10	60-180	60	96	GapExp	0	70	2	6	0	target	0	600	-1000	43720	13.328	13.028	13.623
DTProbeTrack03	6	ProbeTrackDT	1.1	SCS215a	20101105.133723	20101105.134442	dt-generate	8	0.013328	60	10	60-180	60	84	GapExp	0	71	2	3	1	target	1	773	614	44334	13.328	13.106	13.568
DTProbeTrack03	6	ProbeTrackDT	1.1	SCS215a	20101105.133723	20101105.134447	dt-generate	8	0.013328	60	10	60-180	60	92	GapExp	0	72	2	1	0	distractor	1	480	760	45094	13.328	13.107	13.556
DTProbeTrack03	6	ProbeTrackDT	1.1	SCS215a	20101105.133723	20101105.134452	dt-generate	8	0.013328	60	10	60-180	60	138	GapExp	0	73	2	6	0	target	0	360	-1000	44094	13.328	13.307	13.357
DTProbeTrack03	6	ProbeTrackDT	1.1	SCS215a	20101105.133723	20101105.134458	dt-generate	8	0.013328	60	10	60-180	60	157	GapExp	0	74	2	6	1	distractor	0	1320	-1000	43094	13.328	13.300	13.349
DTProbeTrack03	6	ProbeTrackDT	1.1	SCS215a	20101105.133723	20101105.134505	dt-generate	8	0.013328	60	10	60-180	60	80	GapExp	0	75	2	3	0	target	0	507	-1000	42094	13.328	13.302	13.347
DTProbeTrack03	6	ProbeTrackDT	1.1	SCS215a	20101105.133723	20101105.134510	dt-generate	8	0.013328	60	10	60-180	60	161	GapExp	0	76	2	1	1	distractor	0	520	-1000	41094	13.328	13.116	13.552
DTProbeTrack03	6	ProbeTrackDT	1.1	SCS215a	20101105.133723	20101105.134516	dt-generate	8	0.013328	60	10	60-180	60	169	GapExp	0	77	2	1	0	distractor	1	467	767	41861	13.328	13.189	13.481
DTProbeTrack03	6	ProbeTrackDT	1.1	SCS215a	20101105.133723	20101105.134522	dt-generate	8	0.013328	60	10	60-180	60	160	GapExp	0	78	2	45	1	target	1	494	753	42614	13.328	12.988	13.667
DTProbeTrack03	6	ProbeTrackDT	1.1	SCS215a	20101105.133723	20101105.134529	dt-generate	8	0.013328	60	10	60-180	60	86	GapExp	0	79	2	45	0	distractor	1	534	733	43347	13.328	13.098	13.552
DTProbeTrack03	6	ProbeTrackDT	1.1	SCS215a	20101105.133723	20101105.134534	dt-generate	8	0.013328	60	10	60-180	60	107	GapExp	0	80	2	3	1	target	1	534	733	44080	13.328	13.193	13.455
DTProbeTrack03	6	ProbeTrackDT	1.1	SCS215a	20101105.133723	20101105.134540	dt-generate	8	0.013328	60	10	60-180	60	121	GapExp	0	81	2	6	1	target	1	667	667	44747	13.328	13.307	13.346
DTProbeTrack03	6	ProbeTrackDT	1.1	SCS215a	20101105.133723	20101105.134546	dt-generate	8	0.013328	60	10	60-180	60	176	GapExp	0	82	2	6	0	target	0	600	-1000	43747	13.328	13.021	13.636
DTProbeTrack03	6	ProbeTrackDT	1.1	SCS215a	20101105.133723	20101105.134552	dt-generate	8	0.013328	60	10	60-180	60	121	GapExp	0	83	2	3	1	target	1	440	780	44527	13.328	12.878	13.788
DTProbeTrack03	6	ProbeTrackDT	1.1	SCS215a	20101105.133723	20101105.134558	dt-generate	8	0.013328	60	10	60-180	60	111	GapExp	0	84	2	9	0	target	0	547	-1000	43527	13.328	13.107	13.563
DTProbeTrack03	6	ProbeTrackDT	1.1	SCS215a	20101105.133723	20101105.134603	dt-generate	8	0.013328	60	10	60-180	60	173	GapExp	0	85	2	6	1	target	1	454	773	44300	13.328	13.112	13.537
DTProbeTrack03	6	ProbeTrackDT	1.1	SCS215a	20101105.133723	20101105.134609	dt-generate	8	0.013328	60	10	60-180	60	140	GapExp	0	86	2	1	0	target	0	627	-1000	43300	13.328	12.953	13.703
DTProbeTrack03	6	ProbeTrackDT	1.1	SCS215a	20101105.133723	20101105.134615	dt-generate	8	0.013328	60	10	60-180	60	117	GapExp	0	87	2	9	0	target	0	747	-1000	42300	13.328	12.907	13.767
DTProbeTrack03	6	ProbeTrackDT	1.1	SCS215a	20101105.133723	20101105.134621	dt-generate	8	0.013328	60	10	60-180	60	75	GapExp	0	88	2	9	0	distractor	1	733	634	42934	13.328	13.312	13.346
DTProbeTrack03	6	ProbeTrackDT	1.1	SCS215a	20101105.133723	20101105.134626	dt-generate	8	0.013328	60	10	60-180	60	146	GapExp	0	89	2	6	0	target	0	507	-1000	41934	13.328	12.949	13.699
DTProbeTrack03	6	ProbeTrackDT	1.1	SCS215a	20101105.133723	20101105.134632	dt-generate	8	0.013328	60	10	60-180	60	136	GapExp	0	90	2	3	0	distractor	1	640	680	42614	13.328	13.107	13.563
DTProbeTrack03	6	ProbeTrackDT	1.1	SCS215a	20101105.133723	20101105.134638	dt-generate	8	0.013328	60	10	60-180	60	151	GapExp	0	91	2	1	0	target	0	280	-1000	41614	13.328	12.878	13.781
DTProbeTrack03	6	ProbeTrackDT	1.1	SCS215a	20101105.133723	20101105.134644	dt-generate	8	0.013328	60	10	60-180	60	101	GapExp	0	92	2	45	0	distractor	1	280	860	42474	13.328	13.275	13.381
DTProbeTrack03	6	ProbeTrackDT	1.1	SCS215a	20101105.133723	20101105.134650	dt-generate	8	0.013328	60	10	60-180	60	167	GapExp	0	93	2	9	1	target	1	427	787	43261	13.328	12.901	13.747
DTProbeTrack03	6	ProbeTrackDT	1.1	SCS215a	20101105.133723	20101105.134656	dt-generate	8	0.013328	60	10	60-180	60	115	GapExp	0	94	2	6	1	target	1	507	747	44008	13.328	13.312	13.348
DTProbeTrack03	6	ProbeTrackDT	1.1	SCS215a	20101105.133723	20101105.134701	dt-generate	8	0.013328	60	10	60-180	60	142	GapExp	0	95	2	9	1	distractor	0	2786	-1000	43008	13.328	13.099	13.545
DTProbeTrack03	6	ProbeTrackDT	1.1	SCS215a	20101105.133723	20101105.134709	dt-generate	8	0.013328	60	10	60-180	60	166	GapExp	0	96	2	1	1	distractor	0	574	-1000	42008	13.328	13.113	13.545
DTProbeTrack03	6	ProbeTrackDT	1.1	SCS215a	20101105.133723	20101105.134716	dt-generate	8	0.013328	60	10	60-180	60	149	GapExp	0	97	2	9	0	target	0	360	-1000	41008	13.328	12.927	13.732
DTProbeTrack03	6	ProbeTrackDT	1.1	SCS215a	20101105.133723	20101105.134721	dt-generate	8	0.013328	60	10	60-180	60	121	GapExp	0	98	2	3	0	distractor	1	614	693	41701	13.328	13.097	13.552
DTProbeTrack03	6	ProbeTrackDT	1.1	SCS215a	20101105.133723	20101105.134727	dt-generate	8	0.013328	60	10	60-180	60	168	GapExp	0	99	2	3	1	target	1	1426	287	41988	13.328	12.878	13.770
DTProbeTrack03	6	ProbeTrackDT	1.1	SCS215a	20101105.133723	20101105.134734	dt-generate	8	0.013328	60	10	60-180	60	144	GapExp	0	100	2	45	0	distractor	1	920	540	42528	13.328	13.104	13.546
DTProbeTrack03	6	ProbeTrackDT	1.1	SCS215a	20101105.133723	20101105.134824	dt-generate	8	0.013328	60	10	60-180	60	149	GapExp	0	101	2	3	1	target	1	707	647	43175	13.328	13.099	13.552
DTProbeTrack03	6	ProbeTrackDT	1.1	SCS215a	20101105.133723	20101105.134830	dt-generate	8	0.013328	60	10	60-180	60	71	GapExp	0	102	2	1	1	target	1	534	733	43908	13.328	12.974	13.675
DTProbeTrack03	6	ProbeTrackDT	1.1	SCS215a	20101105.133723	20101105.134835	dt-generate	8	0.013328	60	10	60-180	60	73	GapExp	0	103	2	6	1	target	1	467	767	44675	13.328	12.985	13.681
DTProbeTrack03	6	ProbeTrackDT	1.1	SCS215a	20101105.133723	20101105.134840	dt-generate	8	0.013328	60	10	60-180	60	118	GapExp	0	104	2	1	0	distractor	1	587	707	45382	13.328	13.308	13.347
DTProbeTrack03	6	ProbeTrackDT	1.1	SCS215a	20101105.133723	20101105.134846	dt-generate	8	0.013328	60	10	60-180	60	92	GapExp	0	105	2	3	0	distractor	1	387	807	46189	13.328	13.106	13.555
DTProbeTrack03	6	ProbeTrackDT	1.1	SCS215a	20101105.133723	20101105.134851	dt-generate	8	0.013328	60	10	60-180	60	91	GapExp	0	106	2	6	0	target	0	1053	-1000	45189	13.328	13.304	13.352
DTProbeTrack03	6	ProbeTrackDT	1.1	SCS215a	20101105.133723	20101105.134856	dt-generate	8	0.013328	60	10	60-180	60	66	GapExp	0	107	2	6	1	target	1	574	713	45902	13.328	13.091	13.554
DTProbeTrack03	6	ProbeTrackDT	1.1	SCS215a	20101105.133723	20101105.134901	dt-generate	8	0.013328	60	10	60-180	60	80	GapExp	0	108	2	9	1	target	1	640	680	46582	13.328	13.112	13.544
DTProbeTrack03	6	ProbeTrackDT	1.1	SCS215a	20101105.133723	20101105.134907	dt-generate	8	0.013328	60	10	60-180	60	76	GapExp	0	109	2	9	1	distractor	0	1133	-1000	45582	13.328	13.100	13.558
DTProbeTrack03	6	ProbeTrackDT	1.1	SCS215a	20101105.133723	20101105.134912	dt-generate	8	0.013328	60	10	60-180	60	102	GapExp	0	110	2	1	1	target	1	400	800	46382	13.328	12.968	13.693
DTProbeTrack03	6	ProbeTrackDT	1.1	SCS215a	20101105.133723	20101105.134917	dt-generate	8	0.013328	60	10	60-180	60	94	GapExp	0	111	2	6	1	target	1	414	793	47175	13.328	13.200	13.441
DTProbeTrack03	6	ProbeTrackDT	1.1	SCS215a	20101105.133723	20101105.134922	dt-generate	8	0.013328	60	10	60-180	60	90	GapExp	0	112	2	45	0	distractor	1	440	780	47955	13.328	13.093	13.560
DTProbeTrack03	6	ProbeTrackDT	1.1	SCS215a	20101105.133723	20101105.134928	dt-generate	8	0.013328	60	10	60-180	60	116	GapExp	0	113	2	6	0	target	0	1386	-1000	46955	13.328	12.921	13.734
DTProbeTrack03	6	ProbeTrackDT	1.1	SCS215a	20101105.133723	20101105.134934	dt-generate	8	0.013328	60	10	60-180	60	155	GapExp	0	114	2	9	1	target	1	1013	494	47449	13.328	13.102	13.552
DTProbeTrack03	6	ProbeTrackDT	1.1	SCS215a	20101105.133723	20101105.134941	dt-generate	8	0.013328	60	10	60-180	60	124	GapExp	0	115	2	45	1	distractor	0	613	-1000	46449	13.372	13.312	26.659
DTProbeTrack03	6	ProbeTrackDT	1.1	SCS215a	20101105.133723	20101105.134947	dt-generate	8	0.013328	60	10	60-180	60	167	GapExp	0	116	2	1	0	distractor	1	467	767	47216	13.328	13.104	13.538
DTProbeTrack03	6	ProbeTrackDT	1.1	SCS215a	20101105.133723	20101105.134953	dt-generate	8	0.013328	60	10	60-180	60	148	GapExp	0	117	2	9	0	distractor	1	587	707	47923	13.328	12.874	13.797
DTProbeTrack03	6	ProbeTrackDT	1.1	SCS215a	20101105.133723	20101105.134959	dt-generate	8	0.013328	60	10	60-180	60	122	GapExp	0	118	2	9	0	target	0	574	-1000	46923	13.328	13.297	13.360
DTProbeTrack03	6	ProbeTrackDT	1.1	SCS215a	20101105.133723	20101105.135005	dt-generate	8	0.013328	60	10	60-180	60	162	GapExp	0	119	2	9	1	target	1	747	627	47550	13.328	13.305	13.347
DTProbeTrack03	6	ProbeTrackDT	1.1	SCS215a	20101105.133723	20101105.135011	dt-generate	8	0.013328	60	10	60-180	60	137	GapExp	0	120	2	3	0	distractor	1	627	687	48237	13.328	12.884	13.776
DTProbeTrack03	6	ProbeTrackDT	1.1	SCS215a	20101105.133723	20101105.135017	dt-generate	8	0.013328	60	10	60-180	60	162	GapExp	0	121	2	6	1	target	1	427	787	49024	13.328	13.310	13.345
DTProbeTrack03	6	ProbeTrackDT	1.1	SCS215a	20101105.133723	20101105.135023	dt-generate	8	0.013328	60	10	60-180	60	156	GapExp	0	122	2	9	1	target	1	400	800	49824	13.328	13.118	13.552
DTProbeTrack03	6	ProbeTrackDT	1.1	SCS215a	20101105.133723	20101105.135029	dt-generate	8	0.013328	60	10	60-180	60	91	GapExp	0	123	2	1	0	target	0	800	-1000	48824	13.328	13.293	13.347
DTProbeTrack03	6	ProbeTrackDT	1.1	SCS215a	20101105.133723	20101105.135035	dt-generate	8	0.013328	60	10	60-180	60	158	GapExp	0	124	2	45	1	distractor	0	667	-1000	47824	13.328	13.309	13.356
DTProbeTrack03	6	ProbeTrackDT	1.1	SCS215a	20101105.133723	20101105.135042	dt-generate	8	0.013328	60	10	60-180	60	85	GapExp	0	125	2	1	0	target	0	454	-1000	46824	13.328	13.306	13.346
DTProbeTrack03	6	ProbeTrackDT	1.1	SCS215a	20101105.133723	20101105.135047	dt-generate	8	0.013328	60	10	60-180	60	151	GapExp	0	126	2	45	1	target	1	507	747	47571	13.328	12.843	13.808
DTProbeTrack03	6	ProbeTrackDT	1.1	SCS215a	20101105.133723	20101105.135053	dt-generate	8	0.013328	60	10	60-180	60	73	GapExp	0	127	2	1	0	target	0	787	-1000	46571	13.328	12.847	13.809
DTProbeTrack03	6	ProbeTrackDT	1.1	SCS215a	20101105.133723	20101105.135058	dt-generate	8	0.013328	60	10	60-180	60	130	GapExp	0	128	2	3	0	distractor	1	693	654	47225	13.328	13.099	13.550
DTProbeTrack03	6	ProbeTrackDT	1.1	SCS215a	20101105.133723	20101105.135104	dt-generate	8	0.013328	60	10	60-180	60	126	GapExp	0	129	2	3	1	target	1	494	753	47978	13.328	13.301	13.349
DTProbeTrack03	6	ProbeTrackDT	1.1	SCS215a	20101105.133723	20101105.135110	dt-generate	8	0.013328	60	10	60-180	60	173	GapExp	0	130	2	3	0	target	0	427	-1000	46978	13.328	13.306	13.350
DTProbeTrack03	6	ProbeTrackDT	1.1	SCS215a	20101105.133723	20101105.135116	dt-generate	8	0.013328	60	10	60-180	60	138	GapExp	0	131	2	3	1	distractor	0	720	-1000	45978	13.328	12.861	13.791
DTProbeTrack03	6	ProbeTrackDT	1.1	SCS215a	20101105.133723	20101105.135122	dt-generate	8	0.013328	60	10	60-180	60	69	GapExp	0	132	2	45	0	target	0	747	-1000	44978	13.328	13.293	13.347
DTProbeTrack03	6	ProbeTrackDT	1.1	SCS215a	20101105.133723	20101105.135127	dt-generate	8	0.013328	60	10	60-180	60	147	GapExp	0	133	2	1	1	target	1	600	700	45678	13.328	13.099	13.558
DTProbeTrack03	6	ProbeTrackDT	1.1	SCS215a	20101105.133723	20101105.135133	dt-generate	8	0.013328	60	10	60-180	60	125	GapExp	0	134	2	6	1	target	1	587	707	46385	13.328	12.991	13.673
DTProbeTrack03	6	ProbeTrackDT	1.1	SCS215a	20101105.133723	20101105.135139	dt-generate	8	0.013328	60	10	60-180	60	153	GapExp	0	135	2	3	1	target	1	760	620	47005	13.328	13.089	13.562
DTProbeTrack03	6	ProbeTrackDT	1.1	SCS215a	20101105.133723	20101105.135145	dt-generate	8	0.013328	60	10	60-180	60	139	GapExp	0	136	2	9	0	target	0	547	-1000	46005	13.328	13.312	13.385
DTProbeTrack03	6	ProbeTrackDT	1.1	SCS215a	20101105.133723	20101105.135151	dt-generate	8	0.013328	60	10	60-180	60	105	GapExp	0	137	2	9	1	distractor	0	547	-1000	45005	13.328	13.301	13.347
DTProbeTrack03	6	ProbeTrackDT	1.1	SCS215a	20101105.133723	20101105.135157	dt-generate	8	0.013328	60	10	60-180	60	167	GapExp	0	138	2	6	1	target	1	560	720	45725	13.328	13.262	13.388
DTProbeTrack03	6	ProbeTrackDT	1.1	SCS215a	20101105.133723	20101105.135203	dt-generate	8	0.013328	60	10	60-180	60	122	GapExp	0	139	2	45	1	target	1	440	780	46505	13.328	13.101	13.541
DTProbeTrack03	6	ProbeTrackDT	1.1	SCS215a	20101105.133723	20101105.135209	dt-generate	8	0.013328	60	10	60-180	60	79	GapExp	0	140	2	3	1	target	1	720	640	47145	13.328	13.098	13.560
DTProbeTrack03	6	ProbeTrackDT	1.1	SCS215a	20101105.133723	20101105.135214	dt-generate	8	0.013328	60	10	60-180	60	129	GapExp	0	141	2	9	0	distractor	1	694	653	47798	13.328	13.094	13.576
DTProbeTrack03	6	ProbeTrackDT	1.1	SCS215a	20101105.133723	20101105.135220	dt-generate	8	0.013328	60	10	60-180	60	93	GapExp	0	142	2	3	1	target	1	520	740	48538	13.328	13.299	13.352
DTProbeTrack03	6	ProbeTrackDT	1.1	SCS215a	20101105.133723	20101105.135225	dt-generate	8	0.013328	60	10	60-180	60	116	GapExp	0	143	2	45	0	distractor	1	494	753	49291	13.328	13.118	13.530
DTProbeTrack03	6	ProbeTrackDT	1.1	SCS215a	20101105.133723	20101105.135231	dt-generate	8	0.013328	60	10	60-180	60	152	GapExp	0	144	2	9	1	target	1	347	827	50118	13.328	12.847	13.795
DTProbeTrack03	6	ProbeTrackDT	1.1	SCS215a	20101105.133723	20101105.135237	dt-generate	8	0.013328	60	10	60-180	60	145	GapExp	0	145	2	6	0	target	0	813	-1000	49118	13.328	12.852	13.794
DTProbeTrack03	6	ProbeTrackDT	1.1	SCS215a	20101105.133723	20101105.135243	dt-generate	8	0.013328	60	10	60-180	60	145	GapExp	0	146	2	3	1	target	1	507	747	49865	13.328	13.107	13.565
DTProbeTrack03	6	ProbeTrackDT	1.1	SCS215a	20101105.133723	20101105.135249	dt-generate	8	0.013328	60	10	60-180	60	128	GapExp	0	147	2	1	1	target	1	494	753	50618	13.328	12.951	13.705
DTProbeTrack03	6	ProbeTrackDT	1.1	SCS215a	20101105.133723	20101105.135255	dt-generate	8	0.013328	60	10	60-180	60	132	GapExp	0	148	2	3	0	distractor	1	694	653	51271	13.328	13.298	13.350
DTProbeTrack03	6	ProbeTrackDT	1.1	SCS215a	20101105.133723	20101105.135300	dt-generate	8	0.013328	60	10	60-180	60	144	GapExp	0	149	2	6	0	target	0	534	-1000	50271	13.328	13.140	13.511
DTProbeTrack03	6	ProbeTrackDT	1.1	SCS215a	20101105.133723	20101105.135306	dt-generate	8	0.013328	60	10	60-180	60	76	GapExp	0	150	2	1	1	distractor	0	600	-1000	49271	13.328	13.309	13.347
DTProbeTrack03	6	ProbeTrackDT	1.1	SCS215a	20101105.133723	20101105.135332	dt-generate	8	0.013328	60	10	60-180	60	120	GapExp	0	151	2	6	1	distractor	0	587	-1000	48271	13.328	13.096	13.555
DTProbeTrack03	6	ProbeTrackDT	1.1	SCS215a	20101105.133723	20101105.135338	dt-generate	8	0.013328	60	10	60-180	60	63	GapExp	0	152	2	45	0	distractor	1	587	707	48978	13.328	13.306	13.348
DTProbeTrack03	6	ProbeTrackDT	1.1	SCS215a	20101105.133723	20101105.135343	dt-generate	8	0.013328	60	10	60-180	60	135	GapExp	0	153	2	1	1	target	1	1160	420	49398	13.328	13.287	13.363
DTProbeTrack03	6	ProbeTrackDT	1.1	SCS215a	20101105.133723	20101105.135349	dt-generate	8	0.013328	60	10	60-180	60	172	GapExp	0	154	2	45	1	target	1	574	713	50111	13.328	13.311	13.346
DTProbeTrack03	6	ProbeTrackDT	1.1	SCS215a	20101105.133723	20101105.135356	dt-generate	8	0.013328	60	10	60-180	60	176	GapExp	0	155	2	9	0	target	0	480	-1000	49111	13.415	12.895	26.721
DTProbeTrack03	6	ProbeTrackDT	1.1	SCS215a	20101105.133723	20101105.135403	dt-generate	8	0.013328	60	10	60-180	60	101	GapExp	0	156	2	45	0	distractor	1	627	687	49798	13.375	12.991	27.048
DTProbeTrack03	6	ProbeTrackDT	1.1	SCS215a	20101105.133723	20101105.135409	dt-generate	8	0.013328	60	10	60-180	60	84	GapExp	0	157	2	45	1	target	1	534	733	50531	13.328	12.863	13.760
DTProbeTrack03	6	ProbeTrackDT	1.1	SCS215a	20101105.133723	20101105.135414	dt-generate	8	0.013328	60	10	60-180	60	71	GapExp	0	158	2	45	0	target	0	987	-1000	49531	13.328	13.104	13.547
DTProbeTrack03	6	ProbeTrackDT	1.1	SCS215a	20101105.133723	20101105.135420	dt-generate	8	0.013328	60	10	60-180	60	111	GapExp	0	159	2	45	0	distractor	1	1453	274	49805	13.328	13.107	13.551
DTProbeTrack03	6	ProbeTrackDT	1.1	SCS215a	20101105.133723	20101105.135427	dt-generate	8	0.013328	60	10	60-180	60	72	GapExp	0	160	2	9	0	target	0	440	-1000	48805	13.328	13.034	13.625
DTProbeTrack03	6	ProbeTrackDT	1.1	SCS215a	20101105.133723	20101105.135432	dt-generate	8	0.013328	60	10	60-180	60	79	GapExp	0	161	2	1	0	distractor	1	547	727	49532	13.328	12.892	13.751
DTProbeTrack03	6	ProbeTrackDT	1.1	SCS215a	20101105.133723	20101105.135437	dt-generate	8	0.013328	60	10	60-180	60	171	GapExp	0	162	2	45	0	target	0	653	-1000	48532	13.328	13.105	13.566
DTProbeTrack03	6	ProbeTrackDT	1.1	SCS215a	20101105.133723	20101105.135444	dt-generate	8	0.013328	60	10	60-180	60	97	GapExp	0	163	2	1	0	target	0	720	-1000	47532	13.328	13.299	13.362
DTProbeTrack03	6	ProbeTrackDT	1.1	SCS215a	20101105.133723	20101105.135449	dt-generate	8	0.013328	60	10	60-180	60	112	GapExp	0	164	2	3	0	target	0	880	-1000	46532	13.328	13.091	13.570
DTProbeTrack03	6	ProbeTrackDT	1.1	SCS215a	20101105.133723	20101105.135455	dt-generate	8	0.013328	60	10	60-180	60	85	GapExp	0	165	2	1	1	target	1	520	740	47272	13.328	12.924	13.732
DTProbeTrack03	6	ProbeTrackDT	1.1	SCS215a	20101105.133723	20101105.135500	dt-generate	8	0.013328	60	10	60-180	60	69	GapExp	0	166	2	45	1	distractor	0	1000	-1000	46272	13.328	12.968	13.696
DTProbeTrack03	6	ProbeTrackDT	1.1	SCS215a	20101105.133723	20101105.135506	dt-generate	8	0.013328	60	10	60-180	60	145	GapExp	0	167	2	3	0	target	0	520	-1000	45272	13.328	12.970	13.679
DTProbeTrack03	6	ProbeTrackDT	1.1	SCS215a	20101105.133723	20101105.135512	dt-generate	8	0.013328	60	10	60-180	60	102	GapExp	0	168	2	9	1	target	1	507	747	46019	13.328	13.097	13.558
DTProbeTrack03	6	ProbeTrackDT	1.1	SCS215a	20101105.133723	20101105.135517	dt-generate	8	0.013328	60	10	60-180	60	127	GapExp	0	169	2	45	0	distractor	1	813	594	46613	13.328	13.138	13.526
DTProbeTrack03	6	ProbeTrackDT	1.1	SCS215a	20101105.133723	20101105.135524	dt-generate	8	0.013328	60	10	60-180	60	106	GapExp	0	170	2	1	1	target	1	720	640	47253	13.328	13.085	13.572
DTProbeTrack03	6	ProbeTrackDT	1.1	SCS215a	20101105.133723	20101105.135529	dt-generate	8	0.013328	60	10	60-180	60	135	GapExp	0	171	2	6	0	distractor	1	693	654	47907	13.328	13.191	13.463
DTProbeTrack03	6	ProbeTrackDT	1.1	SCS215a	20101105.133723	20101105.135535	dt-generate	8	0.013328	60	10	60-180	60	133	GapExp	0	172	2	45	0	target	0	640	-1000	46907	13.328	13.184	13.471
DTProbeTrack03	6	ProbeTrackDT	1.1	SCS215a	20101105.133723	20101105.135542	dt-generate	8	0.013328	60	10	60-180	60	117	GapExp	0	173	2	45	1	target	1	574	713	47620	13.328	13.266	13.404
DTProbeTrack03	6	ProbeTrackDT	1.1	SCS215a	20101105.133723	20101105.135548	dt-generate	8	0.013328	60	10	60-180	60	104	GapExp	0	174	2	1	0	target	0	613	-1000	46620	13.328	13.289	13.374
DTProbeTrack03	6	ProbeTrackDT	1.1	SCS215a	20101105.133723	20101105.135553	dt-generate	8	0.013328	60	10	60-180	60	154	GapExp	0	175	2	3	0	distractor	1	467	767	47387	13.328	12.877	13.770
DTProbeTrack03	6	ProbeTrackDT	1.1	SCS215a	20101105.133723	20101105.135559	dt-generate	8	0.013328	60	10	60-180	60	106	GapExp	0	176	2	3	1	target	1	987	507	47894	13.328	13.025	13.630
DTProbeTrack03	6	ProbeTrackDT	1.1	SCS215a	20101105.133723	20101105.135605	dt-generate	8	0.013328	60	10	60-180	60	175	GapExp	0	177	2	6	0	distractor	1	494	753	48647	13.328	13.097	13.552
DTProbeTrack03	6	ProbeTrackDT	1.1	SCS215a	20101105.133723	20101105.135611	dt-generate	8	0.013328	60	10	60-180	60	118	GapExp	0	178	2	1	0	target	0	720	-1000	47647	13.328	13.172	13.492
DTProbeTrack03	6	ProbeTrackDT	1.1	SCS215a	20101105.133723	20101105.135617	dt-generate	8	0.013328	60	10	60-180	60	99	GapExp	0	179	2	45	0	target	0	374	-1000	46647	13.328	13.308	13.354
DTProbeTrack03	6	ProbeTrackDT	1.1	SCS215a	20101105.133723	20101105.135623	dt-generate	8	0.013328	60	10	60-180	60	92	GapExp	0	180	2	45	0	distractor	1	1480	260	46907	13.328	13.311	13.355
DTProbeTrack03	6	ProbeTrackDT	1.1	SCS215a	20101105.133723	20101105.135629	dt-generate	8	0.013328	60	10	60-180	60	108	GapExp	0	181	2	3	1	target	1	560	720	47627	13.328	13.089	13.523
DTProbeTrack03	6	ProbeTrackDT	1.1	SCS215a	20101105.133723	20101105.135635	dt-generate	8	0.013328	60	10	60-180	60	88	GapExp	0	182	2	9	1	distractor	0	414	-1000	46627	13.328	13.104	13.560
DTProbeTrack03	6	ProbeTrackDT	1.1	SCS215a	20101105.133723	20101105.135640	dt-generate	8	0.013328	60	10	60-180	60	102	GapExp	0	183	2	45	1	target	1	147	927	47554	13.328	12.976	13.687
DTProbeTrack03	6	ProbeTrackDT	1.1	SCS215a	20101105.133723	20101105.135645	dt-generate	8	0.013328	60	10	60-180	60	174	GapExp	0	184	2	1	0	target	0	440	-1000	46554	13.328	13.140	13.515
DTProbeTrack03	6	ProbeTrackDT	1.1	SCS215a	20101105.133723	20101105.135651	dt-generate	8	0.013328	60	10	60-180	60	115	GapExp	0	185	2	45	1	target	1	494	753	47307	13.328	13.309	13.348
DTProbeTrack03	6	ProbeTrackDT	1.1	SCS215a	20101105.133723	20101105.135657	dt-generate	8	0.013328	60	10	60-180	60	178	GapExp	0	186	2	6	1	target	1	667	667	47974	13.328	13.311	13.349
DTProbeTrack03	6	ProbeTrackDT	1.1	SCS215a	20101105.133723	20101105.135704	dt-generate	8	0.013328	60	10	60-180	60	174	GapExp	0	187	2	6	0	target	0	427	-1000	46974	13.328	13.091	13.569
DTProbeTrack03	6	ProbeTrackDT	1.1	SCS215a	20101105.133723	20101105.135710	dt-generate	8	0.013328	60	10	60-180	60	143	GapExp	0	188	2	9	1	target	1	613	694	47668	13.328	13.089	13.561
DTProbeTrack03	6	ProbeTrackDT	1.1	SCS215a	20101105.133723	20101105.135716	dt-generate	8	0.013328	60	10	60-180	60	171	GapExp	0	189	2	3	1	distractor	0	614	-1000	46668	13.328	12.971	13.675
DTProbeTrack03	6	ProbeTrackDT	1.1	SCS215a	20101105.133723	20101105.135723	dt-generate	8	0.013328	60	10	60-180	60	116	GapExp	0	190	2	6	0	target	0	1027	-1000	45668	13.328	13.099	13.572
DTProbeTrack03	6	ProbeTrackDT	1.1	SCS215a	20101105.133723	20101105.135729	dt-generate	8	0.013328	60	10	60-180	60	66	GapExp	0	191	2	9	0	target	0	494	-1000	44668	13.328	13.308	13.346
DTProbeTrack03	6	ProbeTrackDT	1.1	SCS215a	20101105.133723	20101105.135733	dt-generate	8	0.013328	60	10	60-180	60	78	GapExp	0	192	2	1	1	target	1	94	953	45621	13.328	12.866	13.792
DTProbeTrack03	6	ProbeTrackDT	1.1	SCS215a	20101105.133723	20101105.135738	dt-generate	8	0.013328	60	10	60-180	60	173	GapExp	0	193	2	3	0	target	0	347	-1000	44621	13.328	13.096	13.562
DTProbeTrack03	6	ProbeTrackDT	1.1	SCS215a	20101105.133723	20101105.135744	dt-generate	8	0.013328	60	10	60-180	60	124	GapExp	0	194	2	6	0	distractor	1	107	947	45568	13.328	13.100	13.558
DTProbeTrack03	6	ProbeTrackDT	1.1	SCS215a	20101105.133723	20101105.135749	dt-generate	8	0.013328	60	10	60-180	60	84	GapExp	0	195	2	9	0	target	0	334	-1000	44568	13.328	13.309	13.345
DTProbeTrack03	6	ProbeTrackDT	1.1	SCS215a	20101105.133723	20101105.135754	dt-generate	8	0.013328	60	10	60-180	60	167	GapExp	0	196	2	6	1	distractor	0	347	-1000	43568	13.328	12.942	13.704
DTProbeTrack03	6	ProbeTrackDT	1.1	SCS215a	20101105.133723	20101105.135800	dt-generate	8	0.013328	60	10	60-180	60	159	GapExp	0	197	2	3	0	target	0	240	-1000	42568	13.328	12.983	13.666
DTProbeTrack03	6	ProbeTrackDT	1.1	SCS215a	20101105.133723	20101105.135806	dt-generate	8	0.013328	60	10	60-180	60	84	GapExp	0	198	2	1	1	distractor	0	307	-1000	41568	13.328	13.098	13.556
DTProbeTrack03	6	ProbeTrackDT	1.1	SCS215a	20101105.133723	20101105.135811	dt-generate	8	0.013328	60	10	60-180	60	176	GapExp	0	199	2	45	1	target	1	254	873	42441	13.328	13.055	13.601
DTProbeTrack03	6	ProbeTrackDT	1.1	SCS215a	20101105.133723	20101105.135817	dt-generate	8	0.013328	60	10	60-180	60	122	GapExp	0	200	2	3	0	target	0	320	-1000	41441	13.328	13.124	13.537
DTProbeTrack03	6	ProbeTrackDT	1.1	SCS215a	20101105.133723	20101105.135906	dt-generate	8	0.013328	60	10	60-180	60	97	GapExp	0	201	2	9	0	distractor	1	654	673	42114	13.328	12.956	13.702
DTProbeTrack03	6	ProbeTrackDT	1.1	SCS215a	20101105.133723	20101105.135911	dt-generate	8	0.013328	60	10	60-180	60	92	GapExp	0	202	2	45	1	target	1	494	753	42867	13.328	13.164	13.491
DTProbeTrack03	6	ProbeTrackDT	1.1	SCS215a	20101105.133723	20101105.135917	dt-generate	8	0.013328	60	10	60-180	60	94	GapExp	0	203	2	1	1	target	1	534	733	43600	13.328	13.091	13.564
DTProbeTrack03	6	ProbeTrackDT	1.1	SCS215a	20101105.133723	20101105.135922	dt-generate	8	0.013328	60	10	60-180	60	134	GapExp	0	204	2	6	0	target	0	1400	-1000	42600	13.328	12.887	13.770
DTProbeTrack03	6	ProbeTrackDT	1.1	SCS215a	20101105.133723	20101105.135929	dt-generate	8	0.013328	60	10	60-180	60	126	GapExp	0	205	2	1	1	distractor	0	320	-1000	41600	13.328	13.103	13.560
DTProbeTrack03	6	ProbeTrackDT	1.1	SCS215a	20101105.140020	20101105.140027	dt-shadow	8	0.013328	60	10	60-180	60	134	GapPrac	1	1	2	1	1	target	1	653	674	42274	13.328	13.077	13.585
DTProbeTrack03	6	ProbeTrackDT	1.1	SCS215a	20101105.140020	20101105.140033	dt-shadow	8	0.013328	60	10	60-180	60	138	GapPrac	1	2	2	45	0	distractor	1	534	733	43007	13.328	13.094	13.562
DTProbeTrack03	6	ProbeTrackDT	1.1	SCS215a	20101105.140020	20101105.140040	dt-shadow	8	0.013328	60	10	60-180	60	136	GapPrac	1	3	2	1	1	target	1	494	753	43760	13.328	13.114	13.550
DTProbeTrack03	6	ProbeTrackDT	1.1	SCS215a	20101105.140020	20101105.140045	dt-shadow	8	0.013328	60	10	60-180	60	62	GapPrac	1	4	2	6	0	target	0	680	-1000	42760	13.328	12.919	13.723
DTProbeTrack03	6	ProbeTrackDT	1.1	SCS215a	20101105.140020	20101105.140050	dt-shadow	8	0.013328	60	10	60-180	60	73	GapPrac	1	5	2	3	1	target	1	520	740	43500	13.328	12.905	13.757
DTProbeTrack03	6	ProbeTrackDT	1.1	SCS215a	20101105.140020	20101105.140055	dt-shadow	8	0.013328	60	10	60-180	60	67	GapPrac	1	6	2	45	1	target	1	507	747	44247	13.328	13.085	13.557
DTProbeTrack03	6	ProbeTrackDT	1.1	SCS215a	20101105.140020	20101105.140100	dt-shadow	8	0.013328	60	10	60-180	60	97	GapPrac	1	7	2	1	0	distractor	1	507	747	44994	13.328	13.106	13.553
DTProbeTrack03	6	ProbeTrackDT	1.1	SCS215a	20101105.140020	20101105.140106	dt-shadow	8	0.013328	60	10	60-180	60	81	GapPrac	1	8	2	3	0	distractor	1	507	747	45741	13.328	13.032	13.584
DTProbeTrack03	6	ProbeTrackDT	1.1	SCS215a	20101105.140020	20101105.140111	dt-shadow	8	0.013328	60	10	60-180	60	105	GapPrac	1	9	2	9	1	target	1	400	800	46541	13.328	13.298	13.348
DTProbeTrack03	6	ProbeTrackDT	1.1	SCS215a	20101105.140020	20101105.140116	dt-shadow	8	0.013328	60	10	60-180	60	129	GapPrac	1	10	2	45	1	target	1	480	760	47301	13.328	13.101	13.557
DTProbeTrack03	6	ProbeTrackDT	1.1	SCS215a	20101105.140020	20101105.140122	dt-shadow	8	0.013328	60	10	60-180	60	88	GapPrac	1	11	2	1	0	distractor	1	494	753	48054	13.328	13.059	13.588
DTProbeTrack03	6	ProbeTrackDT	1.1	SCS215a	20101105.140020	20101105.140127	dt-shadow	8	0.013328	60	10	60-180	60	81	GapPrac	1	12	2	9	1	target	1	667	667	48721	13.328	13.303	13.346
DTProbeTrack03	6	ProbeTrackDT	1.1	SCS215a	20101105.140020	20101105.140132	dt-shadow	8	0.013328	60	10	60-180	60	103	GapPrac	1	13	2	3	0	distractor	1	440	780	49501	13.328	12.887	13.784
DTProbeTrack03	6	ProbeTrackDT	1.1	SCS215a	20101105.140020	20101105.140138	dt-shadow	8	0.013328	60	10	60-180	60	148	GapPrac	1	14	2	6	1	target	1	480	760	50261	13.328	13.288	13.369
DTProbeTrack03	6	ProbeTrackDT	1.1	SCS215a	20101105.140020	20101105.140143	dt-shadow	8	0.013328	60	10	60-180	60	92	GapPrac	1	15	2	3	1	target	1	653	674	50935	13.328	13.086	13.565
DTProbeTrack03	6	ProbeTrackDT	1.1	SCS215a	20101105.140020	20101105.140149	dt-shadow	8	0.013328	60	10	60-180	60	91	GapPrac	1	16	2	6	1	target	1	560	720	51655	13.328	12.885	13.779
DTProbeTrack03	6	ProbeTrackDT	1.1	SCS215a	20101105.140020	20101105.140154	dt-shadow	8	0.013328	60	10	60-180	60	168	GapPrac	1	17	2	9	0	distractor	1	467	767	52422	13.328	12.846	13.817
DTProbeTrack03	6	ProbeTrackDT	1.1	SCS215a	20101105.140020	20101105.140200	dt-shadow	8	0.013328	60	10	60-180	60	124	GapPrac	1	18	2	6	0	distractor	1	467	767	53189	13.328	13.295	13.352
DTProbeTrack03	6	ProbeTrackDT	1.1	SCS215a	20101105.140020	20101105.140206	dt-shadow	8	0.013328	60	10	60-180	60	77	GapPrac	1	19	2	45	0	distractor	1	613	694	53883	13.328	12.911	13.743
DTProbeTrack03	6	ProbeTrackDT	1.1	SCS215a	20101105.140020	20101105.140211	dt-shadow	8	0.013328	60	10	60-180	60	151	GapPrac	1	20	2	9	0	distractor	1	467	767	54650	13.328	12.963	13.679
DTProbeTrack03	6	ProbeTrackDT	1.1	SCS215a	20101105.140245	20101105.140250	dt-shadow	8	0.013328	60	10	60-180	60	68	GapExp	1	1	2	9	1	target	1	507	747	55397	13.328	13.294	13.347
DTProbeTrack03	6	ProbeTrackDT	1.1	SCS215a	20101105.140245	20101105.140255	dt-shadow	8	0.013328	60	10	60-180	60	91	GapExp	1	2	2	1	0	distractor	1	560	720	56117	13.328	12.929	13.717
DTProbeTrack03	6	ProbeTrackDT	1.1	SCS215a	20101105.140245	20101105.140300	dt-shadow	8	0.013328	60	10	60-180	60	87	GapExp	1	3	2	6	1	target	1	467	767	56884	13.328	13.308	13.345
DTProbeTrack03	6	ProbeTrackDT	1.1	SCS215a	20101105.140245	20101105.140305	dt-shadow	8	0.013328	60	10	60-180	60	103	GapExp	1	4	2	45	1	target	1	467	767	57651	13.328	13.104	13.478
DTProbeTrack03	6	ProbeTrackDT	1.1	SCS215a	20101105.140245	20101105.140311	dt-shadow	8	0.013328	60	10	60-180	60	64	GapExp	1	5	2	3	1	target	1	414	793	58444	13.328	12.996	13.656
DTProbeTrack03	6	ProbeTrackDT	1.1	SCS215a	20101105.140245	20101105.140316	dt-shadow	8	0.013328	60	10	60-180	60	145	GapExp	0	6	2	45	0	distractor	1	667	667	59111	13.328	12.919	13.746
DTProbeTrack03	6	ProbeTrackDT	1.1	SCS215a	20101105.140245	20101105.140322	dt-shadow	8	0.013328	60	10	60-180	60	126	GapExp	0	7	2	1	1	target	1	427	787	59898	13.328	13.079	13.576
DTProbeTrack03	6	ProbeTrackDT	1.1	SCS215a	20101105.140245	20101105.140328	dt-shadow	8	0.013328	60	10	60-180	60	105	GapExp	0	8	2	45	1	target	1	520	740	60638	13.328	13.112	13.546
DTProbeTrack03	6	ProbeTrackDT	1.1	SCS215a	20101105.140245	20101105.140333	dt-shadow	8	0.013328	60	10	60-180	60	161	GapExp	0	9	2	6	0	distractor	1	467	767	61405	13.328	13.305	13.349
DTProbeTrack03	6	ProbeTrackDT	1.1	SCS215a	20101105.140245	20101105.140340	dt-shadow	8	0.013328	60	10	60-180	60	158	GapExp	0	10	2	45	0	distractor	1	600	700	62105	13.328	13.105	13.557
DTProbeTrack03	6	ProbeTrackDT	1.1	SCS215a	20101105.140245	20101105.140346	dt-shadow	8	0.013328	60	10	60-180	60	80	GapExp	0	11	2	3	0	target	0	547	-1000	61105	13.328	13.293	13.351
DTProbeTrack03	6	ProbeTrackDT	1.1	SCS215a	20101105.140245	20101105.140351	dt-shadow	8	0.013328	60	10	60-180	60	63	GapExp	0	12	2	45	0	target	0	627	-1000	60105	13.328	13.308	13.350
DTProbeTrack03	6	ProbeTrackDT	1.1	SCS215a	20101105.140245	20101105.140357	dt-shadow	8	0.013328	60	10	60-180	60	64	GapExp	0	13	2	6	0	distractor	1	560	720	60825	13.328	13.089	13.570
DTProbeTrack03	6	ProbeTrackDT	1.1	SCS215a	20101105.140245	20101105.140402	dt-shadow	8	0.013328	60	10	60-180	60	79	GapExp	0	14	2	1	0	distractor	1	640	680	61505	13.328	13.144	13.510
DTProbeTrack03	6	ProbeTrackDT	1.1	SCS215a	20101105.140245	20101105.140407	dt-shadow	8	0.013328	60	10	60-180	60	66	GapExp	0	15	2	9	1	target	1	680	660	62165	13.328	13.287	13.371
DTProbeTrack03	6	ProbeTrackDT	1.1	SCS215a	20101105.140245	20101105.140412	dt-shadow	8	0.013328	60	10	60-180	60	101	GapExp	0	16	2	1	1	target	1	480	760	62925	13.328	13.043	13.619
DTProbeTrack03	6	ProbeTrackDT	1.1	SCS215a	20101105.140245	20101105.140417	dt-shadow	8	0.013328	60	10	60-180	60	114	GapExp	0	17	2	6	1	target	1	773	614	63539	13.328	13.090	13.573
DTProbeTrack03	6	ProbeTrackDT	1.1	SCS215a	20101105.140245	20101105.140423	dt-shadow	8	0.013328	60	10	60-180	60	115	GapExp	0	18	2	6	1	target	1	467	767	64306	13.328	13.105	13.554
DTProbeTrack03	6	ProbeTrackDT	1.1	SCS215a	20101105.140245	20101105.140428	dt-shadow	8	0.013328	60	10	60-180	60	141	GapExp	0	19	2	45	1	target	1	587	707	65013	13.328	12.906	13.763
DTProbeTrack03	6	ProbeTrackDT	1.1	SCS215a	20101105.140245	20101105.140434	dt-shadow	8	0.013328	60	10	60-180	60	147	GapExp	0	20	2	3	0	distractor	1	600	700	65713	13.328	12.871	13.769
DTProbeTrack03	6	ProbeTrackDT	1.1	SCS215a	20101105.140245	20101105.140440	dt-shadow	8	0.013328	60	10	60-180	60	93	GapExp	0	21	2	9	1	target	1	520	740	66453	13.328	13.123	13.538
DTProbeTrack03	6	ProbeTrackDT	1.1	SCS215a	20101105.140245	20101105.140446	dt-shadow	8	0.013328	60	10	60-180	60	173	GapExp	0	22	2	1	1	target	1	414	793	67246	13.328	13.029	13.629
DTProbeTrack03	6	ProbeTrackDT	1.1	SCS215a	20101105.140245	20101105.140452	dt-shadow	8	0.013328	60	10	60-180	60	74	GapExp	0	23	2	6	0	distractor	1	454	773	68019	13.328	13.002	13.641
DTProbeTrack03	6	ProbeTrackDT	1.1	SCS215a	20101105.140245	20101105.140457	dt-shadow	8	0.013328	60	10	60-180	60	119	GapExp	0	24	2	3	0	distractor	1	534	733	68752	13.328	12.876	13.789
DTProbeTrack03	6	ProbeTrackDT	1.1	SCS215a	20101105.140245	20101105.140502	dt-shadow	8	0.013328	60	10	60-180	60	118	GapExp	0	25	2	3	1	target	1	467	767	69519	13.328	12.895	13.765
DTProbeTrack03	6	ProbeTrackDT	1.1	SCS215a	20101105.140245	20101105.140508	dt-shadow	8	0.013328	60	10	60-180	60	174	GapExp	0	26	2	45	0	target	0	747	-1000	68519	13.328	12.907	13.758
DTProbeTrack03	6	ProbeTrackDT	1.1	SCS215a	20101105.140245	20101105.140515	dt-shadow	8	0.013328	60	10	60-180	60	152	GapExp	0	27	2	6	1	target	1	640	680	69199	13.328	13.133	13.583
DTProbeTrack03	6	ProbeTrackDT	1.1	SCS215a	20101105.140245	20101105.140521	dt-shadow	8	0.013328	60	10	60-180	60	102	GapExp	0	28	2	3	0	target	0	507	-1000	68199	13.328	13.106	13.556
DTProbeTrack03	6	ProbeTrackDT	1.1	SCS215a	20101105.140245	20101105.140526	dt-shadow	8	0.013328	60	10	60-180	60	119	GapExp	0	29	2	3	1	target	1	507	747	68946	13.328	13.096	13.556
DTProbeTrack03	6	ProbeTrackDT	1.1	SCS215a	20101105.140245	20101105.140532	dt-shadow	8	0.013328	60	10	60-180	60	80	GapExp	0	30	2	9	1	target	1	547	727	69673	13.328	13.307	13.347
DTProbeTrack03	6	ProbeTrackDT	1.1	SCS215a	20101105.140245	20101105.140537	dt-shadow	8	0.013328	60	10	60-180	60	179	GapExp	0	31	2	45	1	distractor	0	693	-1000	68673	13.328	13.014	13.611
DTProbeTrack03	6	ProbeTrackDT	1.1	SCS215a	20101105.140245	20101105.140544	dt-shadow	8	0.013328	60	10	60-180	60	89	GapExp	0	32	2	6	0	target	0	360	-1000	67673	13.328	12.942	13.719
DTProbeTrack03	6	ProbeTrackDT	1.1	SCS215a	20101105.140245	20101105.140549	dt-shadow	8	0.013328	60	10	60-180	60	99	GapExp	0	33	2	6	1	target	1	440	780	68453	13.328	13.308	13.346
DTProbeTrack03	6	ProbeTrackDT	1.1	SCS215a	20101105.140245	20101105.140554	dt-shadow	8	0.013328	60	10	60-180	60	90	GapExp	0	34	2	45	1	target	1	654	673	69126	13.328	13.085	13.566
DTProbeTrack03	6	ProbeTrackDT	1.1	SCS215a	20101105.140245	20101105.140600	dt-shadow	8	0.013328	60	10	60-180	60	165	GapExp	0	35	2	6	0	distractor	1	520	740	69866	13.328	13.094	13.550
DTProbeTrack03	6	ProbeTrackDT	1.1	SCS215a	20101105.140245	20101105.140606	dt-shadow	8	0.013328	60	10	60-180	60	180	GapExp	0	36	2	3	0	target	0	587	-1000	68866	13.328	13.050	13.609
DTProbeTrack03	6	ProbeTrackDT	1.1	SCS215a	20101105.140245	20101105.140612	dt-shadow	8	0.013328	60	10	60-180	60	177	GapExp	0	37	2	45	0	distractor	1	387	807	69673	13.328	13.245	13.413
DTProbeTrack03	6	ProbeTrackDT	1.1	SCS215a	20101105.140245	20101105.140619	dt-shadow	8	0.013328	60	10	60-180	60	94	GapExp	0	38	2	9	1	target	1	347	827	70500	13.328	13.307	13.348
DTProbeTrack03	6	ProbeTrackDT	1.1	SCS215a	20101105.140245	20101105.140624	dt-shadow	8	0.013328	60	10	60-180	60	101	GapExp	0	39	2	3	0	distractor	1	600	700	71200	13.328	12.957	13.702
DTProbeTrack03	6	ProbeTrackDT	1.1	SCS215a	20101105.140245	20101105.140630	dt-shadow	8	0.013328	60	10	60-180	60	92	GapExp	0	40	2	45	1	target	1	507	747	71947	13.328	13.097	13.565
DTProbeTrack03	6	ProbeTrackDT	1.1	SCS215a	20101105.140245	20101105.140635	dt-shadow	8	0.013328	60	10	60-180	60	84	GapExp	0	41	2	3	1	target	1	667	667	72614	13.328	12.926	13.722
DTProbeTrack03	6	ProbeTrackDT	1.1	SCS215a	20101105.140245	20101105.140640	dt-shadow	8	0.013328	60	10	60-180	60	147	GapExp	0	42	2	45	1	target	1	587	707	73321	13.328	12.903	13.757
DTProbeTrack03	6	ProbeTrackDT	1.1	SCS215a	20101105.140245	20101105.140647	dt-shadow	8	0.013328	60	10	60-180	60	63	GapExp	0	43	2	6	0	target	0	587	-1000	72321	13.328	12.967	13.690
DTProbeTrack03	6	ProbeTrackDT	1.1	SCS215a	20101105.140245	20101105.140652	dt-shadow	8	0.013328	60	10	60-180	60	152	GapExp	0	44	2	1	0	target	0	627	-1000	71321	13.328	12.960	13.680
DTProbeTrack03	6	ProbeTrackDT	1.1	SCS215a	20101105.140245	20101105.140658	dt-shadow	8	0.013328	60	10	60-180	60	126	GapExp	0	45	2	45	0	distractor	1	587	707	72028	13.328	12.944	13.705
DTProbeTrack03	6	ProbeTrackDT	1.1	SCS215a	20101105.140245	20101105.140704	dt-shadow	8	0.013328	60	10	60-180	60	149	GapExp	0	46	2	3	0	target	0	534	-1000	71028	13.328	13.023	13.648
DTProbeTrack03	6	ProbeTrackDT	1.1	SCS215a	20101105.140245	20101105.140710	dt-shadow	8	0.013328	60	10	60-180	60	145	GapExp	0	47	2	9	0	distractor	1	600	700	71728	13.328	13.091	13.566
DTProbeTrack03	6	ProbeTrackDT	1.1	SCS215a	20101105.140245	20101105.140716	dt-shadow	8	0.013328	60	10	60-180	60	178	GapExp	0	48	2	1	0	target	0	733	-1000	70728	13.328	12.850	13.806
DTProbeTrack03	6	ProbeTrackDT	1.1	SCS215a	20101105.140245	20101105.140723	dt-shadow	8	0.013328	60	10	60-180	60	97	GapExp	0	49	2	1	0	target	0	640	-1000	69728	13.328	12.900	13.764
DTProbeTrack03	6	ProbeTrackDT	1.1	SCS215a	20101105.140245	20101105.140728	dt-shadow	8	0.013328	60	10	60-180	60	116	GapExp	0	50	2	45	0	distractor	1	494	753	70481	13.328	13.250	13.398
DTProbeTrack03	6	ProbeTrackDT	1.1	SCS215a	20101105.140245	20101105.140742	dt-shadow	8	0.013328	60	10	60-180	60	151	GapExp	0	51	2	9	1	target	1	414	793	71274	13.328	13.124	13.542
DTProbeTrack03	6	ProbeTrackDT	1.1	SCS215a	20101105.140245	20101105.140748	dt-shadow	8	0.013328	60	10	60-180	60	139	GapExp	0	52	2	9	0	distractor	1	773	614	71888	13.328	13.114	13.543
DTProbeTrack03	6	ProbeTrackDT	1.1	SCS215a	20101105.140245	20101105.140754	dt-shadow	8	0.013328	60	10	60-180	60	133	GapExp	0	53	2	45	0	distractor	1	787	607	72495	13.328	13.037	13.621
DTProbeTrack03	6	ProbeTrackDT	1.1	SCS215a	20101105.140245	20101105.140800	dt-shadow	8	0.013328	60	10	60-180	60	143	GapExp	0	54	2	1	1	target	1	507	747	73242	13.328	12.980	13.621
DTProbeTrack03	6	ProbeTrackDT	1.1	SCS215a	20101105.140245	20101105.140806	dt-shadow	8	0.013328	60	10	60-180	60	170	GapExp	0	55	2	3	1	target	1	507	747	73989	13.328	12.970	13.684
DTProbeTrack03	6	ProbeTrackDT	1.1	SCS215a	20101105.140245	20101105.140812	dt-shadow	8	0.013328	60	10	60-180	60	80	GapExp	0	56	2	1	0	target	0	653	-1000	72989	13.328	13.311	13.346
DTProbeTrack03	6	ProbeTrackDT	1.1	SCS215a	20101105.140245	20101105.140817	dt-shadow	8	0.013328	60	10	60-180	60	145	GapExp	0	57	2	1	1	target	1	600	700	73689	13.328	12.922	13.743
DTProbeTrack03	6	ProbeTrackDT	1.1	SCS215a	20101105.140245	20101105.140823	dt-shadow	8	0.013328	60	10	60-180	60	148	GapExp	0	58	2	45	1	target	1	547	727	74416	13.328	12.889	13.766
DTProbeTrack03	6	ProbeTrackDT	1.1	SCS215a	20101105.140245	20101105.140830	dt-shadow	8	0.013328	60	10	60-180	60	158	GapExp	0	59	2	3	1	target	1	507	747	75163	13.328	12.903	13.742
DTProbeTrack03	6	ProbeTrackDT	1.1	SCS215a	20101105.140245	20101105.140836	dt-shadow	8	0.013328	60	10	60-180	60	78	GapExp	0	60	2	1	1	target	1	507	747	75910	13.328	13.298	13.363
DTProbeTrack03	6	ProbeTrackDT	1.1	SCS215a	20101105.140245	20101105.140841	dt-shadow	8	0.013328	60	10	60-180	60	124	GapExp	0	61	2	6	0	distractor	1	534	733	76643	13.328	13.308	13.348
DTProbeTrack03	6	ProbeTrackDT	1.1	SCS215a	20101105.140245	20101105.140846	dt-shadow	8	0.013328	60	10	60-180	60	71	GapExp	0	62	2	9	1	target	1	480	760	77403	13.328	13.269	13.401
DTProbeTrack03	6	ProbeTrackDT	1.1	SCS215a	20101105.140245	20101105.140851	dt-shadow	8	0.013328	60	10	60-180	60	85	GapExp	0	63	2	45	0	target	0	600	-1000	76403	13.328	12.878	13.768
DTProbeTrack03	6	ProbeTrackDT	1.1	SCS215a	20101105.140245	20101105.140857	dt-shadow	8	0.013328	60	10	60-180	60	109	GapExp	0	64	2	3	1	target	1	440	780	77183	13.328	13.114	13.544
DTProbeTrack03	6	ProbeTrackDT	1.1	SCS215a	20101105.140245	20101105.140902	dt-shadow	8	0.013328	60	10	60-180	60	171	GapExp	0	65	2	45	1	target	1	427	787	77970	13.328	13.086	13.772
DTProbeTrack03	6	ProbeTrackDT	1.1	SCS215a	20101105.140245	20101105.140909	dt-shadow	8	0.013328	60	10	60-180	60	177	GapExp	0	66	2	45	1	target	1	400	800	78770	13.328	12.878	13.772
DTProbeTrack03	6	ProbeTrackDT	1.1	SCS215a	20101105.140245	20101105.140916	dt-shadow	8	0.013328	60	10	60-180	60	111	GapExp	0	67	2	1	0	target	0	480	-1000	77770	13.328	13.054	13.587
DTProbeTrack03	6	ProbeTrackDT	1.1	SCS215a	20101105.140245	20101105.140921	dt-shadow	8	0.013328	60	10	60-180	60	64	GapExp	0	68	2	45	1	target	1	480	760	78530	13.328	12.944	13.702
DTProbeTrack03	6	ProbeTrackDT	1.1	SCS215a	20101105.140245	20101105.140926	dt-shadow	8	0.013328	60	10	60-180	60	164	GapExp	0	69	2	1	0	distractor	1	600	700	79230	13.328	12.987	13.664
DTProbeTrack03	6	ProbeTrackDT	1.1	SCS215a	20101105.140245	20101105.140933	dt-shadow	8	0.013328	60	10	60-180	60	163	GapExp	0	70	2	6	0	distractor	1	534	733	79963	13.328	12.952	13.702
DTProbeTrack03	6	ProbeTrackDT	1.1	SCS215a	20101105.140245	20101105.140939	dt-shadow	8	0.013328	60	10	60-180	60	165	GapExp	0	71	2	3	0	target	0	467	-1000	78963	13.328	12.851	13.798
DTProbeTrack03	6	ProbeTrackDT	1.1	SCS215a	20101105.140245	20101105.140945	dt-shadow	8	0.013328	60	10	60-180	60	103	GapExp	0	72	2	3	0	distractor	1	494	753	79716	13.328	12.963	13.710
DTProbeTrack03	6	ProbeTrackDT	1.1	SCS215a	20101105.140245	20101105.140950	dt-shadow	8	0.013328	60	10	60-180	60	171	GapExp	0	73	2	9	0	distractor	1	534	733	80449	13.328	12.918	13.748
DTProbeTrack03	6	ProbeTrackDT	1.1	SCS215a	20101105.140245	20101105.140956	dt-shadow	8	0.013328	60	10	60-180	60	170	GapExp	0	74	2	1	0	target	0	507	-1000	79449	13.328	13.099	13.558
DTProbeTrack03	6	ProbeTrackDT	1.1	SCS215a	20101105.140245	20101105.141002	dt-shadow	8	0.013328	60	10	60-180	60	110	GapExp	0	75	2	9	1	target	1	574	713	80162	13.328	13.307	13.351
DTProbeTrack03	6	ProbeTrackDT	1.1	SCS215a	20101105.140245	20101105.141008	dt-shadow	8	0.013328	60	10	60-180	60	98	GapExp	0	76	2	3	0	distractor	1	600	700	80862	13.328	13.057	13.586
DTProbeTrack03	6	ProbeTrackDT	1.1	SCS215a	20101105.140245	20101105.141013	dt-shadow	8	0.013328	60	10	60-180	60	137	GapExp	0	77	2	1	0	distractor	1	560	720	81582	13.378	13.262	26.657
DTProbeTrack03	6	ProbeTrackDT	1.1	SCS215a	20101105.140245	20101105.141019	dt-shadow	8	0.013328	60	10	60-180	60	64	GapExp	0	78	2	3	1	target	1	494	753	82335	13.328	13.309	13.345
DTProbeTrack03	6	ProbeTrackDT	1.1	SCS215a	20101105.140245	20101105.141024	dt-shadow	8	0.013328	60	10	60-180	60	126	GapExp	0	79	2	3	0	distractor	1	440	780	83115	13.328	13.028	13.610
DTProbeTrack03	6	ProbeTrackDT	1.1	SCS215a	20101105.140245	20101105.141029	dt-shadow	8	0.013328	60	10	60-180	60	142	GapExp	0	80	2	45	0	target	0	720	-1000	82115	13.328	13.082	13.555
DTProbeTrack03	6	ProbeTrackDT	1.1	SCS215a	20101105.140245	20101105.141036	dt-shadow	8	0.013328	60	10	60-180	60	86	GapExp	0	81	2	6	1	target	1	467	767	82882	13.328	13.099	13.550
DTProbeTrack03	6	ProbeTrackDT	1.1	SCS215a	20101105.140245	20101105.141041	dt-shadow	8	0.013328	60	10	60-180	60	71	GapExp	0	82	2	6	1	target	1	414	793	83675	13.328	12.958	13.696
DTProbeTrack03	6	ProbeTrackDT	1.1	SCS215a	20101105.140245	20101105.141046	dt-shadow	8	0.013328	60	10	60-180	60	90	GapExp	0	83	2	6	1	target	1	440	780	84455	13.328	13.310	13.347
DTProbeTrack03	6	ProbeTrackDT	1.1	SCS215a	20101105.140245	20101105.141051	dt-shadow	8	0.013328	60	10	60-180	60	77	GapExp	0	84	2	3	1	target	1	534	733	85188	13.328	13.309	13.347
DTProbeTrack03	6	ProbeTrackDT	1.1	SCS215a	20101105.140245	20101105.141056	dt-shadow	8	0.013328	60	10	60-180	60	65	GapExp	0	85	2	9	0	target	0	587	-1000	84188	13.328	13.098	13.552
DTProbeTrack03	6	ProbeTrackDT	1.1	SCS215a	20101105.140245	20101105.141101	dt-shadow	8	0.013328	60	10	60-180	60	151	GapExp	0	86	2	6	1	target	1	387	807	84995	13.328	13.303	13.352
DTProbeTrack03	6	ProbeTrackDT	1.1	SCS215a	20101105.140245	20101105.141107	dt-shadow	8	0.013328	60	10	60-180	60	119	GapExp	0	87	2	45	1	target	1	454	773	85768	13.328	13.090	13.572
DTProbeTrack03	6	ProbeTrackDT	1.1	SCS215a	20101105.140245	20101105.141113	dt-shadow	8	0.013328	60	10	60-180	60	92	GapExp	0	88	2	6	1	target	1	627	687	86455	13.328	13.309	13.345
DTProbeTrack03	6	ProbeTrackDT	1.1	SCS215a	20101105.140245	20101105.141118	dt-shadow	8	0.013328	60	10	60-180	60	149	GapExp	0	89	2	45	1	target	1	440	780	87235	13.328	13.109	13.543
DTProbeTrack03	6	ProbeTrackDT	1.1	SCS215a	20101105.140245	20101105.141124	dt-shadow	8	0.013328	60	10	60-180	60	80	GapExp	0	90	2	1	0	target	0	507	-1000	86235	13.328	13.305	13.346
DTProbeTrack03	6	ProbeTrackDT	1.1	SCS215a	20101105.140245	20101105.141129	dt-shadow	8	0.013328	60	10	60-180	60	78	GapExp	0	91	2	9	0	target	0	507	-1000	85235	13.328	13.285	13.359
DTProbeTrack03	6	ProbeTrackDT	1.1	SCS215a	20101105.140245	20101105.141134	dt-shadow	8	0.013328	60	10	60-180	60	74	GapExp	0	92	2	45	1	distractor	0	627	-1000	84235	13.328	13.309	13.345
DTProbeTrack03	6	ProbeTrackDT	1.1	SCS215a	20101105.140245	20101105.141140	dt-shadow	8	0.013328	60	10	60-180	60	133	GapExp	0	93	2	9	1	target	1	347	827	85062	13.328	13.307	13.348
DTProbeTrack03	6	ProbeTrackDT	1.1	SCS215a	20101105.140245	20101105.141145	dt-shadow	8	0.013328	60	10	60-180	60	162	GapExp	0	94	2	45	1	target	1	720	640	85702	13.328	13.102	13.548
DTProbeTrack03	6	ProbeTrackDT	1.1	SCS215a	20101105.140245	20101105.141152	dt-shadow	8	0.013328	60	10	60-180	60	167	GapExp	0	95	2	6	1	target	1	520	740	86442	13.328	13.304	13.352
DTProbeTrack03	6	ProbeTrackDT	1.1	SCS215a	20101105.140245	20101105.141158	dt-shadow	8	0.013328	60	10	60-180	60	107	GapExp	0	96	2	1	0	distractor	1	547	727	87169	13.328	13.076	13.579
DTProbeTrack03	6	ProbeTrackDT	1.1	SCS215a	20101105.140245	20101105.141204	dt-shadow	8	0.013328	60	10	60-180	60	121	GapExp	0	97	2	45	0	distractor	1	507	747	87916	13.328	13.094	13.559
DTProbeTrack03	6	ProbeTrackDT	1.1	SCS215a	20101105.140245	20101105.141210	dt-shadow	8	0.013328	60	10	60-180	60	88	GapExp	0	98	2	45	0	target	0	560	-1000	86916	13.328	13.295	13.377
DTProbeTrack03	6	ProbeTrackDT	1.1	SCS215a	20101105.140245	20101105.141216	dt-shadow	8	0.013328	60	10	60-180	60	71	GapExp	0	99	2	9	0	distractor	1	454	773	87689	13.328	13.303	13.348
DTProbeTrack03	6	ProbeTrackDT	1.1	SCS215a	20101105.140245	20101105.141220	dt-shadow	8	0.013328	60	10	60-180	60	85	GapExp	0	100	2	1	0	distractor	1	480	760	88449	13.328	13.087	13.564
DTProbeTrack03	6	ProbeTrackDT	1.1	SCS215a	20101105.140245	20101105.141251	dt-shadow	8	0.013328	60	10	60-180	60	157	GapExp	0	101	2	3	1	target	1	534	733	89182	13.421	13.285	39.992
DTProbeTrack03	6	ProbeTrackDT	1.1	SCS215a	20101105.140245	20101105.141257	dt-shadow	8	0.013328	60	10	60-180	60	154	GapExp	0	102	2	1	0	distractor	1	480	760	89942	13.328	13.302	13.354
DTProbeTrack03	6	ProbeTrackDT	1.1	SCS215a	20101105.140245	20101105.141303	dt-shadow	8	0.013328	60	10	60-180	60	150	GapExp	0	103	2	45	0	distractor	1	627	687	90629	13.328	13.257	13.392
DTProbeTrack03	6	ProbeTrackDT	1.1	SCS215a	20101105.140245	20101105.141309	dt-shadow	8	0.013328	60	10	60-180	60	73	GapExp	0	104	2	9	0	target	0	587	-1000	89629	13.328	13.041	13.626
DTProbeTrack03	6	ProbeTrackDT	1.1	SCS215a	20101105.140245	20101105.141314	dt-shadow	8	0.013328	60	10	60-180	60	110	GapExp	0	105	2	9	0	distractor	1	507	747	90376	13.328	13.296	13.346
DTProbeTrack03	6	ProbeTrackDT	1.1	SCS215a	20101105.140245	20101105.141320	dt-shadow	8	0.013328	60	10	60-180	60	109	GapExp	0	106	2	1	0	distractor	1	520	740	91116	13.328	13.308	13.344
DTProbeTrack03	6	ProbeTrackDT	1.1	SCS215a	20101105.140245	20101105.141325	dt-shadow	8	0.013328	60	10	60-180	60	67	GapExp	0	107	2	45	0	distractor	1	547	727	91843	13.328	13.304	13.345
DTProbeTrack03	6	ProbeTrackDT	1.1	SCS215a	20101105.140245	20101105.141330	dt-shadow	8	0.013328	60	10	60-180	60	177	GapExp	0	108	2	45	1	target	1	627	687	92530	13.328	12.855	13.788
DTProbeTrack03	6	ProbeTrackDT	1.1	SCS215a	20101105.140245	20101105.141337	dt-shadow	8	0.013328	60	10	60-180	60	78	GapExp	0	109	2	6	1	target	1	707	647	93177	13.328	13.173	13.483
DTProbeTrack03	6	ProbeTrackDT	1.1	SCS215a	20101105.140245	20101105.141343	dt-shadow	8	0.013328	60	10	60-180	60	119	GapExp	0	110	2	3	0	distractor	1	520	740	93917	13.328	13.105	13.560
DTProbeTrack03	6	ProbeTrackDT	1.1	SCS215a	20101105.140245	20101105.141348	dt-shadow	8	0.013328	60	10	60-180	60	168	GapExp	0	111	2	6	0	distractor	1	534	733	94650	13.328	13.300	13.347
DTProbeTrack03	6	ProbeTrackDT	1.1	SCS215a	20101105.140245	20101105.141354	dt-shadow	8	0.013328	60	10	60-180	60	99	GapExp	0	112	2	3	1	target	1	614	693	95343	13.328	13.312	13.348
DTProbeTrack03	6	ProbeTrackDT	1.1	SCS215a	20101105.140245	20101105.141400	dt-shadow	8	0.013328	60	10	60-180	60	169	GapExp	0	113	2	9	0	distractor	1	560	720	96063	13.328	13.311	13.347
DTProbeTrack03	6	ProbeTrackDT	1.1	SCS215a	20101105.140245	20101105.141406	dt-shadow	8	0.013328	60	10	60-180	60	119	GapExp	0	114	2	6	1	target	1	707	647	96710	13.328	12.856	13.798
DTProbeTrack03	6	ProbeTrackDT	1.1	SCS215a	20101105.140245	20101105.141412	dt-shadow	8	0.013328	60	10	60-180	60	86	GapExp	0	115	2	6	0	distractor	1	480	760	97470	13.328	13.112	13.546
DTProbeTrack03	6	ProbeTrackDT	1.1	SCS215a	20101105.140245	20101105.141417	dt-shadow	8	0.013328	60	10	60-180	60	152	GapExp	0	116	2	1	1	target	1	534	733	98203	13.328	13.309	13.347
DTProbeTrack03	6	ProbeTrackDT	1.1	SCS215a	20101105.140245	20101105.141423	dt-shadow	8	0.013328	60	10	60-180	60	143	GapExp	0	117	2	1	1	target	1	667	667	98870	13.328	13.309	13.349
DTProbeTrack03	6	ProbeTrackDT	1.1	SCS215a	20101105.140245	20101105.141429	dt-shadow	8	0.013328	60	10	60-180	60	119	GapExp	0	118	2	6	0	distractor	1	600	700	99570	13.328	13.299	13.358
DTProbeTrack03	6	ProbeTrackDT	1.1	SCS215a	20101105.140245	20101105.141434	dt-shadow	8	0.013328	60	10	60-180	60	85	GapExp	0	119	2	6	0	target	0	614	-1000	98570	13.328	13.094	13.554
DTProbeTrack03	6	ProbeTrackDT	1.1	SCS215a	20101105.140245	20101105.141440	dt-shadow	8	0.013328	60	10	60-180	60	174	GapExp	0	120	2	1	1	target	1	480	760	99330	13.328	13.253	13.404
DTProbeTrack03	6	ProbeTrackDT	1.1	SCS215a	20101105.140245	20101105.141446	dt-shadow	8	0.013328	60	10	60-180	60	133	GapExp	0	121	2	6	1	target	1	440	780	100110	13.328	13.103	13.554
DTProbeTrack03	6	ProbeTrackDT	1.1	SCS215a	20101105.140245	20101105.141451	dt-shadow	8	0.013328	60	10	60-180	60	130	GapExp	0	122	2	45	0	distractor	1	893	554	100664	13.328	13.108	13.553
DTProbeTrack03	6	ProbeTrackDT	1.1	SCS215a	20101105.140245	20101105.141458	dt-shadow	8	0.013328	60	10	60-180	60	110	GapExp	0	123	2	3	1	target	1	480	760	101424	13.328	13.305	13.346
DTProbeTrack03	6	ProbeTrackDT	1.1	SCS215a	20101105.140245	20101105.141503	dt-shadow	8	0.013328	60	10	60-180	60	92	GapExp	0	124	2	9	0	distractor	1	614	693	102117	13.328	13.296	13.364
DTProbeTrack03	6	ProbeTrackDT	1.1	SCS215a	20101105.140245	20101105.141509	dt-shadow	8	0.013328	60	10	60-180	60	91	GapExp	0	125	2	6	1	target	1	507	747	102864	13.328	13.106	13.561
DTProbeTrack03	6	ProbeTrackDT	1.1	SCS215a	20101105.140245	20101105.141514	dt-shadow	8	0.013328	60	10	60-180	60	179	GapExp	0	126	2	9	1	target	1	480	760	103624	13.328	13.228	13.424
DTProbeTrack03	6	ProbeTrackDT	1.1	SCS215a	20101105.140245	20101105.141520	dt-shadow	8	0.013328	60	10	60-180	60	71	GapExp	0	127	2	1	1	target	1	520	740	104364	13.328	13.300	13.359
DTProbeTrack03	6	ProbeTrackDT	1.1	SCS215a	20101105.140245	20101105.141525	dt-shadow	8	0.013328	60	10	60-180	60	114	GapExp	0	128	2	3	1	target	1	480	760	105124	13.328	13.309	13.345
DTProbeTrack03	6	ProbeTrackDT	1.1	SCS215a	20101105.140245	20101105.141531	dt-shadow	8	0.013328	60	10	60-180	60	135	GapExp	0	129	2	9	0	target	0	707	-1000	104124	13.328	13.303	13.349
DTProbeTrack03	6	ProbeTrackDT	1.1	SCS215a	20101105.140245	20101105.141537	dt-shadow	8	0.013328	60	10	60-180	60	97	GapExp	0	130	2	1	0	distractor	1	587	707	104831	13.328	13.106	13.545
DTProbeTrack03	6	ProbeTrackDT	1.1	SCS215a	20101105.140245	20101105.141542	dt-shadow	8	0.013328	60	10	60-180	60	135	GapExp	0	131	2	9	1	target	1	440	780	105611	13.328	13.100	13.554
DTProbeTrack03	6	ProbeTrackDT	1.1	SCS215a	20101105.140245	20101105.141548	dt-shadow	8	0.013328	60	10	60-180	60	61	GapExp	0	132	2	45	1	target	1	733	634	106245	13.328	13.281	13.381
DTProbeTrack03	6	ProbeTrackDT	1.1	SCS215a	20101105.140245	20101105.141553	dt-shadow	8	0.013328	60	10	60-180	60	148	GapExp	0	133	2	9	1	target	1	414	793	107038	13.328	12.949	13.708
DTProbeTrack03	6	ProbeTrackDT	1.1	SCS215a	20101105.140245	20101105.141559	dt-shadow	8	0.013328	60	10	60-180	60	102	GapExp	0	134	2	1	1	target	1	480	760	107798	13.328	13.307	13.348
DTProbeTrack03	6	ProbeTrackDT	1.1	SCS215a	20101105.140245	20101105.141604	dt-shadow	8	0.013328	60	10	60-180	60	98	GapExp	0	135	2	3	1	target	1	800	600	108398	13.328	13.091	13.558
DTProbeTrack03	6	ProbeTrackDT	1.1	SCS215a	20101105.140245	20101105.141610	dt-shadow	8	0.013328	60	10	60-180	60	126	GapExp	0	136	2	45	1	target	1	440	780	109178	13.328	13.100	13.569
DTProbeTrack03	6	ProbeTrackDT	1.1	SCS215a	20101105.140245	20101105.141616	dt-shadow	8	0.013328	60	10	60-180	60	169	GapExp	0	137	2	3	1	target	1	467	767	109945	13.328	12.887	13.754
DTProbeTrack03	6	ProbeTrackDT	1.1	SCS215a	20101105.140245	20101105.141622	dt-shadow	8	0.013328	60	10	60-180	60	179	GapExp	0	138	2	9	0	distractor	1	653	674	110619	13.328	13.304	13.357
DTProbeTrack03	6	ProbeTrackDT	1.1	SCS215a	20101105.140245	20101105.141629	dt-shadow	8	0.013328	60	10	60-180	60	107	GapExp	0	139	2	3	0	target	0	440	-1000	109619	13.386	12.977	26.643
DTProbeTrack03	6	ProbeTrackDT	1.1	SCS215a	20101105.140245	20101105.141634	dt-shadow	8	0.013328	60	10	60-180	60	65	GapExp	0	140	2	9	0	distractor	1	507	747	110366	13.328	13.301	13.346
DTProbeTrack03	6	ProbeTrackDT	1.1	SCS215a	20101105.140245	20101105.141639	dt-shadow	8	0.013328	60	10	60-180	60	156	GapExp	0	141	2	45	1	target	1	454	773	111139	13.328	13.024	13.622
DTProbeTrack03	6	ProbeTrackDT	1.1	SCS215a	20101105.140245	20101105.141645	dt-shadow	8	0.013328	60	10	60-180	60	131	GapExp	0	142	2	3	0	target	0	667	-1000	110139	13.328	12.953	13.690
DTProbeTrack03	6	ProbeTrackDT	1.1	SCS215a	20101105.140245	20101105.141651	dt-shadow	8	0.013328	60	10	60-180	60	82	GapExp	0	143	2	9	0	distractor	1	534	733	110872	13.328	12.971	13.693
DTProbeTrack03	6	ProbeTrackDT	1.1	SCS215a	20101105.140245	20101105.141656	dt-shadow	8	0.013328	60	10	60-180	60	97	GapExp	0	144	2	9	1	target	1	600	700	111572	13.328	13.310	13.349
DTProbeTrack03	6	ProbeTrackDT	1.1	SCS215a	20101105.140245	20101105.141702	dt-shadow	8	0.013328	60	10	60-180	60	123	GapExp	0	145	2	1	0	target	0	320	-1000	110572	13.328	13.108	13.552
DTProbeTrack03	6	ProbeTrackDT	1.1	SCS215a	20101105.140245	20101105.141707	dt-shadow	8	0.013328	60	10	60-180	60	62	GapExp	0	146	2	6	1	distractor	0	320	-1000	109572	13.328	12.954	13.696
DTProbeTrack03	6	ProbeTrackDT	1.1	SCS215a	20101105.140245	20101105.141712	dt-shadow	8	0.013328	60	10	60-180	60	158	GapExp	0	147	2	9	1	target	1	400	800	110372	13.328	13.308	13.348
DTProbeTrack03	6	ProbeTrackDT	1.1	SCS215a	20101105.140245	20101105.141718	dt-shadow	8	0.013328	60	10	60-180	60	180	GapExp	0	148	2	3	1	target	1	347	827	111199	13.328	13.168	13.492
DTProbeTrack03	6	ProbeTrackDT	1.1	SCS215a	20101105.140245	20101105.141724	dt-shadow	8	0.013328	60	10	60-180	60	96	GapExp	0	149	2	6	0	target	0	400	-1000	110199	13.328	13.104	13.551
DTProbeTrack03	6	ProbeTrackDT	1.1	SCS215a	20101105.140245	20101105.141729	dt-shadow	8	0.013328	60	10	60-180	60	160	GapExp	0	150	2	6	1	target	1	360	820	111019	13.328	13.298	13.362
DTProbeTrack03	6	ProbeTrackDT	1.1	SCS215a	20101105.140245	20101105.141743	dt-shadow	8	0.013328	60	10	60-180	60	172	GapExp	0	151	2	9	0	distractor	1	653	674	111693	13.328	12.910	13.737
DTProbeTrack03	6	ProbeTrackDT	1.1	SCS215a	20101105.140245	20101105.141749	dt-shadow	8	0.013328	60	10	60-180	60	172	GapExp	0	152	2	9	0	distractor	1	507	747	112440	13.328	13.085	13.564
DTProbeTrack03	6	ProbeTrackDT	1.1	SCS215a	20101105.140245	20101105.141756	dt-shadow	8	0.013328	60	10	60-180	60	156	GapExp	0	153	2	6	1	target	1	360	820	113260	13.328	13.100	13.562
DTProbeTrack03	6	ProbeTrackDT	1.1	SCS215a	20101105.140245	20101105.141802	dt-shadow	8	0.013328	60	10	60-180	60	140	GapExp	0	154	2	6	0	distractor	1	654	673	113933	13.328	13.091	13.572
DTProbeTrack03	6	ProbeTrackDT	1.1	SCS215a	20101105.140245	20101105.141808	dt-shadow	8	0.013328	60	10	60-180	60	139	GapExp	0	155	2	1	1	target	1	414	793	114726	13.328	13.297	13.362
DTProbeTrack03	6	ProbeTrackDT	1.1	SCS215a	20101105.140245	20101105.141813	dt-shadow	8	0.013328	60	10	60-180	60	125	GapExp	0	156	2	6	1	target	1	400	800	115526	13.328	13.016	13.634
DTProbeTrack03	6	ProbeTrackDT	1.1	SCS215a	20101105.140245	20101105.141819	dt-shadow	8	0.013328	60	10	60-180	60	71	GapExp	0	157	2	3	1	target	1	414	793	116319	13.328	13.312	13.344
DTProbeTrack03	6	ProbeTrackDT	1.1	SCS215a	20101105.140245	20101105.141824	dt-shadow	8	0.013328	60	10	60-180	60	68	GapExp	0	158	2	9	1	target	1	507	747	117066	13.328	13.003	13.651
DTProbeTrack03	6	ProbeTrackDT	1.1	SCS215a	20101105.140245	20101105.141828	dt-shadow	8	0.013328	60	10	60-180	60	132	GapExp	0	159	2	45	1	target	1	600	700	117766	13.328	13.275	13.375
DTProbeTrack03	6	ProbeTrackDT	1.1	SCS215a	20101105.140245	20101105.141835	dt-shadow	8	0.013328	60	10	60-180	60	109	GapExp	0	160	2	1	0	distractor	1	587	707	118473	13.328	13.304	13.350
DTProbeTrack03	6	ProbeTrackDT	1.1	SCS215a	20101105.140245	20101105.141840	dt-shadow	8	0.013328	60	10	60-180	60	103	GapExp	0	161	2	9	1	target	1	547	727	119200	13.328	13.305	13.351
DTProbeTrack03	6	ProbeTrackDT	1.1	SCS215a	20101105.140245	20101105.141846	dt-shadow	8	0.013328	60	10	60-180	60	70	GapExp	0	162	2	3	0	target	0	613	-1000	118200	13.328	13.112	13.553
DTProbeTrack03	6	ProbeTrackDT	1.1	SCS215a	20101105.140245	20101105.141851	dt-shadow	8	0.013328	60	10	60-180	60	69	GapExp	0	163	2	3	0	target	0	693	-1000	117200	13.328	13.311	13.344
DTProbeTrack03	6	ProbeTrackDT	1.1	SCS215a	20101105.140245	20101105.141856	dt-shadow	8	0.013328	60	10	60-180	60	100	GapExp	0	164	2	3	1	distractor	0	400	-1000	116200	13.328	12.877	13.783
DTProbeTrack03	6	ProbeTrackDT	1.1	SCS215a	20101105.140245	20101105.141901	dt-shadow	8	0.013328	60	10	60-180	60	76	GapExp	0	165	2	9	0	target	0	520	-1000	115200	13.328	13.055	13.601
DTProbeTrack03	6	ProbeTrackDT	1.1	SCS215a	20101105.140245	20101105.141906	dt-shadow	8	0.013328	60	10	60-180	60	85	GapExp	0	166	2	1	1	target	1	480	760	115960	13.328	13.290	13.367
DTProbeTrack03	6	ProbeTrackDT	1.1	SCS215a	20101105.140245	20101105.141911	dt-shadow	8	0.013328	60	10	60-180	60	165	GapExp	0	167	2	3	0	target	0	440	-1000	114960	13.328	13.106	13.560
DTProbeTrack03	6	ProbeTrackDT	1.1	SCS215a	20101105.140245	20101105.141917	dt-shadow	8	0.013328	60	10	60-180	60	127	GapExp	0	168	2	9	1	distractor	0	520	-1000	113960	13.328	12.858	13.782
DTProbeTrack03	6	ProbeTrackDT	1.1	SCS215a	20101105.140245	20101105.141923	dt-shadow	8	0.013328	60	10	60-180	60	161	GapExp	0	169	2	3	1	target	1	440	780	114740	13.328	13.310	13.344
DTProbeTrack03	6	ProbeTrackDT	1.1	SCS215a	20101105.140245	20101105.141929	dt-shadow	8	0.013328	60	10	60-180	60	155	GapExp	0	170	2	3	0	distractor	1	467	767	115507	13.328	12.886	13.767
DTProbeTrack03	6	ProbeTrackDT	1.1	SCS215a	20101105.140245	20101105.141935	dt-shadow	8	0.013328	60	10	60-180	60	105	GapExp	0	171	2	45	0	distractor	1	640	680	116187	13.328	12.924	13.727
DTProbeTrack03	6	ProbeTrackDT	1.1	SCS215a	20101105.140245	20101105.141941	dt-shadow	8	0.013328	60	10	60-180	60	174	GapExp	0	172	2	9	1	distractor	0	680	-1000	115187	13.328	12.983	13.666
DTProbeTrack03	6	ProbeTrackDT	1.1	SCS215a	20101105.140245	20101105.141947	dt-shadow	8	0.013328	60	10	60-180	60	75	GapExp	0	173	2	1	1	target	1	480	760	115947	13.328	13.087	13.558
DTProbeTrack03	6	ProbeTrackDT	1.1	SCS215a	20101105.140245	20101105.141952	dt-shadow	8	0.013328	60	10	60-180	60	101	GapExp	0	174	2	6	0	distractor	1	427	787	116734	13.328	12.886	13.785
DTProbeTrack03	6	ProbeTrackDT	1.1	SCS215a	20101105.140245	20101105.141957	dt-shadow	8	0.013328	60	10	60-180	60	113	GapExp	0	175	2	6	0	distractor	1	520	740	117474	13.328	12.977	13.680
DTProbeTrack03	6	ProbeTrackDT	1.1	SCS215a	20101105.140245	20101105.142003	dt-shadow	8	0.013328	60	10	60-180	60	139	GapExp	0	176	2	45	0	target	0	667	-1000	116474	13.328	13.113	13.557
DTProbeTrack03	6	ProbeTrackDT	1.1	SCS215a	20101105.140245	20101105.142009	dt-shadow	8	0.013328	60	10	60-180	60	145	GapExp	0	177	2	3	1	target	1	467	767	117241	13.328	13.100	13.556
DTProbeTrack03	6	ProbeTrackDT	1.1	SCS215a	20101105.140245	20101105.142015	dt-shadow	8	0.013328	60	10	60-180	60	178	GapExp	0	178	2	9	0	distractor	1	534	733	117974	13.328	13.301	13.356
DTProbeTrack03	6	ProbeTrackDT	1.1	SCS215a	20101105.140245	20101105.142021	dt-shadow	8	0.013328	60	10	60-180	60	140	GapExp	0	179	2	1	1	target	1	534	733	118707	13.328	13.104	13.551
DTProbeTrack03	6	ProbeTrackDT	1.1	SCS215a	20101105.140245	20101105.142027	dt-shadow	8	0.013328	60	10	60-180	60	120	GapExp	0	180	2	9	1	target	1	507	747	119454	13.328	12.980	13.656
DTProbeTrack03	6	ProbeTrackDT	1.1	SCS215a	20101105.140245	20101105.142033	dt-shadow	8	0.013328	60	10	60-180	60	89	GapExp	0	181	2	3	1	distractor	0	614	-1000	118454	13.328	13.309	13.348
DTProbeTrack03	6	ProbeTrackDT	1.1	SCS215a	20101105.140245	20101105.142038	dt-shadow	8	0.013328	60	10	60-180	60	170	GapExp	0	182	2	1	1	target	1	387	807	119261	13.328	13.095	13.568
DTProbeTrack03	6	ProbeTrackDT	1.1	SCS215a	20101105.140245	20101105.142044	dt-shadow	8	0.013328	60	10	60-180	60	85	GapExp	0	183	2	9	0	distractor	1	520	740	120001	13.328	12.909	13.734
DTProbeTrack03	6	ProbeTrackDT	1.1	SCS215a	20101105.140245	20101105.142049	dt-shadow	8	0.013328	60	10	60-180	60	64	GapExp	0	184	2	9	1	target	1	534	733	120734	13.328	13.305	13.347
DTProbeTrack03	6	ProbeTrackDT	1.1	SCS215a	20101105.140245	20101105.142054	dt-shadow	8	0.013328	60	10	60-180	60	125	GapExp	0	185	2	45	1	target	1	414	793	121527	13.328	13.308	13.349
DTProbeTrack03	6	ProbeTrackDT	1.1	SCS215a	20101105.140245	20101105.142100	dt-shadow	8	0.013328	60	10	60-180	60	85	GapExp	0	186	2	6	0	distractor	1	440	780	122307	13.328	13.309	13.352
DTProbeTrack03	6	ProbeTrackDT	1.1	SCS215a	20101105.140245	20101105.142105	dt-shadow	8	0.013328	60	10	60-180	60	68	GapExp	0	187	2	45	0	distractor	1	427	787	123094	13.328	13.076	13.574
DTProbeTrack03	6	ProbeTrackDT	1.1	SCS215a	20101105.140245	20101105.142110	dt-shadow	8	0.013328	60	10	60-180	60	120	GapExp	0	188	2	1	0	distractor	1	654	673	123767	13.328	13.099	13.556
DTProbeTrack03	6	ProbeTrackDT	1.1	SCS215a	20101105.140245	20101105.142116	dt-shadow	8	0.013328	60	10	60-180	60	81	GapExp	0	189	2	6	1	target	1	587	707	124474	13.328	12.922	13.746
DTProbeTrack03	6	ProbeTrackDT	1.1	SCS215a	20101105.140245	20101105.142121	dt-shadow	8	0.013328	60	10	60-180	60	135	GapExp	0	190	2	9	0	distractor	1	627	687	125161	13.328	13.308	13.348
DTProbeTrack03	6	ProbeTrackDT	1.1	SCS215a	20101105.140245	20101105.142127	dt-shadow	8	0.013328	60	10	60-180	60	63	GapExp	0	191	2	1	1	target	1	520	740	125901	13.328	13.105	13.550
DTProbeTrack03	6	ProbeTrackDT	1.1	SCS215a	20101105.140245	20101105.142132	dt-shadow	8	0.013328	60	10	60-180	60	160	GapExp	0	192	2	1	0	distractor	1	427	787	126688	13.328	13.109	13.537
DTProbeTrack03	6	ProbeTrackDT	1.1	SCS215a	20101105.140245	20101105.142138	dt-shadow	8	0.013328	60	10	60-180	60	71	GapExp	0	193	2	6	1	target	1	374	813	127501	13.328	12.848	13.808
DTProbeTrack03	6	ProbeTrackDT	1.1	SCS215a	20101105.140245	20101105.142142	dt-shadow	8	0.013328	60	10	60-180	60	103	GapExp	0	194	2	6	0	target	0	534	-1000	126501	13.328	13.308	13.347
DTProbeTrack03	6	ProbeTrackDT	1.1	SCS215a	20101105.140245	20101105.142148	dt-shadow	8	0.013328	60	10	60-180	60	87	GapExp	0	195	2	6	0	distractor	1	640	680	127181	13.328	13.093	13.542
DTProbeTrack03	6	ProbeTrackDT	1.1	SCS215a	20101105.140245	20101105.142153	dt-shadow	8	0.013328	60	10	60-180	60	73	GapExp	0	196	2	3	0	target	0	467	-1000	126181	13.328	13.309	13.347
DTProbeTrack03	6	ProbeTrackDT	1.1	SCS215a	20101105.140245	20101105.142158	dt-shadow	8	0.013328	60	10	60-180	60	145	GapExp	0	197	2	1	1	target	1	520	740	126921	13.328	13.307	13.351
DTProbeTrack03	6	ProbeTrackDT	1.1	SCS215a	20101105.140245	20101105.142204	dt-shadow	8	0.013328	60	10	60-180	60	116	GapExp	0	198	2	3	0	distractor	1	574	713	127634	13.328	13.312	13.346
DTProbeTrack03	6	ProbeTrackDT	1.1	SCS215a	20101105.140245	20101105.142209	dt-shadow	8	0.013328	60	10	60-180	60	106	GapExp	0	199	2	9	1	target	1	427	787	128421	13.328	13.113	13.542
DTProbeTrack03	6	ProbeTrackDT	1.1	SCS215a	20101105.140245	20101105.142215	dt-shadow	8	0.013328	60	10	60-180	60	77	GapExp	0	200	2	45	0	target	0	653	-1000	127421	13.328	13.093	13.563
DTProbeTrack03	6	ProbeTrackDT	1.1	SCS215a	20101105.140245	20101105.142227	dt-shadow	8	0.013328	60	10	60-180	60	112	GapExp	0	201	2	1	0	distractor	1	400	800	128221	13.328	13.311	13.344
DTProbeTrack03	6	ProbeTrackDT	1.1	SCS215a	20101105.140245	20101105.142232	dt-shadow	8	0.013328	60	10	60-180	60	119	GapExp	0	202	2	6	0	distractor	1	627	687	128908	13.328	13.308	13.350
DTProbeTrack03	6	ProbeTrackDT	1.1	SCS215a	20101105.140245	20101105.142238	dt-shadow	8	0.013328	60	10	60-180	60	141	GapExp	0	203	2	1	1	target	1	480	760	129668	13.328	13.104	13.554
DTProbeTrack03	6	ProbeTrackDT	1.1	SCS215a	20101105.140245	20101105.142243	dt-shadow	8	0.013328	60	10	60-180	60	96	GapExp	0	204	2	1	1	target	1	454	773	130441	13.328	13.092	13.561
DTProbeTrack03	6	ProbeTrackDT	1.1	SCS215a	20101105.140245	20101105.142248	dt-shadow	8	0.013328	60	10	60-180	60	146	GapExp	0	205	2	45	0	target	0	400	-1000	129441	13.328	13.103	13.565
DTProbeTrack03	6	ProbeTrackDT	1.1	SCS215a	20101105.142330	20101105.142336	single-task	8	0.013328	60	10	60-180	60	101	GapPrac	1	1	2	6	1	target	1	520	740	130181	13.328	13.308	13.346
DTProbeTrack03	6	ProbeTrackDT	1.1	SCS215a	20101105.142330	20101105.142341	single-task	8	0.013328	60	10	60-180	60	127	GapPrac	1	2	2	45	0	target	0	454	-1000	129181	13.328	13.309	13.346
DTProbeTrack03	6	ProbeTrackDT	1.1	SCS215a	20101105.142330	20101105.142347	single-task	8	0.013328	60	10	60-180	60	103	GapPrac	1	3	2	9	0	distractor	1	680	660	129841	13.328	12.915	13.736
DTProbeTrack03	6	ProbeTrackDT	1.1	SCS215a	20101105.142330	20101105.142353	single-task	8	0.013328	60	10	60-180	60	79	GapPrac	1	4	2	9	1	target	1	640	680	130521	13.328	13.085	13.571
DTProbeTrack03	6	ProbeTrackDT	1.1	SCS215a	20101105.142330	20101105.142358	single-task	8	0.013328	60	10	60-180	60	72	GapPrac	1	5	2	6	1	target	1	400	800	131321	13.328	12.973	13.687
DTProbeTrack03	6	ProbeTrackDT	1.1	SCS215a	20101105.142330	20101105.142403	single-task	8	0.013328	60	10	60-180	60	72	GapPrac	1	6	2	3	0	distractor	1	480	760	132081	13.328	13.307	13.356
DTProbeTrack03	6	ProbeTrackDT	1.1	SCS215a	20101105.142330	20101105.142408	single-task	8	0.013328	60	10	60-180	60	64	GapPrac	1	7	2	1	0	distractor	1	507	747	132828	13.328	13.310	13.349
DTProbeTrack03	6	ProbeTrackDT	1.1	SCS215a	20101105.142330	20101105.142412	single-task	8	0.013328	60	10	60-180	60	156	GapPrac	1	8	2	6	0	distractor	1	587	707	133535	13.328	13.001	13.637
DTProbeTrack03	6	ProbeTrackDT	1.1	SCS215a	20101105.142330	20101105.142418	single-task	8	0.013328	60	10	60-180	60	115	GapPrac	1	9	2	3	1	target	1	547	727	134262	13.328	13.022	13.642
DTProbeTrack03	6	ProbeTrackDT	1.1	SCS215a	20101105.142330	20101105.142424	single-task	8	0.013328	60	10	60-180	60	178	GapPrac	1	10	2	9	0	distractor	1	547	727	134989	13.328	13.308	13.348
DTProbeTrack03	6	ProbeTrackDT	1.1	SCS215a	20101105.142330	20101105.142430	single-task	8	0.013328	60	10	60-180	60	113	GapPrac	1	11	2	45	0	target	0	587	-1000	133989	13.328	13.310	13.352
DTProbeTrack03	6	ProbeTrackDT	1.1	SCS215a	20101105.142330	20101105.142436	single-task	8	0.013328	60	10	60-180	60	158	GapPrac	1	12	2	3	0	distractor	1	760	620	134609	13.328	12.998	13.673
DTProbeTrack03	6	ProbeTrackDT	1.1	SCS215a	20101105.142330	20101105.142443	single-task	8	0.013328	60	10	60-180	60	151	GapPrac	1	13	2	3	1	target	1	387	807	135416	13.377	12.860	26.678
DTProbeTrack03	6	ProbeTrackDT	1.1	SCS215a	20101105.142330	20101105.142449	single-task	8	0.013328	60	10	60-180	60	89	GapPrac	1	14	2	1	1	target	1	574	713	136129	13.449	13.111	40.118
DTProbeTrack03	6	ProbeTrackDT	1.1	SCS215a	20101105.142330	20101105.142454	single-task	8	0.013328	60	10	60-180	60	106	GapPrac	1	15	2	1	0	distractor	1	667	667	136796	13.328	13.087	13.809
DTProbeTrack03	6	ProbeTrackDT	1.1	SCS215a	20101105.142330	20101105.142459	single-task	8	0.013328	60	10	60-180	60	168	GapPrac	1	16	2	6	0	distractor	1	520	740	137536	13.328	12.983	13.648
DTProbeTrack03	6	ProbeTrackDT	1.1	SCS215a	20101105.142330	20101105.142506	single-task	8	0.013328	60	10	60-180	60	63	GapPrac	1	17	2	9	1	target	1	534	733	138269	13.328	13.308	13.349
DTProbeTrack03	6	ProbeTrackDT	1.1	SCS215a	20101105.142330	20101105.142510	single-task	8	0.013328	60	10	60-180	60	152	GapPrac	1	18	2	45	1	target	1	480	760	139029	13.328	12.881	13.789
DTProbeTrack03	6	ProbeTrackDT	1.1	SCS215a	20101105.142330	20101105.142517	single-task	8	0.013328	60	10	60-180	60	86	GapPrac	1	19	2	45	1	target	1	360	820	139849	13.328	12.860	13.796
DTProbeTrack03	6	ProbeTrackDT	1.1	SCS215a	20101105.142330	20101105.142522	single-task	8	0.013328	60	10	60-180	60	93	GapPrac	1	20	2	1	1	target	1	587	707	140556	13.328	12.994	13.502
DTProbeTrack03	6	ProbeTrackDT	1.1	SCS215a	20101105.142551	20101105.142558	single-task	8	0.013328	60	10	60-180	60	160	GapExp	1	1	2	1	0	target	0	454	-1000	139556	13.328	12.862	13.811
DTProbeTrack03	6	ProbeTrackDT	1.1	SCS215a	20101105.142551	20101105.142604	single-task	8	0.013328	60	10	60-180	60	157	GapExp	1	2	2	45	0	distractor	1	360	820	140376	13.328	13.099	13.557
DTProbeTrack03	6	ProbeTrackDT	1.1	SCS215a	20101105.142551	20101105.142611	single-task	8	0.013328	60	10	60-180	60	134	GapExp	1	3	2	3	0	target	0	707	-1000	139376	13.328	12.834	13.816
DTProbeTrack03	6	ProbeTrackDT	1.1	SCS215a	20101105.142551	20101105.142617	single-task	8	0.013328	60	10	60-180	60	68	GapExp	1	4	2	6	1	distractor	0	360	-1000	138376	13.328	12.910	13.761
DTProbeTrack03	6	ProbeTrackDT	1.1	SCS215a	20101105.142551	20101105.142621	single-task	8	0.013328	60	10	60-180	60	67	GapExp	1	5	2	9	1	target	1	534	733	139109	13.328	12.965	13.691
DTProbeTrack03	6	ProbeTrackDT	1.1	SCS215a	20101105.142551	20101105.142626	single-task	8	0.013328	60	10	60-180	60	119	GapExp	0	6	2	45	0	distractor	1	454	773	139882	13.328	13.113	13.553
DTProbeTrack03	6	ProbeTrackDT	1.1	SCS215a	20101105.142551	20101105.142632	single-task	8	0.013328	60	10	60-180	60	170	GapExp	0	7	2	6	1	target	1	480	760	140642	13.328	12.911	13.734
DTProbeTrack03	6	ProbeTrackDT	1.1	SCS215a	20101105.142551	20101105.142639	single-task	8	0.013328	60	10	60-180	60	80	GapExp	0	8	2	45	0	distractor	1	987	507	141149	13.328	12.855	13.811
DTProbeTrack03	6	ProbeTrackDT	1.1	SCS215a	20101105.142551	20101105.142645	single-task	8	0.013328	60	10	60-180	60	127	GapExp	0	9	2	6	1	distractor	0	640	-1000	140149	13.328	12.961	13.688
DTProbeTrack03	6	ProbeTrackDT	1.1	SCS215a	20101105.142551	20101105.142650	single-task	8	0.013328	60	10	60-180	60	84	GapExp	0	10	2	6	1	target	1	480	760	140909	13.328	13.054	13.602
DTProbeTrack03	6	ProbeTrackDT	1.1	SCS215a	20101105.142551	20101105.142656	single-task	8	0.013328	60	10	60-180	60	66	GapExp	0	11	2	45	1	target	1	640	680	141589	13.328	13.305	13.345
DTProbeTrack03	6	ProbeTrackDT	1.1	SCS215a	20101105.142551	20101105.142701	single-task	8	0.013328	60	10	60-180	60	145	GapExp	0	12	2	6	0	target	0	494	-1000	140589	13.328	13.104	13.550
DTProbeTrack03	6	ProbeTrackDT	1.1	SCS215a	20101105.142551	20101105.142707	single-task	8	0.013328	60	10	60-180	60	168	GapExp	0	13	2	6	0	distractor	1	440	780	141369	13.328	12.886	13.760
DTProbeTrack03	6	ProbeTrackDT	1.1	SCS215a	20101105.142551	20101105.142713	single-task	8	0.013328	60	10	60-180	60	63	GapExp	0	14	2	9	1	target	1	400	800	142169	13.328	13.309	13.348
DTProbeTrack03	6	ProbeTrackDT	1.1	SCS215a	20101105.142551	20101105.142718	single-task	8	0.013328	60	10	60-180	60	108	GapExp	0	15	2	6	0	distractor	1	454	773	142942	13.328	13.309	13.350
DTProbeTrack03	6	ProbeTrackDT	1.1	SCS215a	20101105.142551	20101105.142723	single-task	8	0.013328	60	10	60-180	60	147	GapExp	0	16	2	1	1	target	1	680	660	143602	13.328	12.939	13.727
DTProbeTrack03	6	ProbeTrackDT	1.1	SCS215a	20101105.142551	20101105.142729	single-task	8	0.013328	60	10	60-180	60	122	GapExp	0	17	2	1	0	distractor	1	400	800	144402	13.328	12.896	13.776
DTProbeTrack03	6	ProbeTrackDT	1.1	SCS215a	20101105.142551	20101105.142735	single-task	8	0.013328	60	10	60-180	60	123	GapExp	0	18	2	45	1	target	1	-13	1007	145409	13.328	12.916	13.755
DTProbeTrack03	6	ProbeTrackDT	1.1	SCS215a	20101105.142551	20101105.142740	single-task	8	0.013328	60	10	60-180	60	71	GapExp	0	19	2	45	1	distractor	0	387	-1000	144409	13.328	13.305	13.360
DTProbeTrack03	6	ProbeTrackDT	1.1	SCS215a	20101105.142551	20101105.142746	single-task	8	0.013328	60	10	60-180	60	125	GapExp	0	20	2	1	0	target	0	120	-1000	143409	13.328	12.955	13.694
DTProbeTrack03	6	ProbeTrackDT	1.1	SCS215a	20101105.142551	20101105.142751	single-task	8	0.013328	60	10	60-180	60	73	GapExp	0	21	2	45	1	target	1	387	807	144216	13.328	13.109	13.554
DTProbeTrack03	6	ProbeTrackDT	1.1	SCS215a	20101105.142551	20101105.142756	single-task	8	0.013328	60	10	60-180	60	111	GapExp	0	22	2	1	1	target	1	574	713	144929	13.328	13.309	13.347
DTProbeTrack03	6	ProbeTrackDT	1.1	SCS215a	20101105.142551	20101105.142802	single-task	8	0.013328	60	10	60-180	60	145	GapExp	0	23	2	6	1	distractor	0	454	-1000	143929	13.328	13.308	13.346
DTProbeTrack03	6	ProbeTrackDT	1.1	SCS215a	20101105.142551	20101105.142808	single-task	8	0.013328	60	10	60-180	60	147	GapExp	0	24	2	45	0	target	0	54	-1000	142929	13.328	13.018	13.634
DTProbeTrack03	6	ProbeTrackDT	1.1	SCS215a	20101105.142551	20101105.142814	single-task	8	0.013328	60	10	60-180	60	102	GapExp	0	25	2	45	0	target	0	160	-1000	141929	13.328	13.077	13.573
DTProbeTrack03	6	ProbeTrackDT	1.1	SCS215a	20101105.142551	20101105.142819	single-task	8	0.013328	60	10	60-180	60	97	GapExp	0	26	2	3	1	distractor	0	320	-1000	140929	13.328	12.902	13.764
DTProbeTrack03	6	ProbeTrackDT	1.1	SCS215a	20101105.142551	20101105.142824	single-task	8	0.013328	60	10	60-180	60	106	GapExp	0	27	2	6	1	target	1	254	873	141802	13.328	13.139	13.531
DTProbeTrack03	6	ProbeTrackDT	1.1	SCS215a	20101105.142551	20101105.142829	single-task	8	0.013328	60	10	60-180	60	109	GapExp	0	28	2	6	1	target	1	427	787	142589	13.328	13.131	13.519
DTProbeTrack03	6	ProbeTrackDT	1.1	SCS215a	20101105.142551	20101105.142835	single-task	8	0.013328	60	10	60-180	60	142	GapExp	0	29	2	9	1	target	1	360	820	143409	13.328	13.311	13.347
DTProbeTrack03	6	ProbeTrackDT	1.1	SCS215a	20101105.142551	20101105.142840	single-task	8	0.013328	60	10	60-180	60	160	GapExp	0	30	2	45	0	target	0	360	-1000	142409	13.328	13.099	13.560
DTProbeTrack03	6	ProbeTrackDT	1.1	SCS215a	20101105.142551	20101105.142847	single-task	8	0.013328	60	10	60-180	60	127	GapExp	0	31	2	1	1	distractor	0	467	-1000	141409	13.328	12.942	13.710
DTProbeTrack03	6	ProbeTrackDT	1.1	SCS215a	20101105.142551	20101105.142852	single-task	8	0.013328	60	10	60-180	60	111	GapExp	0	32	2	6	1	target	1	454	773	142182	13.328	13.309	13.351
DTProbeTrack03	6	ProbeTrackDT	1.1	SCS215a	20101105.142551	20101105.142858	single-task	8	0.013328	60	10	60-180	60	123	GapExp	0	33	2	1	1	target	1	440	780	142962	13.328	12.912	13.750
DTProbeTrack03	6	ProbeTrackDT	1.1	SCS215a	20101105.142551	20101105.142903	single-task	8	0.013328	60	10	60-180	60	136	GapExp	0	34	2	3	1	target	1	480	760	143722	13.328	13.105	13.554
DTProbeTrack03	6	ProbeTrackDT	1.1	SCS215a	20101105.142551	20101105.142909	single-task	8	0.013328	60	10	60-180	60	103	GapExp	0	35	2	3	0	target	0	587	-1000	142722	13.328	12.948	13.714
DTProbeTrack03	6	ProbeTrackDT	1.1	SCS215a	20101105.142551	20101105.142914	single-task	8	0.013328	60	10	60-180	60	106	GapExp	0	36	2	6	0	target	0	494	-1000	141722	13.328	13.099	13.556
DTProbeTrack03	6	ProbeTrackDT	1.1	SCS215a	20101105.142551	20101105.142919	single-task	8	0.013328	60	10	60-180	60	163	GapExp	0	37	2	6	1	target	1	547	727	142449	13.328	12.856	13.815
DTProbeTrack03	6	ProbeTrackDT	1.1	SCS215a	20101105.142551	20101105.142926	single-task	8	0.013328	60	10	60-180	60	154	GapExp	0	38	2	3	0	distractor	1	720	640	143089	13.328	13.307	13.348
DTProbeTrack03	6	ProbeTrackDT	1.1	SCS215a	20101105.142551	20101105.142932	single-task	8	0.013328	60	10	60-180	60	91	GapExp	0	39	2	45	0	target	0	347	-1000	142089	13.328	13.290	13.372
DTProbeTrack03	6	ProbeTrackDT	1.1	SCS215a	20101105.142551	20101105.142937	single-task	8	0.013328	60	10	60-180	60	62	GapExp	0	40	2	6	0	target	0	574	-1000	141089	13.328	12.948	13.708
DTProbeTrack03	6	ProbeTrackDT	1.1	SCS215a	20101105.142551	20101105.142942	single-task	8	0.013328	60	10	60-180	60	141	GapExp	0	41	2	6	0	distractor	1	480	760	141849	13.328	13.099	13.562
DTProbeTrack03	6	ProbeTrackDT	1.1	SCS215a	20101105.142551	20101105.142948	single-task	8	0.013328	60	10	60-180	60	104	GapExp	0	42	2	9	0	distractor	1	467	767	142616	13.328	12.950	13.717
