exp	sub	code	rev	comp	runtime	trialtime	stdt	nstim	refreshdur	cuedur	gapdur	gapOnsetRange	durPostProbe	gapOnsetTime	blocktype	prac	trial	ntargets	soa	probeTarget	resp	acc	rt	pts	tpts	meanFrameDur	minFrameDur	maxFrameDur
DTProbeTrack03	9	ProbeTrackDT	1.1	SCS215a	20101112.133142	20101112.133203	single-task	8	0.013337	60	0	60-180	60	151	NoGap	1	1	2	6	0	distractor	1	1466	267	267	13.328	13.309	13.345
DTProbeTrack03	9	ProbeTrackDT	1.1	SCS215a	20101112.133142	20101112.133210	single-task	8	0.013337	60	0	60-180	60	67	NoGap	1	2	2	1	0	distractor	1	800	600	867	13.328	13.230	13.458
DTProbeTrack03	9	ProbeTrackDT	1.1	SCS215a	20101112.133142	20101112.133215	single-task	8	0.013337	60	0	60-180	60	174	NoGap	1	3	2	6	0	distractor	1	547	727	1594	13.328	13.099	13.548
DTProbeTrack03	9	ProbeTrackDT	1.1	SCS215a	20101112.133142	20101112.133221	single-task	8	0.013337	60	0	60-180	60	75	NoGap	1	4	2	3	0	distractor	1	654	673	2267	13.328	13.110	13.552
DTProbeTrack03	9	ProbeTrackDT	1.1	SCS215a	20101112.133142	20101112.133226	single-task	8	0.013337	60	0	60-180	60	120	NoGap	1	5	2	3	1	distractor	0	507	-1000	1267	13.328	12.952	13.768
DTProbeTrack03	9	ProbeTrackDT	1.1	SCS215a	20101112.133142	20101112.133231	single-task	8	0.013337	60	0	60-180	60	106	NoGap	1	6	2	9	0	distractor	1	920	540	1807	13.328	13.309	13.351
DTProbeTrack03	9	ProbeTrackDT	1.1	SCS215a	20101112.133142	20101112.133237	single-task	8	0.013337	60	0	60-180	60	101	NoGap	1	7	2	9	0	distractor	1	534	733	2540	13.328	13.302	13.349
DTProbeTrack03	9	ProbeTrackDT	1.1	SCS215a	20101112.133142	20101112.133243	single-task	8	0.013337	60	0	60-180	60	140	NoGap	1	8	2	1	1	distractor	0	400	-1000	1540	13.328	13.100	13.551
DTProbeTrack03	9	ProbeTrackDT	1.1	SCS215a	20101112.133142	20101112.133248	single-task	8	0.013337	60	0	60-180	60	76	NoGap	1	9	2	9	0	distractor	1	547	727	2267	13.328	13.307	13.353
DTProbeTrack03	9	ProbeTrackDT	1.1	SCS215a	20101112.133142	20101112.133253	single-task	8	0.013337	60	0	60-180	60	174	NoGap	1	10	2	3	1	target	1	427	787	3054	13.328	13.305	13.354
DTProbeTrack03	9	ProbeTrackDT	1.1	SCS215a	20101112.133142	20101112.133259	single-task	8	0.013337	60	0	60-180	60	170	NoGap	1	11	2	3	0	distractor	1	443	779	3833	13.328	12.930	13.714
DTProbeTrack03	9	ProbeTrackDT	1.1	SCS215a	20101112.133142	20101112.133305	single-task	8	0.013337	60	0	60-180	60	95	NoGap	1	12	2	3	0	distractor	1	480	760	4593	13.328	13.110	13.546
DTProbeTrack03	9	ProbeTrackDT	1.1	SCS215a	20101112.133142	20101112.133310	single-task	8	0.013337	60	0	60-180	60	95	NoGap	1	13	2	6	1	target	1	334	833	5426	13.328	13.097	13.551
DTProbeTrack03	9	ProbeTrackDT	1.1	SCS215a	20101112.133142	20101112.133315	single-task	8	0.013337	60	0	60-180	60	130	NoGap	1	14	2	9	1	target	1	414	793	6219	13.328	12.961	13.692
DTProbeTrack03	9	ProbeTrackDT	1.1	SCS215a	20101112.133142	20101112.133321	single-task	8	0.013337	60	0	60-180	60	113	NoGap	1	15	2	1	1	target	1	440	780	6999	13.328	12.883	13.774
DTProbeTrack03	9	ProbeTrackDT	1.1	SCS215a	20101112.133142	20101112.133326	single-task	8	0.013337	60	0	60-180	60	95	NoGap	1	16	2	1	0	distractor	1	507	747	7746	13.328	13.103	13.564
DTProbeTrack03	9	ProbeTrackDT	1.1	SCS215a	20101112.133142	20101112.133331	single-task	8	0.013337	60	0	60-180	60	126	NoGap	1	17	2	1	0	distractor	1	400	800	8546	13.385	13.027	26.643
DTProbeTrack03	9	ProbeTrackDT	1.1	SCS215a	20101112.133142	20101112.133336	single-task	8	0.013337	60	0	60-180	60	125	NoGap	1	18	2	45	0	distractor	1	387	807	9353	13.328	13.295	13.355
DTProbeTrack03	9	ProbeTrackDT	1.1	SCS215a	20101112.133142	20101112.133342	single-task	8	0.013337	60	0	60-180	60	168	NoGap	1	19	2	45	0	distractor	1	467	767	10120	13.328	13.304	13.361
DTProbeTrack03	9	ProbeTrackDT	1.1	SCS215a	20101112.133142	20101112.133349	single-task	8	0.013337	60	0	60-180	60	123	NoGap	1	20	2	6	1	target	1	454	773	10893	13.328	12.899	13.750
DTProbeTrack03	9	ProbeTrackDT	1.1	SCS215a	20101112.133142	20101112.133354	single-task	8	0.013337	60	0	60-180	60	134	NoGap	1	21	2	9	1	target	1	414	793	11686	13.328	13.298	13.363
DTProbeTrack03	9	ProbeTrackDT	1.1	SCS215a	20101112.133142	20101112.133400	single-task	8	0.013337	60	0	60-180	60	154	NoGap	1	22	2	45	0	target	0	454	-1000	10686	13.328	13.105	13.550
DTProbeTrack03	9	ProbeTrackDT	1.1	SCS215a	20101112.133142	20101112.133406	single-task	8	0.013337	60	0	60-180	60	97	NoGap	1	23	2	9	0	distractor	1	574	713	11399	13.328	13.306	13.346
DTProbeTrack03	9	ProbeTrackDT	1.1	SCS215a	20101112.133142	20101112.133411	single-task	8	0.013337	60	0	60-180	60	107	NoGap	1	24	2	6	1	target	1	494	753	12152	13.328	13.307	13.359
DTProbeTrack03	9	ProbeTrackDT	1.1	SCS215a	20101112.133142	20101112.133417	single-task	8	0.013337	60	0	60-180	60	145	NoGap	1	25	2	3	0	distractor	1	387	807	12959	13.328	13.307	13.348
DTProbeTrack03	9	ProbeTrackDT	1.1	SCS215a	20101112.133142	20101112.133422	single-task	8	0.013337	60	0	60-180	60	138	NoGap	1	26	2	45	1	target	1	467	767	13726	13.328	12.947	13.710
DTProbeTrack03	9	ProbeTrackDT	1.1	SCS215a	20101112.133142	20101112.133428	single-task	8	0.013337	60	0	60-180	60	152	NoGap	1	27	2	9	1	target	1	494	753	14479	13.328	13.098	13.569
DTProbeTrack03	9	ProbeTrackDT	1.1	SCS215a	20101112.133142	20101112.133434	single-task	8	0.013337	60	0	60-180	60	87	NoGap	1	28	2	6	0	distractor	1	574	713	15192	13.328	13.103	13.552
DTProbeTrack03	9	ProbeTrackDT	1.1	SCS215a	20101112.133142	20101112.133439	single-task	8	0.013337	60	0	60-180	60	171	NoGap	1	29	2	3	1	target	1	387	807	15999	13.328	12.904	13.764
DTProbeTrack03	9	ProbeTrackDT	1.1	SCS215a	20101112.133142	20101112.133445	single-task	8	0.013337	60	0	60-180	60	121	NoGap	1	30	2	6	1	target	1	427	787	16786	13.328	13.302	13.360
DTProbeTrack03	9	ProbeTrackDT	1.1	SCS215a	20101112.133142	20101112.133451	single-task	8	0.013337	60	0	60-180	60	142	NoGap	1	31	2	45	0	distractor	1	454	773	17559	13.328	13.100	13.544
DTProbeTrack03	9	ProbeTrackDT	1.1	SCS215a	20101112.133142	20101112.133457	single-task	8	0.013337	60	0	60-180	60	105	NoGap	1	32	2	1	1	distractor	0	414	-1000	16559	13.328	13.111	13.557
DTProbeTrack03	9	ProbeTrackDT	1.1	SCS215a	20101112.133142	20101112.133502	single-task	8	0.013337	60	0	60-180	60	85	NoGap	1	33	2	45	1	target	1	427	787	17346	13.328	13.106	13.562
DTProbeTrack03	9	ProbeTrackDT	1.1	SCS215a	20101112.133142	20101112.133508	single-task	8	0.013337	60	0	60-180	60	82	NoGap	1	34	2	45	1	target	1	427	787	18133	13.328	13.302	13.353
DTProbeTrack03	9	ProbeTrackDT	1.1	SCS215a	20101112.133142	20101112.133513	single-task	8	0.013337	60	0	60-180	60	151	NoGap	1	35	2	9	1	target	1	454	773	18906	13.328	13.103	13.555
DTProbeTrack03	9	ProbeTrackDT	1.1	SCS215a	20101112.133142	20101112.133519	single-task	8	0.013337	60	0	60-180	60	105	NoGap	1	36	2	6	0	distractor	1	587	707	19613	13.328	12.935	13.707
DTProbeTrack03	9	ProbeTrackDT	1.1	SCS215a	20101112.133142	20101112.133524	single-task	8	0.013337	60	0	60-180	60	78	NoGap	1	37	2	1	0	distractor	1	440	780	20393	13.328	12.882	13.769
DTProbeTrack03	9	ProbeTrackDT	1.1	SCS215a	20101112.133142	20101112.133529	single-task	8	0.013337	60	0	60-180	60	157	NoGap	1	38	2	45	1	target	1	414	793	21186	13.328	12.869	13.793
DTProbeTrack03	9	ProbeTrackDT	1.1	SCS215a	20101112.133142	20101112.133535	single-task	8	0.013337	60	0	60-180	60	173	NoGap	1	39	2	3	1	distractor	0	427	-1000	20186	13.328	13.307	13.349
DTProbeTrack03	9	ProbeTrackDT	1.1	SCS215a	20101112.133142	20101112.133541	single-task	8	0.013337	60	0	60-180	60	160	NoGap	1	40	2	1	1	target	1	307	847	21033	13.328	13.309	13.355
DTProbeTrack03	9	ProbeTrackDT	1.1	SCS215a	20101112.133806	20101112.133820	dt-shadow	8	0.013328	60	10	60-180	60	69	GapPrac	1	1	2	3	0	target	0	667	-1000	20033	13.328	13.092	13.556
DTProbeTrack03	9	ProbeTrackDT	1.1	SCS215a	20101112.133806	20101112.133825	dt-shadow	8	0.013328	60	10	60-180	60	92	GapPrac	1	2	2	3	0	83	-3	760	-1000	19033	13.328	13.242	13.412
DTProbeTrack03	9	ProbeTrackDT	1.1	SCS215a	20101112.133806	20101112.133830	dt-shadow	8	0.013328	60	10	60-180	60	101	GapPrac	1	3	2	9	0	distractor	1	587	707	19740	13.328	13.257	13.386
DTProbeTrack03	9	ProbeTrackDT	1.1	SCS215a	20101112.133806	20101112.133836	dt-shadow	8	0.013328	60	10	60-180	60	76	GapPrac	1	4	2	6	1	target	1	614	693	20433	13.328	13.303	13.347
DTProbeTrack03	9	ProbeTrackDT	1.1	SCS215a	20101112.133806	20101112.133841	dt-shadow	8	0.013328	60	10	60-180	60	103	GapPrac	1	5	2	6	0	distractor	1	520	740	21173	13.328	13.120	13.552
DTProbeTrack03	9	ProbeTrackDT	1.1	SCS215a	20101112.133806	20101112.133846	dt-shadow	8	0.013328	60	10	60-180	60	119	GapPrac	1	6	2	3	1	target	1	494	753	21926	13.328	13.099	13.541
DTProbeTrack03	9	ProbeTrackDT	1.1	SCS215a	20101112.133806	20101112.133852	dt-shadow	8	0.013328	60	10	60-180	60	121	GapPrac	1	7	2	6	1	target	1	494	753	22679	13.328	13.034	13.623
DTProbeTrack03	9	ProbeTrackDT	1.1	SCS215a	20101112.133806	20101112.133857	dt-shadow	8	0.013328	60	10	60-180	60	63	GapPrac	1	8	2	6	0	distractor	1	507	747	23426	13.328	13.016	13.648
DTProbeTrack03	9	ProbeTrackDT	1.1	SCS215a	20101112.133806	20101112.133902	dt-shadow	8	0.013328	60	10	60-180	60	135	GapPrac	1	9	2	45	1	target	1	520	740	24166	13.328	12.916	13.720
DTProbeTrack03	9	ProbeTrackDT	1.1	SCS215a	20101112.133806	20101112.133908	dt-shadow	8	0.013328	60	10	60-180	60	153	GapPrac	1	10	2	45	0	distractor	1	466	767	24933	13.328	12.941	13.735
DTProbeTrack03	9	ProbeTrackDT	1.1	SCS215a	20101112.133806	20101112.133915	dt-shadow	8	0.013328	60	10	60-180	60	111	GapPrac	1	11	2	1	1	target	1	787	607	25540	13.328	12.990	13.672
DTProbeTrack03	9	ProbeTrackDT	1.1	SCS215a	20101112.133806	20101112.133920	dt-shadow	8	0.013328	60	10	60-180	60	135	GapPrac	1	12	2	3	1	target	1	440	780	26320	13.328	12.925	13.732
DTProbeTrack03	9	ProbeTrackDT	1.1	SCS215a	20101112.133806	20101112.133926	dt-shadow	8	0.013328	60	10	60-180	60	129	GapPrac	1	13	2	1	0	target	0	427	-1000	25320	13.328	13.046	13.603
DTProbeTrack03	9	ProbeTrackDT	1.1	SCS215a	20101112.133806	20101112.133932	dt-shadow	8	0.013328	60	10	60-180	60	82	GapPrac	1	14	2	9	1	target	1	360	820	26140	13.328	13.307	13.355
DTProbeTrack03	9	ProbeTrackDT	1.1	SCS215a	20101112.133806	20101112.133937	dt-shadow	8	0.013328	60	10	60-180	60	158	GapPrac	1	15	2	45	1	distractor	0	547	-1000	25140	13.328	12.878	13.771
DTProbeTrack03	9	ProbeTrackDT	1.1	SCS215a	20101112.133806	20101112.133943	dt-shadow	8	0.013328	60	10	60-180	60	146	GapPrac	1	16	2	1	0	target	0	693	-1000	24140	13.328	13.112	13.537
DTProbeTrack03	9	ProbeTrackDT	1.1	SCS215a	20101112.133806	20101112.133949	dt-shadow	8	0.013328	60	10	60-180	60	178	GapPrac	1	17	2	9	1	target	1	480	760	24900	13.328	12.882	13.791
DTProbeTrack03	9	ProbeTrackDT	1.1	SCS215a	20101112.133806	20101112.133956	dt-shadow	8	0.013328	60	10	60-180	60	162	GapPrac	1	18	2	9	0	distractor	1	600	700	25600	13.328	12.885	13.774
DTProbeTrack03	9	ProbeTrackDT	1.1	SCS215a	20101112.133806	20101112.134002	dt-shadow	8	0.013328	60	10	60-180	60	141	GapPrac	1	19	2	1	1	target	1	574	713	26313	13.328	13.116	13.531
DTProbeTrack03	9	ProbeTrackDT	1.1	SCS215a	20101112.133806	20101112.134008	dt-shadow	8	0.013328	60	10	60-180	60	83	GapPrac	1	20	2	45	0	target	0	734	-1000	25313	13.328	12.962	13.784
DTProbeTrack03	9	ProbeTrackDT	1.1	SCS215a	20101112.134059	20101112.134110	dt-shadow	8	0.013327	60	10	60-180	60	79	GapExp	1	1	2	6	1	target	1	454	773	26086	13.328	12.891	13.727
DTProbeTrack03	9	ProbeTrackDT	1.1	SCS215a	20101112.134059	20101112.134115	dt-shadow	8	0.013327	60	10	60-180	60	165	GapExp	1	2	2	1	0	target	0	534	-1000	25086	13.328	12.834	13.818
DTProbeTrack03	9	ProbeTrackDT	1.1	SCS215a	20101112.134059	20101112.134121	dt-shadow	8	0.013327	60	10	60-180	60	65	GapExp	1	3	2	3	1	target	1	560	720	25806	13.328	13.018	13.639
DTProbeTrack03	9	ProbeTrackDT	1.1	SCS215a	20101112.134059	20101112.134126	dt-shadow	8	0.013327	60	10	60-180	60	114	GapExp	1	4	2	6	0	distractor	1	454	773	26579	13.328	13.303	13.346
DTProbeTrack03	9	ProbeTrackDT	1.1	SCS215a	20101112.134059	20101112.134132	dt-shadow	8	0.013327	60	10	60-180	60	139	GapExp	1	5	2	1	1	target	1	427	787	27366	13.328	13.046	13.638
DTProbeTrack03	9	ProbeTrackDT	1.1	SCS215a	20101112.134059	20101112.134138	dt-shadow	8	0.013327	60	10	60-180	60	179	GapExp	0	6	2	45	1	distractor	0	360	-1000	26366	13.328	12.936	13.721
DTProbeTrack03	9	ProbeTrackDT	1.1	SCS215a	20101112.134059	20101112.134144	dt-shadow	8	0.013327	60	10	60-180	60	95	GapExp	0	7	2	3	1	target	1	360	820	27186	13.328	13.232	13.428
DTProbeTrack03	9	ProbeTrackDT	1.1	SCS215a	20101112.134059	20101112.134149	dt-shadow	8	0.013327	60	10	60-180	60	120	GapExp	0	8	2	45	1	target	1	534	733	27919	13.328	13.009	13.650
DTProbeTrack03	9	ProbeTrackDT	1.1	SCS215a	20101112.134059	20101112.134155	dt-shadow	8	0.013327	60	10	60-180	60	144	GapExp	0	9	2	3	0	target	0	320	-1000	26919	13.328	12.841	13.809
DTProbeTrack03	9	ProbeTrackDT	1.1	SCS215a	20101112.134059	20101112.134201	dt-shadow	8	0.013327	60	10	60-180	60	172	GapExp	0	10	2	1	0	distractor	1	480	760	27679	13.328	12.845	13.802
DTProbeTrack03	9	ProbeTrackDT	1.1	SCS215a	20101112.134059	20101112.134207	dt-shadow	8	0.013327	60	10	60-180	60	171	GapExp	0	11	2	6	1	distractor	0	560	-1000	26679	13.328	13.174	13.470
DTProbeTrack03	9	ProbeTrackDT	1.1	SCS215a	20101112.134059	20101112.134214	dt-shadow	8	0.013327	60	10	60-180	60	147	GapExp	0	12	2	6	0	distractor	1	587	707	27386	13.328	13.306	13.349
DTProbeTrack03	9	ProbeTrackDT	1.1	SCS215a	20101112.134059	20101112.134220	dt-shadow	8	0.013327	60	10	60-180	60	81	GapExp	0	13	2	1	0	distractor	1	613	694	28080	13.328	13.308	13.354
DTProbeTrack03	9	ProbeTrackDT	1.1	SCS215a	20101112.134059	20101112.134225	dt-shadow	8	0.013327	60	10	60-180	60	116	GapExp	0	14	2	1	1	target	1	467	767	28847	13.328	13.130	13.515
DTProbeTrack03	9	ProbeTrackDT	1.1	SCS215a	20101112.134059	20101112.134230	dt-shadow	8	0.013327	60	10	60-180	60	140	GapExp	0	15	2	6	0	distractor	1	614	693	29540	13.328	13.098	13.560
DTProbeTrack03	9	ProbeTrackDT	1.1	SCS215a	20101112.134059	20101112.134236	dt-shadow	8	0.013327	60	10	60-180	60	86	GapExp	0	16	2	3	0	distractor	1	414	793	30333	13.328	12.978	13.686
DTProbeTrack03	9	ProbeTrackDT	1.1	SCS215a	20101112.134059	20101112.134241	dt-shadow	8	0.013327	60	10	60-180	60	73	GapExp	0	17	2	45	0	distractor	1	454	773	31106	13.328	13.300	13.358
DTProbeTrack03	9	ProbeTrackDT	1.1	SCS215a	20101112.134059	20101112.134247	dt-shadow	8	0.013327	60	10	60-180	60	150	GapExp	0	18	2	6	1	target	1	467	767	31873	13.328	13.104	13.557
DTProbeTrack03	9	ProbeTrackDT	1.1	SCS215a	20101112.134059	20101112.134253	dt-shadow	8	0.013327	60	10	60-180	60	114	GapExp	0	19	2	1	1	target	1	534	733	32606	13.328	12.995	13.661
DTProbeTrack03	9	ProbeTrackDT	1.1	SCS215a	20101112.134059	20101112.134258	dt-shadow	8	0.013327	60	10	60-180	60	107	GapExp	0	20	2	1	0	distractor	1	414	793	33399	13.328	12.891	13.765
DTProbeTrack03	9	ProbeTrackDT	1.1	SCS215a	20101112.134059	20101112.134303	dt-shadow	8	0.013327	60	10	60-180	60	65	GapExp	0	21	2	1	0	distractor	1	494	753	34152	13.328	13.311	13.343
DTProbeTrack03	9	ProbeTrackDT	1.1	SCS215a	20101112.134059	20101112.134308	dt-shadow	8	0.013327	60	10	60-180	60	70	GapExp	0	22	2	45	1	target	1	480	760	34912	13.328	13.114	13.542
DTProbeTrack03	9	ProbeTrackDT	1.1	SCS215a	20101112.134059	20101112.134314	dt-shadow	8	0.013327	60	10	60-180	60	77	GapExp	0	23	2	45	0	distractor	1	427	787	35699	13.328	13.114	13.545
DTProbeTrack03	9	ProbeTrackDT	1.1	SCS215a	20101112.134059	20101112.134319	dt-shadow	8	0.013327	60	10	60-180	60	91	GapExp	0	24	2	3	1	target	1	574	713	36412	13.328	13.172	13.527
DTProbeTrack03	9	ProbeTrackDT	1.1	SCS215a	20101112.134059	20101112.134324	dt-shadow	8	0.013327	60	10	60-180	60	118	GapExp	0	25	2	6	1	target	1	613	694	37106	13.328	13.307	13.349
DTProbeTrack03	9	ProbeTrackDT	1.1	SCS215a	20101112.134059	20101112.134330	dt-shadow	8	0.013327	60	10	60-180	60	173	GapExp	0	26	2	3	0	target	0	467	-1000	36106	13.328	12.904	13.763
DTProbeTrack03	9	ProbeTrackDT	1.1	SCS215a	20101112.134059	20101112.134336	dt-shadow	8	0.013327	60	10	60-180	60	74	GapExp	0	27	2	45	0	distractor	1	427	787	36893	13.328	12.890	13.766
DTProbeTrack03	9	ProbeTrackDT	1.1	SCS215a	20101112.134059	20101112.134342	dt-shadow	8	0.013327	60	10	60-180	60	65	GapExp	0	28	2	1	0	distractor	1	480	760	37653	13.328	13.099	13.557
DTProbeTrack03	9	ProbeTrackDT	1.1	SCS215a	20101112.134059	20101112.134346	dt-shadow	8	0.013327	60	10	60-180	60	113	GapExp	0	29	2	45	0	distractor	1	400	800	38453	13.328	13.304	13.351
DTProbeTrack03	9	ProbeTrackDT	1.1	SCS215a	20101112.134059	20101112.134352	dt-shadow	8	0.013327	60	10	60-180	60	169	GapExp	0	30	2	9	1	target	1	467	767	39220	13.328	12.938	13.717
DTProbeTrack03	9	ProbeTrackDT	1.1	SCS215a	20101112.134059	20101112.134359	dt-shadow	8	0.013327	60	10	60-180	60	176	GapExp	0	31	2	9	0	distractor	1	494	753	39973	13.328	13.309	13.346
DTProbeTrack03	9	ProbeTrackDT	1.1	SCS215a	20101112.134059	20101112.134405	dt-shadow	8	0.013327	60	10	60-180	60	173	GapExp	0	32	2	1	1	distractor	0	494	-1000	38973	13.328	13.311	13.345
DTProbeTrack03	9	ProbeTrackDT	1.1	SCS215a	20101112.134059	20101112.134411	dt-shadow	8	0.013327	60	10	60-180	60	76	GapExp	0	33	2	3	1	target	1	454	773	39746	13.328	12.988	13.661
DTProbeTrack03	9	ProbeTrackDT	1.1	SCS215a	20101112.134059	20101112.134416	dt-shadow	8	0.013327	60	10	60-180	60	66	GapExp	0	34	2	3	1	target	1	374	813	40559	13.328	13.042	13.606
DTProbeTrack03	9	ProbeTrackDT	1.1	SCS215a	20101112.134059	20101112.134421	dt-shadow	8	0.013327	60	10	60-180	60	141	GapExp	0	35	2	45	1	target	1	480	760	41319	13.329	12.930	13.734
DTProbeTrack03	9	ProbeTrackDT	1.1	SCS215a	20101112.134059	20101112.134427	dt-shadow	8	0.013327	60	10	60-180	60	172	GapExp	0	36	2	9	0	distractor	1	627	687	42006	13.328	13.311	13.345
DTProbeTrack03	9	ProbeTrackDT	1.1	SCS215a	20101112.134059	20101112.134434	dt-shadow	8	0.013327	60	10	60-180	60	75	GapExp	0	37	2	3	1	target	1	454	773	42779	13.328	12.883	13.767
DTProbeTrack03	9	ProbeTrackDT	1.1	SCS215a	20101112.134059	20101112.134438	dt-shadow	8	0.013327	60	10	60-180	60	82	GapExp	0	38	2	45	0	distractor	1	507	747	43526	13.328	13.172	13.479
DTProbeTrack03	9	ProbeTrackDT	1.1	SCS215a	20101112.134059	20101112.134444	dt-shadow	8	0.013327	60	10	60-180	60	141	GapExp	0	39	2	9	0	distractor	1	454	773	44299	13.328	13.112	13.588
DTProbeTrack03	9	ProbeTrackDT	1.1	SCS215a	20101112.134059	20101112.134450	dt-shadow	8	0.013327	60	10	60-180	60	102	GapExp	0	40	2	9	0	distractor	1	560	720	45019	13.328	13.134	13.594
DTProbeTrack03	9	ProbeTrackDT	1.1	SCS215a	20101112.134059	20101112.134455	dt-shadow	8	0.013327	60	10	60-180	60	136	GapExp	0	41	2	9	1	target	1	467	767	45786	13.328	13.010	13.643
DTProbeTrack03	9	ProbeTrackDT	1.1	SCS215a	20101112.134059	20101112.134501	dt-shadow	8	0.013327	60	10	60-180	60	177	GapExp	0	42	2	1	1	target	1	440	780	46566	13.328	13.152	13.502
DTProbeTrack03	9	ProbeTrackDT	1.1	SCS215a	20101112.134059	20101112.134507	dt-shadow	8	0.013327	60	10	60-180	60	70	GapExp	0	43	2	3	0	distractor	1	480	760	47326	13.328	13.309	13.349
DTProbeTrack03	9	ProbeTrackDT	1.1	SCS215a	20101112.134059	20101112.134512	dt-shadow	8	0.013327	60	10	60-180	60	176	GapExp	0	44	2	1	1	target	1	560	720	48046	13.328	12.858	13.799
DTProbeTrack03	9	ProbeTrackDT	1.1	SCS215a	20101112.134059	20101112.134519	dt-shadow	8	0.013327	60	10	60-180	60	118	GapExp	0	45	2	9	0	distractor	1	494	753	48799	13.328	12.925	13.728
DTProbeTrack03	9	ProbeTrackDT	1.1	SCS215a	20101112.134059	20101112.134524	dt-shadow	8	0.013327	60	10	60-180	60	175	GapExp	0	46	2	6	0	distractor	1	400	800	49599	13.328	13.309	13.345
DTProbeTrack03	9	ProbeTrackDT	1.1	SCS215a	20101112.134059	20101112.134530	dt-shadow	8	0.013327	60	10	60-180	60	64	GapExp	0	47	2	9	1	target	1	467	767	50366	13.328	12.971	13.678
DTProbeTrack03	9	ProbeTrackDT	1.1	SCS215a	20101112.134059	20101112.134535	dt-shadow	8	0.013327	60	10	60-180	60	167	GapExp	0	48	2	1	1	target	1	467	767	51133	13.328	13.054	13.578
DTProbeTrack03	9	ProbeTrackDT	1.1	SCS215a	20101112.134059	20101112.134541	dt-shadow	8	0.013327	60	10	60-180	60	136	GapExp	0	49	2	1	0	distractor	1	574	713	51846	13.328	12.871	13.774
DTProbeTrack03	9	ProbeTrackDT	1.1	SCS215a	20101112.134059	20101112.134547	dt-shadow	8	0.013327	60	10	60-180	60	132	GapExp	0	50	2	9	0	distractor	1	454	773	52619	13.328	13.308	13.365
DTProbeTrack03	9	ProbeTrackDT	1.1	SCS215a	20101112.134059	20101112.134713	dt-shadow	8	0.013327	60	10	60-180	60	150	GapExp	0	51	2	45	0	distractor	1	454	773	53392	13.326	12.867	13.560
DTProbeTrack03	9	ProbeTrackDT	1.1	SCS215a	20101112.134059	20101112.134719	dt-shadow	8	0.013327	60	10	60-180	60	81	GapExp	0	52	2	3	1	distractor	0	387	-1000	52392	13.328	12.863	13.799
DTProbeTrack03	9	ProbeTrackDT	1.1	SCS215a	20101112.134059	20101112.134724	dt-shadow	8	0.013327	60	10	60-180	60	113	GapExp	0	53	2	45	1	target	1	494	753	53145	13.328	13.294	13.357
DTProbeTrack03	9	ProbeTrackDT	1.1	SCS215a	20101112.134059	20101112.134730	dt-shadow	8	0.013327	60	10	60-180	60	93	GapExp	0	54	2	6	0	distractor	1	440	780	53925	13.328	13.298	13.360
DTProbeTrack03	9	ProbeTrackDT	1.1	SCS215a	20101112.134059	20101112.134735	dt-shadow	8	0.013327	60	10	60-180	60	108	GapExp	0	55	2	45	0	distractor	1	440	780	54705	13.328	13.123	13.530
DTProbeTrack03	9	ProbeTrackDT	1.1	SCS215a	20101112.134059	20101112.134741	dt-shadow	8	0.013327	60	10	60-180	60	171	GapExp	0	56	2	9	1	target	1	467	767	55472	13.328	13.109	13.550
DTProbeTrack03	9	ProbeTrackDT	1.1	SCS215a	20101112.134059	20101112.134747	dt-shadow	8	0.013327	60	10	60-180	60	151	GapExp	0	57	2	1	1	target	1	414	793	56265	13.328	12.887	13.774
DTProbeTrack03	9	ProbeTrackDT	1.1	SCS215a	20101112.134059	20101112.134753	dt-shadow	8	0.013327	60	10	60-180	60	146	GapExp	0	58	2	45	1	target	1	520	740	57005	13.328	13.089	13.550
DTProbeTrack03	9	ProbeTrackDT	1.1	SCS215a	20101112.134059	20101112.134800	dt-shadow	8	0.013327	60	10	60-180	60	170	GapExp	0	59	2	1	0	target	0	440	-1000	56005	13.328	13.308	13.347
DTProbeTrack03	9	ProbeTrackDT	1.1	SCS215a	20101112.134059	20101112.134806	dt-shadow	8	0.013327	60	10	60-180	60	88	GapExp	0	60	2	6	1	target	1	374	813	56818	13.328	13.280	13.369
DTProbeTrack03	9	ProbeTrackDT	1.1	SCS215a	20101112.134059	20101112.134811	dt-shadow	8	0.013327	60	10	60-180	60	132	GapExp	0	61	2	6	0	distractor	1	534	733	57551	13.328	12.848	13.796
DTProbeTrack03	9	ProbeTrackDT	1.1	SCS215a	20101112.134059	20101112.134816	dt-shadow	8	0.013327	60	10	60-180	60	126	GapExp	0	62	2	9	0	distractor	1	467	767	58318	13.328	13.307	13.347
DTProbeTrack03	9	ProbeTrackDT	1.1	SCS215a	20101112.134059	20101112.134822	dt-shadow	8	0.013327	60	10	60-180	60	123	GapExp	0	63	2	3	0	distractor	1	400	800	59118	13.328	13.089	13.555
DTProbeTrack03	9	ProbeTrackDT	1.1	SCS215a	20101112.134059	20101112.134828	dt-shadow	8	0.013327	60	10	60-180	60	86	GapExp	0	64	2	9	0	distractor	1	520	740	59858	13.328	12.921	13.730
DTProbeTrack03	9	ProbeTrackDT	1.1	SCS215a	20101112.134059	20101112.134833	dt-shadow	8	0.013327	60	10	60-180	60	67	GapExp	0	65	2	9	0	distractor	1	414	793	60651	13.328	13.299	13.367
DTProbeTrack03	9	ProbeTrackDT	1.1	SCS215a	20101112.134059	20101112.134838	dt-shadow	8	0.013327	60	10	60-180	60	69	GapExp	0	66	2	3	0	target	0	534	-1000	59651	13.328	13.309	13.354
DTProbeTrack03	9	ProbeTrackDT	1.1	SCS215a	20101112.134059	20101112.134842	dt-shadow	8	0.013327	60	10	60-180	60	86	GapExp	0	67	2	9	1	target	1	400	800	60451	13.328	13.093	13.551
DTProbeTrack03	9	ProbeTrackDT	1.1	SCS215a	20101112.134059	20101112.134847	dt-shadow	8	0.013327	60	10	60-180	60	98	GapExp	0	68	2	3	1	target	1	547	727	61178	13.328	13.093	13.563
DTProbeTrack03	9	ProbeTrackDT	1.1	SCS215a	20101112.134059	20101112.134853	dt-shadow	8	0.013327	60	10	60-180	60	61	GapExp	0	69	2	45	1	target	1	387	807	61985	13.328	13.296	13.359
DTProbeTrack03	9	ProbeTrackDT	1.1	SCS215a	20101112.134059	20101112.134858	dt-shadow	8	0.013327	60	10	60-180	60	148	GapExp	0	70	2	9	1	target	1	427	787	62772	13.328	13.100	13.556
DTProbeTrack03	9	ProbeTrackDT	1.1	SCS215a	20101112.134059	20101112.134904	dt-shadow	8	0.013327	60	10	60-180	60	164	GapExp	0	71	2	3	1	target	1	494	753	63525	13.328	12.917	13.744
DTProbeTrack03	9	ProbeTrackDT	1.1	SCS215a	20101112.134059	20101112.134910	dt-shadow	8	0.013327	60	10	60-180	60	74	GapExp	0	72	2	1	1	target	1	427	787	64312	13.328	13.093	13.558
DTProbeTrack03	9	ProbeTrackDT	1.1	SCS215a	20101112.134059	20101112.134915	dt-shadow	8	0.013327	60	10	60-180	60	88	GapExp	0	73	2	6	0	target	0	414	-1000	63312	13.328	13.311	13.352
DTProbeTrack03	9	ProbeTrackDT	1.1	SCS215a	20101112.134059	20101112.134920	dt-shadow	8	0.013327	60	10	60-180	60	88	GapExp	0	74	2	9	1	target	1	427	787	64099	13.328	13.306	13.348
DTProbeTrack03	9	ProbeTrackDT	1.1	SCS215a	20101112.134059	20101112.134925	dt-shadow	8	0.013327	60	10	60-180	60	121	GapExp	0	75	2	9	1	target	1	454	773	64872	13.328	13.097	13.565
DTProbeTrack03	9	ProbeTrackDT	1.1	SCS215a	20101112.134059	20101112.134930	dt-shadow	8	0.013327	60	10	60-180	60	129	GapExp	0	76	2	45	0	distractor	1	680	660	65532	13.328	13.109	13.552
DTProbeTrack03	9	ProbeTrackDT	1.1	SCS215a	20101112.134059	20101112.134937	dt-shadow	8	0.013327	60	10	60-180	60	88	GapExp	0	77	2	9	1	target	1	374	813	66345	13.328	13.089	13.562
DTProbeTrack03	9	ProbeTrackDT	1.1	SCS215a	20101112.134059	20101112.134942	dt-shadow	8	0.013327	60	10	60-180	60	88	GapExp	0	78	2	1	1	target	1	440	780	67125	13.328	13.309	13.347
DTProbeTrack03	9	ProbeTrackDT	1.1	SCS215a	20101112.134059	20101112.134947	dt-shadow	8	0.013327	60	10	60-180	60	114	GapExp	0	79	2	6	1	distractor	0	600	-1000	66125	13.328	12.886	13.771
DTProbeTrack03	9	ProbeTrackDT	1.1	SCS215a	20101112.134059	20101112.134953	dt-shadow	8	0.013327	60	10	60-180	60	160	GapExp	0	80	2	6	1	target	1	494	753	66878	13.328	12.844	13.801
DTProbeTrack03	9	ProbeTrackDT	1.1	SCS215a	20101112.134059	20101112.134959	dt-shadow	8	0.013327	60	10	60-180	60	92	GapExp	0	81	2	1	1	target	1	440	780	67658	13.328	13.056	13.594
DTProbeTrack03	9	ProbeTrackDT	1.1	SCS215a	20101112.134059	20101112.135004	dt-shadow	8	0.013327	60	10	60-180	60	92	GapExp	0	82	2	6	1	target	1	467	767	68425	13.328	12.975	13.680
DTProbeTrack03	9	ProbeTrackDT	1.1	SCS215a	20101112.134059	20101112.135009	dt-shadow	8	0.013327	60	10	60-180	60	91	GapExp	0	83	2	1	1	target	1	374	813	69238	13.328	13.310	13.347
DTProbeTrack03	9	ProbeTrackDT	1.1	SCS215a	20101112.134059	20101112.135014	dt-shadow	8	0.013327	60	10	60-180	60	150	GapExp	0	84	2	6	0	distractor	1	414	793	70031	13.328	13.306	13.352
DTProbeTrack03	9	ProbeTrackDT	1.1	SCS215a	20101112.134059	20101112.135020	dt-shadow	8	0.013327	60	10	60-180	60	132	GapExp	0	85	2	3	0	target	0	454	-1000	69031	13.328	13.096	13.546
DTProbeTrack03	9	ProbeTrackDT	1.1	SCS215a	20101112.134059	20101112.135025	dt-shadow	8	0.013327	60	10	60-180	60	90	GapExp	0	86	2	6	0	distractor	1	534	733	69764	13.387	13.237	26.752
DTProbeTrack03	9	ProbeTrackDT	1.1	SCS215a	20101112.134059	20101112.135031	dt-shadow	8	0.013327	60	10	60-180	60	66	GapExp	0	87	2	3	0	distractor	1	507	747	70511	13.328	13.060	13.596
DTProbeTrack03	9	ProbeTrackDT	1.1	SCS215a	20101112.134059	20101112.135035	dt-shadow	8	0.013327	60	10	60-180	60	171	GapExp	0	88	2	45	0	distractor	1	480	760	71271	13.328	12.839	13.812
DTProbeTrack03	9	ProbeTrackDT	1.1	SCS215a	20101112.134059	20101112.135042	dt-shadow	8	0.013327	60	10	60-180	60	140	GapExp	0	89	2	45	0	distractor	1	547	727	71998	13.328	13.106	13.575
DTProbeTrack03	9	ProbeTrackDT	1.1	SCS215a	20101112.134059	20101112.135049	dt-shadow	8	0.013327	60	10	60-180	60	157	GapExp	0	90	2	6	0	distractor	1	480	760	72758	13.328	12.859	13.817
DTProbeTrack03	9	ProbeTrackDT	1.1	SCS215a	20101112.134059	20101112.135055	dt-shadow	8	0.013327	60	10	60-180	60	111	GapExp	0	91	2	3	0	distractor	1	547	727	73485	13.328	13.088	13.549
DTProbeTrack03	9	ProbeTrackDT	1.1	SCS215a	20101112.134059	20101112.135100	dt-shadow	8	0.013327	60	10	60-180	60	70	GapExp	0	92	2	9	0	distractor	1	414	793	74278	13.328	12.860	13.796
DTProbeTrack03	9	ProbeTrackDT	1.1	SCS215a	20101112.134059	20101112.135105	dt-shadow	8	0.013327	60	10	60-180	60	91	GapExp	0	93	2	1	0	distractor	1	667	667	74945	13.328	13.277	13.380
DTProbeTrack03	9	ProbeTrackDT	1.1	SCS215a	20101112.134059	20101112.135110	dt-shadow	8	0.013327	60	10	60-180	60	139	GapExp	0	94	2	45	0	distractor	1	427	787	75732	13.328	13.109	13.550
DTProbeTrack03	9	ProbeTrackDT	1.1	SCS215a	20101112.134059	20101112.135117	dt-shadow	8	0.013327	60	10	60-180	60	146	GapExp	0	95	2	6	0	target	0	507	-1000	74732	13.328	13.248	13.414
DTProbeTrack03	9	ProbeTrackDT	1.1	SCS215a	20101112.134059	20101112.135122	dt-shadow	8	0.013327	60	10	60-180	60	95	GapExp	0	96	2	6	0	target	0	640	-1000	73732	13.328	13.111	13.547
DTProbeTrack03	9	ProbeTrackDT	1.1	SCS215a	20101112.134059	20101112.135128	dt-shadow	8	0.013327	60	10	60-180	60	136	GapExp	0	97	2	1	1	target	1	520	740	74472	13.328	13.299	13.353
DTProbeTrack03	9	ProbeTrackDT	1.1	SCS215a	20101112.134059	20101112.135134	dt-shadow	8	0.013327	60	10	60-180	60	113	GapExp	0	98	2	6	0	distractor	1	400	800	75272	13.328	12.874	13.797
DTProbeTrack03	9	ProbeTrackDT	1.1	SCS215a	20101112.134059	20101112.135139	dt-shadow	8	0.013327	60	10	60-180	60	126	GapExp	0	99	2	3	1	distractor	0	640	-1000	74272	13.328	12.903	13.748
DTProbeTrack03	9	ProbeTrackDT	1.1	SCS215a	20101112.134059	20101112.135145	dt-shadow	8	0.013327	60	10	60-180	60	175	GapExp	0	100	2	1	0	distractor	1	454	773	75045	13.328	13.111	13.553
DTProbeTrack03	9	ProbeTrackDT	1.1	SCS215a	20101112.134059	20101112.135248	dt-shadow	8	0.013327	60	10	60-180	60	159	GapExp	0	101	2	3	1	target	1	427	787	75832	13.328	13.095	13.561
DTProbeTrack03	9	ProbeTrackDT	1.1	SCS215a	20101112.134059	20101112.135254	dt-shadow	8	0.013327	60	10	60-180	60	144	GapExp	0	102	2	9	0	distractor	1	414	793	76625	13.328	12.918	13.730
DTProbeTrack03	9	ProbeTrackDT	1.1	SCS215a	20101112.134059	20101112.135300	dt-shadow	8	0.013327	60	10	60-180	60	67	GapExp	0	103	2	6	1	target	1	507	747	77372	13.395	13.306	26.631
DTProbeTrack03	9	ProbeTrackDT	1.1	SCS215a	20101112.134059	20101112.135305	dt-shadow	8	0.013327	60	10	60-180	60	62	GapExp	0	104	2	9	0	distractor	1	387	807	78179	13.328	13.235	13.420
DTProbeTrack03	9	ProbeTrackDT	1.1	SCS215a	20101112.134059	20101112.135310	dt-shadow	8	0.013327	60	10	60-180	60	109	GapExp	0	105	2	45	1	target	1	560	720	78899	13.657	12.984	106.975
DTProbeTrack03	9	ProbeTrackDT	1.1	SCS215a	20101112.134059	20101112.135316	dt-shadow	8	0.013327	60	10	60-180	60	179	GapExp	0	106	2	3	0	distractor	1	560	720	79619	13.328	13.103	13.551
DTProbeTrack03	9	ProbeTrackDT	1.1	SCS215a	20101112.134059	20101112.135322	dt-shadow	8	0.013327	60	10	60-180	60	151	GapExp	0	107	2	45	0	distractor	1	507	747	80366	13.328	12.976	13.682
DTProbeTrack03	9	ProbeTrackDT	1.1	SCS215a	20101112.134059	20101112.135329	dt-shadow	8	0.013327	60	10	60-180	60	73	GapExp	0	108	2	6	0	target	0	560	-1000	79366	13.328	13.309	13.348
DTProbeTrack03	9	ProbeTrackDT	1.1	SCS215a	20101112.134059	20101112.135334	dt-shadow	8	0.013327	60	10	60-180	60	144	GapExp	0	109	2	45	1	target	1	414	793	80159	13.328	12.844	13.816
DTProbeTrack03	9	ProbeTrackDT	1.1	SCS215a	20101112.134059	20101112.135340	dt-shadow	8	0.013327	60	10	60-180	60	147	GapExp	0	110	2	9	0	distractor	1	440	780	80939	13.328	12.847	13.817
DTProbeTrack03	9	ProbeTrackDT	1.1	SCS215a	20101112.134059	20101112.135346	dt-shadow	8	0.013327	60	10	60-180	60	179	GapExp	0	111	2	1	0	distractor	1	440	780	81719	13.328	12.918	13.738
DTProbeTrack03	9	ProbeTrackDT	1.1	SCS215a	20101112.134059	20101112.135352	dt-shadow	8	0.013327	60	10	60-180	60	136	GapExp	0	112	2	1	1	target	1	467	767	82486	13.328	12.961	13.686
DTProbeTrack03	9	ProbeTrackDT	1.1	SCS215a	20101112.134059	20101112.135358	dt-shadow	8	0.013327	60	10	60-180	60	155	GapExp	0	113	2	1	1	target	1	1000	500	82986	13.328	12.961	13.691
DTProbeTrack03	9	ProbeTrackDT	1.1	SCS215a	20101112.134059	20101112.135404	dt-shadow	8	0.013327	60	10	60-180	60	109	GapExp	0	114	2	9	0	distractor	1	467	767	83753	13.328	13.296	13.362
DTProbeTrack03	9	ProbeTrackDT	1.1	SCS215a	20101112.134059	20101112.135410	dt-shadow	8	0.013327	60	10	60-180	60	156	GapExp	0	115	2	3	0	target	0	454	-1000	82753	13.328	13.111	13.552
DTProbeTrack03	9	ProbeTrackDT	1.1	SCS215a	20101112.134059	20101112.135416	dt-shadow	8	0.013327	60	10	60-180	60	84	GapExp	0	116	2	45	1	target	1	400	800	83553	13.328	13.310	13.355
DTProbeTrack03	9	ProbeTrackDT	1.1	SCS215a	20101112.134059	20101112.135421	dt-shadow	8	0.013327	60	10	60-180	60	180	GapExp	0	117	2	1	1	target	1	467	767	84320	13.328	13.306	13.349
DTProbeTrack03	9	ProbeTrackDT	1.1	SCS215a	20101112.134059	20101112.135428	dt-shadow	8	0.013327	60	10	60-180	60	133	GapExp	0	118	2	6	1	target	1	427	787	85107	13.328	13.271	13.386
DTProbeTrack03	9	ProbeTrackDT	1.1	SCS215a	20101112.134059	20101112.135433	dt-shadow	8	0.013327	60	10	60-180	60	132	GapExp	0	119	2	45	1	target	1	454	773	85880	13.328	13.097	13.556
DTProbeTrack03	9	ProbeTrackDT	1.1	SCS215a	20101112.134059	20101112.135440	dt-shadow	8	0.013327	60	10	60-180	60	148	GapExp	0	120	2	3	1	target	1	507	747	86627	13.328	13.301	13.349
DTProbeTrack03	9	ProbeTrackDT	1.1	SCS215a	20101112.134059	20101112.135445	dt-shadow	8	0.013327	60	10	60-180	60	153	GapExp	0	121	2	1	0	target	0	507	-1000	85627	13.328	13.113	13.537
DTProbeTrack03	9	ProbeTrackDT	1.1	SCS215a	20101112.134059	20101112.135451	dt-shadow	8	0.013327	60	10	60-180	60	162	GapExp	0	122	2	3	1	target	1	520	740	86367	13.328	13.103	13.565
DTProbeTrack03	9	ProbeTrackDT	1.1	SCS215a	20101112.134059	20101112.135458	dt-shadow	8	0.013327	60	10	60-180	60	81	GapExp	0	123	2	3	0	target	0	467	-1000	85367	13.328	12.881	13.775
DTProbeTrack03	9	ProbeTrackDT	1.1	SCS215a	20101112.134059	20101112.135503	dt-shadow	8	0.013327	60	10	60-180	60	103	GapExp	0	124	2	6	1	target	1	347	827	86194	13.328	13.008	13.643
DTProbeTrack03	9	ProbeTrackDT	1.1	SCS215a	20101112.134059	20101112.135508	dt-shadow	8	0.013327	60	10	60-180	60	78	GapExp	0	125	2	1	1	target	1	494	753	86947	13.328	13.086	13.556
DTProbeTrack03	9	ProbeTrackDT	1.1	SCS215a	20101112.134059	20101112.135513	dt-shadow	8	0.013327	60	10	60-180	60	170	GapExp	0	126	2	1	0	distractor	1	680	660	87607	13.328	13.095	13.550
DTProbeTrack03	9	ProbeTrackDT	1.1	SCS215a	20101112.134059	20101112.135520	dt-shadow	8	0.013327	60	10	60-180	60	129	GapExp	0	127	2	9	1	target	1	400	800	88407	13.328	13.310	13.348
DTProbeTrack03	9	ProbeTrackDT	1.1	SCS215a	20101112.134059	20101112.135525	dt-shadow	8	0.013327	60	10	60-180	60	169	GapExp	0	128	2	45	1	target	1	309	846	89253	13.328	12.925	13.734
DTProbeTrack03	9	ProbeTrackDT	1.1	SCS215a	20101112.134059	20101112.135532	dt-shadow	8	0.013327	60	10	60-180	60	172	GapExp	0	129	2	3	0	distractor	1	587	707	89960	13.371	12.840	26.657
DTProbeTrack03	9	ProbeTrackDT	1.1	SCS215a	20101112.134059	20101112.135538	dt-shadow	8	0.013327	60	10	60-180	60	140	GapExp	0	130	2	45	0	distractor	1	414	793	90753	13.328	12.847	13.804
DTProbeTrack03	9	ProbeTrackDT	1.1	SCS215a	20101112.134059	20101112.135545	dt-shadow	8	0.013327	60	10	60-180	60	93	GapExp	0	131	2	3	1	target	1	400	800	91553	13.328	13.303	13.359
DTProbeTrack03	9	ProbeTrackDT	1.1	SCS215a	20101112.134059	20101112.135550	dt-shadow	8	0.013327	60	10	60-180	60	80	GapExp	0	132	2	45	0	distractor	1	494	753	92306	13.328	13.095	13.550
DTProbeTrack03	9	ProbeTrackDT	1.1	SCS215a	20101112.134059	20101112.135555	dt-shadow	8	0.013327	60	10	60-180	60	118	GapExp	0	133	2	3	0	target	0	494	-1000	91306	13.545	12.939	53.698
DTProbeTrack03	9	ProbeTrackDT	1.1	SCS215a	20101112.134059	20101112.135601	dt-shadow	8	0.013327	60	10	60-180	60	110	GapExp	0	134	2	3	1	target	1	400	800	92106	13.328	13.311	13.344
DTProbeTrack03	9	ProbeTrackDT	1.1	SCS215a	20101112.134059	20101112.135606	dt-shadow	8	0.013327	60	10	60-180	60	73	GapExp	0	135	2	6	1	target	1	440	780	92886	13.328	13.297	13.370
DTProbeTrack03	9	ProbeTrackDT	1.1	SCS215a	20101112.134059	20101112.135611	dt-shadow	8	0.013327	60	10	60-180	60	110	GapExp	0	136	2	6	0	distractor	1	440	780	93666	13.328	12.903	13.760
DTProbeTrack03	9	ProbeTrackDT	1.1	SCS215a	20101112.134059	20101112.135616	dt-shadow	8	0.013327	60	10	60-180	60	152	GapExp	0	137	2	3	1	target	1	320	840	94506	13.328	13.016	13.656
DTProbeTrack03	9	ProbeTrackDT	1.1	SCS215a	20101112.134059	20101112.135622	dt-shadow	8	0.013327	60	10	60-180	60	106	GapExp	0	138	2	9	1	target	1	374	813	95319	13.328	13.266	13.394
DTProbeTrack03	9	ProbeTrackDT	1.1	SCS215a	20101112.134059	20101112.135628	dt-shadow	8	0.013327	60	10	60-180	60	138	GapExp	0	139	2	45	0	distractor	1	400	800	96119	13.328	13.308	13.355
DTProbeTrack03	9	ProbeTrackDT	1.1	SCS215a	20101112.134059	20101112.135634	dt-shadow	8	0.013327	60	10	60-180	60	137	GapExp	0	140	2	1	0	distractor	1	440	780	96899	13.328	13.121	13.541
DTProbeTrack03	9	ProbeTrackDT	1.1	SCS215a	20101112.134059	20101112.135639	dt-shadow	8	0.013327	60	10	60-180	60	121	GapExp	0	141	2	1	0	distractor	1	440	780	97679	13.328	13.046	13.609
DTProbeTrack03	9	ProbeTrackDT	1.1	SCS215a	20101112.134059	20101112.135645	dt-shadow	8	0.013327	60	10	60-180	60	62	GapExp	0	142	2	6	0	distractor	1	347	827	98506	13.328	13.111	13.541
DTProbeTrack03	9	ProbeTrackDT	1.1	SCS215a	20101112.134059	20101112.135650	dt-shadow	8	0.013327	60	10	60-180	60	146	GapExp	0	143	2	6	0	distractor	1	334	833	99339	13.328	12.932	13.705
DTProbeTrack03	9	ProbeTrackDT	1.1	SCS215a	20101112.134059	20101112.135655	dt-shadow	8	0.013327	60	10	60-180	60	116	GapExp	0	144	2	6	0	distractor	1	334	833	100172	13.328	13.307	13.351
DTProbeTrack03	9	ProbeTrackDT	1.1	SCS215a	20101112.134059	20101112.135701	dt-shadow	8	0.013327	60	10	60-180	60	116	GapExp	0	145	2	45	1	distractor	0	334	-1000	99172	13.328	12.887	13.755
DTProbeTrack03	9	ProbeTrackDT	1.1	SCS215a	20101112.134059	20101112.135707	dt-shadow	8	0.013327	60	10	60-180	60	88	GapExp	0	146	2	1	1	target	1	414	793	99965	13.328	13.106	13.565
DTProbeTrack03	9	ProbeTrackDT	1.1	SCS215a	20101112.134059	20101112.135712	dt-shadow	8	0.013327	60	10	60-180	60	68	GapExp	0	147	2	9	1	target	1	400	800	100765	13.328	13.311	13.345
DTProbeTrack03	9	ProbeTrackDT	1.1	SCS215a	20101112.134059	20101112.135717	dt-shadow	8	0.013327	60	10	60-180	60	79	GapExp	0	148	2	1	1	target	1	440	780	101545	13.328	13.302	13.348
DTProbeTrack03	9	ProbeTrackDT	1.1	SCS215a	20101112.134059	20101112.135721	dt-shadow	8	0.013327	60	10	60-180	60	85	GapExp	0	149	2	9	1	target	1	347	827	102372	13.328	13.099	13.541
DTProbeTrack03	9	ProbeTrackDT	1.1	SCS215a	20101112.134059	20101112.135726	dt-shadow	8	0.013327	60	10	60-180	60	114	GapExp	0	150	2	1	1	target	1	307	847	103219	13.328	13.307	13.346
DTProbeTrack03	9	ProbeTrackDT	1.1	SCS215a	20101112.134059	20101112.135819	dt-shadow	8	0.013327	60	10	60-180	60	130	GapExp	0	151	2	45	1	target	1	387	807	104026	13.328	12.901	13.746
DTProbeTrack03	9	ProbeTrackDT	1.1	SCS215a	20101112.134059	20101112.135825	dt-shadow	8	0.013327	60	10	60-180	60	154	GapExp	0	152	2	6	1	target	1	600	700	104726	13.328	12.918	13.742
DTProbeTrack03	9	ProbeTrackDT	1.1	SCS215a	20101112.134059	20101112.135831	dt-shadow	8	0.013327	60	10	60-180	60	178	GapExp	0	153	2	45	0	distractor	1	520	740	105466	13.328	13.304	13.350
DTProbeTrack03	9	ProbeTrackDT	1.1	SCS215a	20101112.134059	20101112.135838	dt-shadow	8	0.013327	60	10	60-180	60	178	GapExp	0	154	2	3	0	distractor	1	640	680	106146	13.328	13.100	13.544
DTProbeTrack03	9	ProbeTrackDT	1.1	SCS215a	20101112.134059	20101112.135845	dt-shadow	8	0.013327	60	10	60-180	60	96	GapExp	0	155	2	45	0	distractor	1	427	787	106933	13.328	13.100	13.564
DTProbeTrack03	9	ProbeTrackDT	1.1	SCS215a	20101112.134059	20101112.135850	dt-shadow	8	0.013327	60	10	60-180	60	72	GapExp	0	156	2	6	1	target	1	574	713	107646	13.328	13.309	13.351
DTProbeTrack03	9	ProbeTrackDT	1.1	SCS215a	20101112.134059	20101112.135855	dt-shadow	8	0.013327	60	10	60-180	60	174	GapExp	0	157	2	6	1	target	1	374	813	108459	13.328	13.307	13.348
DTProbeTrack03	9	ProbeTrackDT	1.1	SCS215a	20101112.134059	20101112.135901	dt-shadow	8	0.013327	60	10	60-180	60	97	GapExp	0	158	2	3	0	distractor	1	414	793	109252	13.328	13.304	13.353
DTProbeTrack03	9	ProbeTrackDT	1.1	SCS215a	20101112.134059	20101112.135907	dt-shadow	8	0.013327	60	10	60-180	60	128	GapExp	0	159	2	45	1	target	1	427	787	110039	13.328	12.905	13.751
DTProbeTrack03	9	ProbeTrackDT	1.1	SCS215a	20101112.134059	20101112.135913	dt-shadow	8	0.013327	60	10	60-180	60	117	GapExp	0	160	2	6	0	distractor	1	400	800	110839	13.328	13.087	13.563
DTProbeTrack03	9	ProbeTrackDT	1.1	SCS215a	20101112.134059	20101112.135918	dt-shadow	8	0.013327	60	10	60-180	60	74	GapExp	0	161	2	45	1	target	1	387	807	111646	13.328	13.102	13.553
DTProbeTrack03	9	ProbeTrackDT	1.1	SCS215a	20101112.134059	20101112.135924	dt-shadow	8	0.013327	60	10	60-180	60	114	GapExp	0	162	2	9	0	distractor	1	414	793	112439	13.328	13.067	13.588
DTProbeTrack03	9	ProbeTrackDT	1.1	SCS215a	20101112.134059	20101112.135929	dt-shadow	8	0.013327	60	10	60-180	60	107	GapExp	0	163	2	1	0	multi	-2	707	-1000	111439	13.328	13.309	13.345
DTProbeTrack03	9	ProbeTrackDT	1.1	SCS215a	20101112.134059	20101112.135935	dt-shadow	8	0.013327	60	10	60-180	60	90	GapExp	0	164	2	6	1	target	1	574	713	112152	13.328	12.902	13.761
DTProbeTrack03	9	ProbeTrackDT	1.1	SCS215a	20101112.134059	20101112.135940	dt-shadow	8	0.013327	60	10	60-180	60	86	GapExp	0	165	2	9	1	distractor	0	454	-1000	111152	13.328	13.308	13.347
DTProbeTrack03	9	ProbeTrackDT	1.1	SCS215a	20101112.134059	20101112.135945	dt-shadow	8	0.013327	60	10	60-180	60	102	GapExp	0	166	2	3	1	target	1	454	773	111925	13.328	13.305	13.348
DTProbeTrack03	9	ProbeTrackDT	1.1	SCS215a	20101112.134059	20101112.135950	dt-shadow	8	0.013327	60	10	60-180	60	81	GapExp	0	167	2	3	1	target	1	387	807	112732	13.328	13.308	13.348
DTProbeTrack03	9	ProbeTrackDT	1.1	SCS215a	20101112.134059	20101112.135955	dt-shadow	8	0.013327	60	10	60-180	60	66	GapExp	0	168	2	1	1	target	1	653	674	113406	13.328	12.963	13.702
DTProbeTrack03	9	ProbeTrackDT	1.1	SCS215a	20101112.134059	20101112.140000	dt-shadow	8	0.013327	60	10	60-180	60	156	GapExp	0	169	2	1	0	distractor	1	454	773	114179	13.328	12.874	13.784
DTProbeTrack03	9	ProbeTrackDT	1.1	SCS215a	20101112.134059	20101112.140006	dt-shadow	8	0.013327	60	10	60-180	60	159	GapExp	0	170	2	3	1	target	1	387	807	114986	13.328	13.309	13.345
DTProbeTrack03	9	ProbeTrackDT	1.1	SCS215a	20101112.134059	20101112.140012	dt-shadow	8	0.013327	60	10	60-180	60	126	GapExp	0	171	2	9	1	target	1	467	767	115753	13.328	12.843	13.812
DTProbeTrack03	9	ProbeTrackDT	1.1	SCS215a	20101112.134059	20101112.140018	dt-shadow	8	0.013327	60	10	60-180	60	94	GapExp	0	172	2	6	1	target	1	387	807	116560	13.328	12.908	13.758
DTProbeTrack03	9	ProbeTrackDT	1.1	SCS215a	20101112.134059	20101112.140023	dt-shadow	8	0.013327	60	10	60-180	60	99	GapExp	0	173	2	1	0	distractor	1	400	800	117360	13.328	13.108	13.537
DTProbeTrack03	9	ProbeTrackDT	1.1	SCS215a	20101112.134059	20101112.140028	dt-shadow	8	0.013327	60	10	60-180	60	120	GapExp	0	174	2	3	1	target	1	440	780	118140	13.328	13.095	13.556
DTProbeTrack03	9	ProbeTrackDT	1.1	SCS215a	20101112.134059	20101112.140034	dt-shadow	8	0.013327	60	10	60-180	60	120	GapExp	0	175	2	9	0	distractor	1	507	747	118887	13.328	13.309	13.345
DTProbeTrack03	9	ProbeTrackDT	1.1	SCS215a	20101112.134059	20101112.140039	dt-shadow	8	0.013327	60	10	60-180	60	148	GapExp	0	176	2	45	1	target	1	320	840	119727	13.328	12.941	13.698
DTProbeTrack03	9	ProbeTrackDT	1.1	SCS215a	20101112.134059	20101112.140046	dt-shadow	8	0.013327	60	10	60-180	60	140	GapExp	0	177	2	3	1	target	1	347	827	120554	13.328	13.307	13.346
DTProbeTrack03	9	ProbeTrackDT	1.1	SCS215a	20101112.134059	20101112.140051	dt-shadow	8	0.013327	60	10	60-180	60	128	GapExp	0	178	2	6	1	target	1	374	813	121367	13.328	13.097	13.545
DTProbeTrack03	9	ProbeTrackDT	1.1	SCS215a	20101112.134059	20101112.140057	dt-shadow	8	0.013327	60	10	60-180	60	158	GapExp	0	179	2	6	1	target	1	400	800	122167	13.328	13.099	13.545
DTProbeTrack03	9	ProbeTrackDT	1.1	SCS215a	20101112.134059	20101112.140103	dt-shadow	8	0.013327	60	10	60-180	60	164	GapExp	0	180	2	9	0	distractor	1	440	780	122947	13.328	13.112	13.536
DTProbeTrack03	9	ProbeTrackDT	1.1	SCS215a	20101112.134059	20101112.140109	dt-shadow	8	0.013327	60	10	60-180	60	68	GapExp	0	181	2	1	0	target	0	627	-1000	121947	13.328	13.297	13.347
DTProbeTrack03	9	ProbeTrackDT	1.1	SCS215a	20101112.134059	20101112.140114	dt-shadow	8	0.013327	60	10	60-180	60	106	GapExp	0	182	2	9	1	target	1	360	820	122767	13.328	13.308	13.346
DTProbeTrack03	9	ProbeTrackDT	1.1	SCS215a	20101112.134059	20101112.140119	dt-shadow	8	0.013327	60	10	60-180	60	98	GapExp	0	183	2	3	0	distractor	1	614	693	123460	13.328	12.884	13.760
DTProbeTrack03	9	ProbeTrackDT	1.1	SCS215a	20101112.134059	20101112.140125	dt-shadow	8	0.013327	60	10	60-180	60	168	GapExp	0	184	2	9	0	distractor	1	467	767	124227	13.328	13.118	13.552
DTProbeTrack03	9	ProbeTrackDT	1.1	SCS215a	20101112.134059	20101112.140131	dt-shadow	8	0.013327	60	10	60-180	60	129	GapExp	0	185	2	9	0	distractor	1	440	780	125007	13.328	12.950	13.720
DTProbeTrack03	9	ProbeTrackDT	1.1	SCS215a	20101112.134059	20101112.140137	dt-shadow	8	0.013327	60	10	60-180	60	149	GapExp	0	186	2	6	0	distractor	1	374	813	125820	13.328	13.298	13.355
DTProbeTrack03	9	ProbeTrackDT	1.1	SCS215a	20101112.134059	20101112.140143	dt-shadow	8	0.013327	60	10	60-180	60	70	GapExp	0	187	2	3	0	distractor	1	454	773	126593	13.328	13.277	13.380
DTProbeTrack03	9	ProbeTrackDT	1.1	SCS215a	20101112.134059	20101112.140147	dt-shadow	8	0.013327	60	10	60-180	60	150	GapExp	0	188	2	6	0	target	0	427	-1000	125593	13.328	13.116	13.539
DTProbeTrack03	9	ProbeTrackDT	1.1	SCS215a	20101112.134059	20101112.140153	dt-shadow	8	0.013327	60	10	60-180	60	174	GapExp	0	189	2	3	0	distractor	1	534	733	126326	13.328	13.040	13.617
DTProbeTrack03	9	ProbeTrackDT	1.1	SCS215a	20101112.134059	20101112.140200	dt-shadow	8	0.013327	60	10	60-180	60	149	GapExp	0	190	2	3	0	distractor	1	507	747	127073	13.328	13.106	13.564
DTProbeTrack03	9	ProbeTrackDT	1.1	SCS215a	20101112.134059	20101112.140206	dt-shadow	8	0.013327	60	10	60-180	60	76	GapExp	0	191	2	6	1	distractor	0	320	-1000	126073	13.328	13.308	13.348
DTProbeTrack03	9	ProbeTrackDT	1.1	SCS215a	20101112.134059	20101112.140210	dt-shadow	8	0.013327	60	10	60-180	60	78	GapExp	0	192	2	45	0	distractor	1	520	740	126813	13.328	13.280	13.364
DTProbeTrack03	9	ProbeTrackDT	1.1	SCS215a	20101112.134059	20101112.140216	dt-shadow	8	0.013327	60	10	60-180	60	72	GapExp	0	193	2	9	1	target	1	400	800	127613	13.328	13.094	13.557
DTProbeTrack03	9	ProbeTrackDT	1.1	SCS215a	20101112.134059	20101112.140221	dt-shadow	8	0.013327	60	10	60-180	60	93	GapExp	0	194	2	45	1	target	1	374	813	128426	13.328	13.099	13.555
DTProbeTrack03	9	ProbeTrackDT	1.1	SCS215a	20101112.134059	20101112.140226	dt-shadow	8	0.013327	60	10	60-180	60	135	GapExp	0	195	2	45	0	distractor	1	454	773	129199	13.328	13.106	13.553
DTProbeTrack03	9	ProbeTrackDT	1.1	SCS215a	20101112.134059	20101112.140233	dt-shadow	8	0.013327	60	10	60-180	60	68	GapExp	0	196	2	9	0	distractor	1	387	807	130006	13.328	13.310	13.348
DTProbeTrack03	9	ProbeTrackDT	1.1	SCS215a	20101112.134059	20101112.140237	dt-shadow	8	0.013327	60	10	60-180	60	108	GapExp	0	197	2	1	0	distractor	1	547	727	130733	13.328	13.312	13.349
DTProbeTrack03	9	ProbeTrackDT	1.1	SCS215a	20101112.134059	20101112.140243	dt-shadow	8	0.013327	60	10	60-180	60	109	GapExp	0	198	2	45	0	distractor	1	400	800	131533	13.328	13.100	13.554
DTProbeTrack03	9	ProbeTrackDT	1.1	SCS215a	20101112.134059	20101112.140249	dt-shadow	8	0.013327	60	10	60-180	60	175	GapExp	0	199	2	9	1	target	1	534	733	132266	13.328	13.100	13.563
DTProbeTrack03	9	ProbeTrackDT	1.1	SCS215a	20101112.134059	20101112.140255	dt-shadow	8	0.013327	60	10	60-180	60	109	GapExp	0	200	2	6	1	target	1	360	820	133086	13.328	13.173	13.479
DTProbeTrack03	9	ProbeTrackDT	1.1	SCS215a	20101112.134059	20101112.140346	dt-shadow	8	0.013327	60	10	60-180	60	121	GapExp	0	201	2	45	1	target	1	467	767	133853	13.328	13.106	13.564
DTProbeTrack03	9	ProbeTrackDT	1.1	SCS215a	20101112.134059	20101112.140352	dt-shadow	8	0.013327	60	10	60-180	60	122	GapExp	0	202	2	9	1	target	1	387	807	134660	13.328	13.088	13.556
DTProbeTrack03	9	ProbeTrackDT	1.1	SCS215a	20101112.134059	20101112.140358	dt-shadow	8	0.013327	60	10	60-180	60	160	GapExp	0	203	2	45	1	target	1	440	780	135440	13.328	13.111	13.553
DTProbeTrack03	9	ProbeTrackDT	1.1	SCS215a	20101112.134059	20101112.140404	dt-shadow	8	0.013327	60	10	60-180	60	102	GapExp	0	204	2	9	1	target	1	347	827	136267	13.328	13.266	13.383
DTProbeTrack03	9	ProbeTrackDT	1.1	SCS215a	20101112.134059	20101112.140409	dt-shadow	8	0.013327	60	10	60-180	60	100	GapExp	0	205	2	1	0	distractor	1	454	773	137040	13.328	13.022	13.636
DTProbeTrack03	9	ProbeTrackDT	1.1	SCS215a	20101112.140510	20101112.140523	single-task	8	0.013327	60	10	60-180	60	137	GapPrac	1	1	2	6	0	distractor	1	467	767	137807	13.479	13.094	39.983
DTProbeTrack03	9	ProbeTrackDT	1.1	SCS215a	20101112.140510	20101112.140529	single-task	8	0.013327	60	10	60-180	60	164	GapPrac	1	2	2	1	1	target	1	520	740	138547	13.328	12.928	13.722
DTProbeTrack03	9	ProbeTrackDT	1.1	SCS215a	20101112.140510	20101112.140535	single-task	8	0.013327	60	10	60-180	60	140	GapPrac	1	3	2	9	1	distractor	0	320	-1000	137547	13.328	13.199	13.473
DTProbeTrack03	9	ProbeTrackDT	1.1	SCS215a	20101112.140510	20101112.140541	single-task	8	0.013327	60	10	60-180	60	143	GapPrac	1	4	2	9	1	target	1	360	820	138367	13.328	13.094	13.547
DTProbeTrack03	9	ProbeTrackDT	1.1	SCS215a	20101112.140510	20101112.140547	single-task	8	0.013327	60	10	60-180	60	100	GapPrac	1	5	2	1	0	distractor	1	613	694	139061	13.328	13.072	13.586
DTProbeTrack03	9	ProbeTrackDT	1.1	SCS215a	20101112.140510	20101112.140552	single-task	8	0.013327	60	10	60-180	60	175	GapPrac	1	6	2	3	1	target	1	334	833	139894	13.328	13.074	13.575
DTProbeTrack03	9	ProbeTrackDT	1.1	SCS215a	20101112.140510	20101112.140558	single-task	8	0.013327	60	10	60-180	60	142	GapPrac	1	7	2	1	1	target	1	374	813	140707	13.328	13.103	13.552
DTProbeTrack03	9	ProbeTrackDT	1.1	SCS215a	20101112.140510	20101112.140604	single-task	8	0.013327	60	10	60-180	60	63	GapPrac	1	8	2	3	0	distractor	1	414	793	141500	13.328	13.308	13.347
DTProbeTrack03	9	ProbeTrackDT	1.1	SCS215a	20101112.140510	20101112.140609	single-task	8	0.013327	60	10	60-180	60	126	GapPrac	1	9	2	45	0	distractor	1	446	777	142277	13.328	13.035	13.613
DTProbeTrack03	9	ProbeTrackDT	1.1	SCS215a	20101112.140510	20101112.140615	single-task	8	0.013327	60	10	60-180	60	127	GapPrac	1	10	2	45	1	target	1	560	720	142997	13.328	12.862	13.785
DTProbeTrack03	9	ProbeTrackDT	1.1	SCS215a	20101112.140510	20101112.140621	single-task	8	0.013327	60	10	60-180	60	86	GapPrac	1	11	2	6	0	distractor	1	440	780	143777	13.328	12.968	13.704
DTProbeTrack03	9	ProbeTrackDT	1.1	SCS215a	20101112.140510	20101112.140626	single-task	8	0.013327	60	10	60-180	60	177	GapPrac	1	12	2	1	0	distractor	1	654	673	144450	13.328	12.915	13.727
DTProbeTrack03	9	ProbeTrackDT	1.1	SCS215a	20101112.140510	20101112.140633	single-task	8	0.013327	60	10	60-180	60	132	GapPrac	1	13	2	9	0	target	0	467	-1000	143450	13.328	13.092	13.549
DTProbeTrack03	9	ProbeTrackDT	1.1	SCS215a	20101112.140510	20101112.140638	single-task	8	0.013327	60	10	60-180	60	130	GapPrac	1	14	2	3	0	distractor	1	440	780	144230	13.328	13.310	13.344
DTProbeTrack03	9	ProbeTrackDT	1.1	SCS215a	20101112.140510	20101112.140644	single-task	8	0.013327	60	10	60-180	60	176	GapPrac	1	15	2	45	0	distractor	1	507	747	144977	13.328	12.932	13.717
DTProbeTrack03	9	ProbeTrackDT	1.1	SCS215a	20101112.140510	20101112.140651	single-task	8	0.013327	60	10	60-180	60	131	GapPrac	1	16	2	45	1	target	1	493	754	145731	13.328	13.309	13.347
DTProbeTrack03	9	ProbeTrackDT	1.1	SCS215a	20101112.140510	20101112.140657	single-task	8	0.013327	60	10	60-180	60	82	GapPrac	1	17	2	6	1	target	1	400	800	146531	13.328	13.299	13.347
DTProbeTrack03	9	ProbeTrackDT	1.1	SCS215a	20101112.140510	20101112.140702	single-task	8	0.013327	60	10	60-180	60	64	GapPrac	1	18	2	3	1	target	1	387	807	147338	13.328	13.100	13.542
DTProbeTrack03	9	ProbeTrackDT	1.1	SCS215a	20101112.140510	20101112.140707	single-task	8	0.013327	60	10	60-180	60	130	GapPrac	1	19	2	9	0	distractor	1	480	760	148098	13.328	13.279	13.366
DTProbeTrack03	9	ProbeTrackDT	1.1	SCS215a	20101112.140510	20101112.140712	single-task	8	0.013327	60	10	60-180	60	138	GapPrac	1	20	2	6	1	distractor	0	600	-1000	147098	13.328	13.303	13.359
DTProbeTrack03	9	ProbeTrackDT	1.1	SCS215a	20101112.140752	20101112.140826	single-task	8	0.013328	60	10	60-180	60	141	GapExp	1	1	2	45	0	distractor	1	440	780	147878	13.328	12.904	13.738
DTProbeTrack03	9	ProbeTrackDT	1.1	SCS215a	20101112.140752	20101112.140833	single-task	8	0.013328	60	10	60-180	60	173	GapExp	1	2	2	3	1	target	1	387	807	148685	13.328	12.847	13.807
DTProbeTrack03	9	ProbeTrackDT	1.1	SCS215a	20101112.140752	20101112.140839	single-task	8	0.013328	60	10	60-180	60	64	GapExp	1	3	2	3	0	distractor	1	427	787	149472	13.328	13.052	13.618
DTProbeTrack03	9	ProbeTrackDT	1.1	SCS215a	20101112.140752	20101112.140843	single-task	8	0.013328	60	10	60-180	60	85	GapExp	1	4	2	9	1	distractor	0	454	-1000	148472	13.328	13.304	13.349
DTProbeTrack03	9	ProbeTrackDT	1.1	SCS215a	20101112.140752	20101112.140849	single-task	8	0.013328	60	10	60-180	60	73	GapExp	1	5	2	9	0	distractor	1	534	733	149205	13.328	12.946	13.707
DTProbeTrack03	9	ProbeTrackDT	1.1	SCS215a	20101112.140752	20101112.140854	single-task	8	0.013328	60	10	60-180	60	160	GapExp	0	6	2	3	0	distractor	1	520	740	149945	13.328	12.942	13.735
DTProbeTrack03	9	ProbeTrackDT	1.1	SCS215a	20101112.140752	20101112.140900	single-task	8	0.013328	60	10	60-180	60	134	GapExp	0	7	2	45	0	distractor	1	534	733	150678	13.328	12.878	13.768
DTProbeTrack03	9	ProbeTrackDT	1.1	SCS215a	20101112.140752	20101112.140906	single-task	8	0.013328	60	10	60-180	60	62	GapExp	0	8	2	3	1	target	1	480	760	151438	13.328	12.926	13.716
DTProbeTrack03	9	ProbeTrackDT	1.1	SCS215a	20101112.140752	20101112.140911	single-task	8	0.013328	60	10	60-180	60	105	GapExp	0	9	2	1	1	target	1	427	787	152225	13.328	12.922	13.721
DTProbeTrack03	9	ProbeTrackDT	1.1	SCS215a	20101112.140752	20101112.140916	single-task	8	0.013328	60	10	60-180	60	154	GapExp	0	10	2	9	1	target	1	374	813	153038	13.328	12.893	13.776
DTProbeTrack03	9	ProbeTrackDT	1.1	SCS215a	20101112.140752	20101112.140922	single-task	8	0.013328	60	10	60-180	60	88	GapExp	0	11	2	45	1	target	1	360	820	153858	13.328	13.108	13.543
DTProbeTrack03	9	ProbeTrackDT	1.1	SCS215a	20101112.140752	20101112.140928	single-task	8	0.013328	60	10	60-180	60	76	GapExp	0	12	2	6	0	distractor	1	427	787	154645	13.328	13.307	13.349
DTProbeTrack03	9	ProbeTrackDT	1.1	SCS215a	20101112.140752	20101112.140932	single-task	8	0.013328	60	10	60-180	60	102	GapExp	0	13	2	3	1	distractor	0	347	-1000	153645	13.328	13.308	13.346
DTProbeTrack03	9	ProbeTrackDT	1.1	SCS215a	20101112.140752	20101112.140938	single-task	8	0.013328	60	10	60-180	60	103	GapExp	0	14	2	1	1	target	1	400	800	154445	13.328	12.983	13.675
DTProbeTrack03	9	ProbeTrackDT	1.1	SCS215a	20101112.140752	20101112.140943	single-task	8	0.013328	60	10	60-180	60	169	GapExp	0	15	2	9	1	target	1	347	827	155272	13.328	12.936	13.727
DTProbeTrack03	9	ProbeTrackDT	1.1	SCS215a	20101112.140752	20101112.140949	single-task	8	0.013328	60	10	60-180	60	169	GapExp	0	16	2	1	1	target	1	374	813	156085	13.328	13.116	13.542
DTProbeTrack03	9	ProbeTrackDT	1.1	SCS215a	20101112.140752	20101112.140955	single-task	8	0.013328	60	10	60-180	60	121	GapExp	0	17	2	6	1	target	1	347	827	156912	13.329	13.308	13.569
DTProbeTrack03	9	ProbeTrackDT	1.1	SCS215a	20101112.140752	20101112.141000	single-task	8	0.013328	60	10	60-180	60	171	GapExp	0	18	2	3	0	distractor	1	427	787	157699	13.328	12.870	13.789
DTProbeTrack03	9	ProbeTrackDT	1.1	SCS215a	20101112.140752	20101112.141007	single-task	8	0.013328	60	10	60-180	60	122	GapExp	0	19	2	6	1	target	1	440	780	158479	13.328	12.948	13.706
DTProbeTrack03	9	ProbeTrackDT	1.1	SCS215a	20101112.140752	20101112.141012	single-task	8	0.013328	60	10	60-180	60	68	GapExp	0	20	2	45	1	target	1	454	773	159252	13.328	13.308	13.344
DTProbeTrack03	9	ProbeTrackDT	1.1	SCS215a	20101112.140752	20101112.141018	single-task	8	0.013328	60	10	60-180	60	76	GapExp	0	21	2	45	0	distractor	1	507	747	159999	13.330	12.952	13.778
DTProbeTrack03	9	ProbeTrackDT	1.1	SCS215a	20101112.140752	20101112.141023	single-task	8	0.013328	60	10	60-180	60	112	GapExp	0	22	2	45	1	distractor	0	507	-1000	158999	13.328	13.106	13.554
DTProbeTrack03	9	ProbeTrackDT	1.1	SCS215a	20101112.140752	20101112.141029	single-task	8	0.013328	60	10	60-180	60	164	GapExp	0	23	2	45	0	distractor	1	534	733	159732	13.328	13.105	13.556
DTProbeTrack03	9	ProbeTrackDT	1.1	SCS215a	20101112.140752	20101112.141036	single-task	8	0.013328	60	10	60-180	60	108	GapExp	0	24	2	6	1	target	1	400	800	160532	13.328	12.879	13.789
DTProbeTrack03	9	ProbeTrackDT	1.1	SCS215a	20101112.140752	20101112.141041	single-task	8	0.013328	60	10	60-180	60	62	GapExp	0	25	2	6	0	distractor	1	494	753	161285	13.328	13.307	13.353
DTProbeTrack03	9	ProbeTrackDT	1.1	SCS215a	20101112.140752	20101112.141046	single-task	8	0.013328	60	10	60-180	60	77	GapExp	0	26	2	6	0	distractor	1	480	760	162045	13.328	13.305	13.347
DTProbeTrack03	9	ProbeTrackDT	1.1	SCS215a	20101112.140752	20101112.141051	single-task	8	0.013328	60	10	60-180	60	110	GapExp	0	27	2	6	0	distractor	1	400	800	162845	13.328	13.307	13.352
DTProbeTrack03	9	ProbeTrackDT	1.1	SCS215a	20101112.140752	20101112.141056	single-task	8	0.013328	60	10	60-180	60	175	GapExp	0	28	2	9	0	distractor	1	440	780	163625	13.328	13.032	13.611
DTProbeTrack03	9	ProbeTrackDT	1.1	SCS215a	20101112.140752	20101112.141103	single-task	8	0.013328	60	10	60-180	60	102	GapExp	0	29	2	6	0	distractor	1	334	833	164458	13.328	13.301	13.347
DTProbeTrack03	9	ProbeTrackDT	1.1	SCS215a	20101112.140752	20101112.141108	single-task	8	0.013328	60	10	60-180	60	175	GapExp	0	30	2	3	0	distractor	1	414	793	165251	13.328	12.996	13.653
DTProbeTrack03	9	ProbeTrackDT	1.1	SCS215a	20101112.140752	20101112.141114	single-task	8	0.013328	60	10	60-180	60	143	GapExp	0	31	2	9	0	distractor	1	387	807	166058	13.328	13.086	13.559
DTProbeTrack03	9	ProbeTrackDT	1.1	SCS215a	20101112.140752	20101112.141120	single-task	8	0.013328	60	10	60-180	60	140	GapExp	0	32	2	1	1	target	1	480	760	166818	13.328	12.925	13.715
DTProbeTrack03	9	ProbeTrackDT	1.1	SCS215a	20101112.140752	20101112.141126	single-task	8	0.013328	60	10	60-180	60	145	GapExp	0	33	2	45	0	distractor	1	414	793	167611	13.328	12.870	13.787
DTProbeTrack03	9	ProbeTrackDT	1.1	SCS215a	20101112.140752	20101112.141132	single-task	8	0.013328	60	10	60-180	60	162	GapExp	0	34	2	1	0	distractor	1	480	760	168371	13.328	12.937	13.723
DTProbeTrack03	9	ProbeTrackDT	1.1	SCS215a	20101112.140752	20101112.141138	single-task	8	0.013328	60	10	60-180	60	85	GapExp	0	35	2	6	1	target	1	427	787	169158	13.328	12.841	13.794
DTProbeTrack03	9	ProbeTrackDT	1.1	SCS215a	20101112.140752	20101112.141143	single-task	8	0.013328	60	10	60-180	60	96	GapExp	0	36	2	1	1	target	1	387	807	169965	13.328	12.966	13.696
DTProbeTrack03	9	ProbeTrackDT	1.1	SCS215a	20101112.140752	20101112.141148	single-task	8	0.013328	60	10	60-180	60	73	GapExp	0	37	2	1	1	target	1	400	800	170765	13.328	13.113	13.550
DTProbeTrack03	9	ProbeTrackDT	1.1	SCS215a	20101112.140752	20101112.141153	single-task	8	0.013328	60	10	60-180	60	178	GapExp	0	38	2	1	0	distractor	1	414	793	171558	13.328	12.898	13.757
DTProbeTrack03	9	ProbeTrackDT	1.1	SCS215a	20101112.140752	20101112.141159	single-task	8	0.013328	60	10	60-180	60	137	GapExp	0	39	2	1	0	target	0	374	-1000	170558	13.328	12.864	13.791
DTProbeTrack03	9	ProbeTrackDT	1.1	SCS215a	20101112.140752	20101112.141205	single-task	8	0.013328	60	10	60-180	60	146	GapExp	0	40	2	6	1	distractor	0	387	-1000	169558	13.328	13.299	13.348
DTProbeTrack03	9	ProbeTrackDT	1.1	SCS215a	20101112.140752	20101112.141211	single-task	8	0.013328	60	10	60-180	60	143	GapExp	0	41	2	45	0	distractor	1	467	767	170325	13.328	12.900	13.758
DTProbeTrack03	9	ProbeTrackDT	1.1	SCS215a	20101112.140752	20101112.141217	single-task	8	0.013328	60	10	60-180	60	70	GapExp	0	42	2	1	0	distractor	1	467	767	171092	13.328	13.101	13.555
DTProbeTrack03	9	ProbeTrackDT	1.1	SCS215a	20101112.140752	20101112.141222	single-task	8	0.013328	60	10	60-180	60	180	GapExp	0	43	2	9	0	distractor	1	467	767	171859	13.328	13.300	13.348
DTProbeTrack03	9	ProbeTrackDT	1.1	SCS215a	20101112.140752	20101112.141228	single-task	8	0.013328	60	10	60-180	60	136	GapExp	0	44	2	3	0	distractor	1	600	700	172559	13.328	13.309	13.356
DTProbeTrack03	9	ProbeTrackDT	1.1	SCS215a	20101112.140752	20101112.141234	single-task	8	0.013328	60	10	60-180	60	78	GapExp	0	45	2	1	0	distractor	1	613	694	173253	13.328	13.305	13.345
DTProbeTrack03	9	ProbeTrackDT	1.1	SCS215a	20101112.140752	20101112.141239	single-task	8	0.013328	60	10	60-180	60	167	GapExp	0	46	2	45	1	distractor	0	427	-1000	172253	13.328	12.873	13.802
DTProbeTrack03	9	ProbeTrackDT	1.1	SCS215a	20101112.140752	20101112.141246	single-task	8	0.013328	60	10	60-180	60	62	GapExp	0	47	2	3	1	target	1	467	767	173020	13.328	13.111	13.556
DTProbeTrack03	9	ProbeTrackDT	1.1	SCS215a	20101112.140752	20101112.141251	single-task	8	0.013328	60	10	60-180	60	69	GapExp	0	48	2	45	0	distractor	1	520	740	173760	13.328	13.099	13.555
DTProbeTrack03	9	ProbeTrackDT	1.1	SCS215a	20101112.140752	20101112.141256	single-task	8	0.013328	60	10	60-180	60	132	GapExp	0	49	2	3	1	target	1	507	747	174507	13.328	13.298	13.353
DTProbeTrack03	9	ProbeTrackDT	1.1	SCS215a	20101112.140752	20101112.141302	single-task	8	0.013328	60	10	60-180	60	100	GapExp	0	50	2	1	1	target	1	440	780	175287	13.328	12.918	13.743
DTProbeTrack03	9	ProbeTrackDT	1.1	SCS215a	20101112.140752	20101112.141442	single-task	8	0.013328	60	10	60-180	60	116	GapExp	0	51	2	6	0	distractor	1	374	813	176100	13.328	13.092	13.571
DTProbeTrack03	9	ProbeTrackDT	1.1	SCS215a	20101112.140752	20101112.141448	single-task	8	0.013328	60	10	60-180	60	172	GapExp	0	52	2	9	0	distractor	1	347	827	176927	13.328	12.923	13.731
DTProbeTrack03	9	ProbeTrackDT	1.1	SCS215a	20101112.140752	20101112.141454	single-task	8	0.013328	60	10	60-180	60	174	GapExp	0	53	2	3	0	target	0	467	-1000	175927	13.328	12.956	13.700
DTProbeTrack03	9	ProbeTrackDT	1.1	SCS215a	20101112.140752	20101112.141500	single-task	8	0.013328	60	10	60-180	60	124	GapExp	0	54	2	45	1	distractor	0	467	-1000	174927	13.328	12.963	13.700
DTProbeTrack03	9	ProbeTrackDT	1.1	SCS215a	20101112.140752	20101112.141506	single-task	8	0.013328	60	10	60-180	60	158	GapExp	0	55	2	45	0	distractor	1	400	800	175727	13.328	13.046	13.617
DTProbeTrack03	9	ProbeTrackDT	1.1	SCS215a	20101112.140752	20101112.141513	single-task	8	0.013328	60	10	60-180	60	75	GapExp	0	56	2	6	1	target	1	387	807	176534	13.328	13.309	13.347
DTProbeTrack03	9	ProbeTrackDT	1.1	SCS215a	20101112.140752	20101112.141518	single-task	8	0.013328	60	10	60-180	60	113	GapExp	0	57	2	3	0	distractor	1	547	727	177261	13.328	13.027	13.633
DTProbeTrack03	9	ProbeTrackDT	1.1	SCS215a	20101112.140752	20101112.141523	single-task	8	0.013328	60	10	60-180	60	143	GapExp	0	58	2	3	0	distractor	1	507	747	178008	13.328	13.121	13.431
DTProbeTrack03	9	ProbeTrackDT	1.1	SCS215a	20101112.140752	20101112.141529	single-task	8	0.013328	60	10	60-180	60	69	GapExp	0	59	2	3	0	distractor	1	440	780	178788	13.328	12.893	13.772
DTProbeTrack03	9	ProbeTrackDT	1.1	SCS215a	20101112.140752	20101112.141534	single-task	8	0.013328	60	10	60-180	60	76	GapExp	0	60	2	9	0	target	0	347	-1000	177788	13.328	13.102	13.556
DTProbeTrack03	9	ProbeTrackDT	1.1	SCS215a	20101112.140752	20101112.141539	single-task	8	0.013328	60	10	60-180	60	94	GapExp	0	61	2	45	0	distractor	1	507	747	178535	13.328	12.882	13.798
DTProbeTrack03	9	ProbeTrackDT	1.1	SCS215a	20101112.140752	20101112.141544	single-task	8	0.013328	60	10	60-180	60	92	GapExp	0	62	2	45	1	target	1	467	767	179302	13.328	13.306	13.349
DTProbeTrack03	9	ProbeTrackDT	1.1	SCS215a	20101112.140752	20101112.141550	single-task	8	0.013328	60	10	60-180	60	97	GapExp	0	63	2	9	0	distractor	1	414	793	180095	13.328	12.895	13.765
DTProbeTrack03	9	ProbeTrackDT	1.1	SCS215a	20101112.140752	20101112.141555	single-task	8	0.013328	60	10	60-180	60	163	GapExp	0	64	2	9	0	distractor	1	494	753	180848	13.328	12.956	13.698
DTProbeTrack03	9	ProbeTrackDT	1.1	SCS215a	20101112.140752	20101112.141602	single-task	8	0.013328	60	10	60-180	60	158	GapExp	0	65	2	45	1	distractor	0	480	-1000	179848	13.328	12.975	13.682
DTProbeTrack03	9	ProbeTrackDT	1.1	SCS215a	20101112.140752	20101112.141608	single-task	8	0.013328	60	10	60-180	60	115	GapExp	0	66	2	6	1	target	1	374	813	180661	13.328	13.085	13.567
DTProbeTrack03	9	ProbeTrackDT	1.1	SCS215a	20101112.140752	20101112.141614	single-task	8	0.013328	60	10	60-180	60	75	GapExp	0	67	2	1	0	distractor	1	560	720	181381	13.328	13.098	13.555
DTProbeTrack03	9	ProbeTrackDT	1.1	SCS215a	20101112.140752	20101112.141619	single-task	8	0.013328	60	10	60-180	60	176	GapExp	0	68	2	3	1	target	1	480	760	182141	13.328	13.308	13.346
DTProbeTrack03	9	ProbeTrackDT	1.1	SCS215a	20101112.140752	20101112.141625	single-task	8	0.013328	60	10	60-180	60	173	GapExp	0	69	2	1	0	target	0	707	-1000	181141	13.328	12.888	13.759
DTProbeTrack03	9	ProbeTrackDT	1.1	SCS215a	20101112.140752	20101112.141631	single-task	8	0.013328	60	10	60-180	60	128	GapExp	0	70	2	45	0	distractor	1	507	747	181888	13.328	12.869	13.782
DTProbeTrack03	9	ProbeTrackDT	1.1	SCS215a	20101112.140752	20101112.141637	single-task	8	0.013328	60	10	60-180	60	134	GapExp	0	71	2	3	0	distractor	1	507	747	182635	13.328	12.990	13.705
DTProbeTrack03	9	ProbeTrackDT	1.1	SCS215a	20101112.140752	20101112.141643	single-task	8	0.013328	60	10	60-180	60	158	GapExp	0	72	2	9	0	target	0	813	-1000	181635	13.328	12.863	13.780
DTProbeTrack03	9	ProbeTrackDT	1.1	SCS215a	20101112.140752	20101112.141650	single-task	8	0.013328	60	10	60-180	60	71	GapExp	0	73	2	9	1	target	1	400	800	182435	13.328	12.958	13.703
DTProbeTrack03	9	ProbeTrackDT	1.1	SCS215a	20101112.140752	20101112.141654	single-task	8	0.013328	60	10	60-180	60	117	GapExp	0	74	2	1	1	target	1	494	753	183188	13.328	12.882	13.777
DTProbeTrack03	9	ProbeTrackDT	1.1	SCS215a	20101112.140752	20101112.141700	single-task	8	0.013328	60	10	60-180	60	152	GapExp	0	75	2	45	1	distractor	0	534	-1000	182188	13.328	13.308	13.347
DTProbeTrack03	9	ProbeTrackDT	1.1	SCS215a	20101112.140752	20101112.141707	single-task	8	0.013328	60	10	60-180	60	101	GapExp	0	76	2	9	0	distractor	1	467	767	182955	13.328	13.308	13.349
DTProbeTrack03	9	ProbeTrackDT	1.1	SCS215a	20101112.140752	20101112.141712	single-task	8	0.013328	60	10	60-180	60	86	GapExp	0	77	2	6	1	target	1	454	773	183728	13.328	13.100	13.555
DTProbeTrack03	9	ProbeTrackDT	1.1	SCS215a	20101112.140752	20101112.141717	single-task	8	0.013328	60	10	60-180	60	165	GapExp	0	78	2	9	1	target	1	400	800	184528	13.328	13.114	13.555
DTProbeTrack03	9	ProbeTrackDT	1.1	SCS215a	20101112.140752	20101112.141723	single-task	8	0.013328	60	10	60-180	60	139	GapExp	0	79	2	45	0	target	0	454	-1000	183528	13.328	12.857	13.812
DTProbeTrack03	9	ProbeTrackDT	1.1	SCS215a	20101112.140752	20101112.141729	single-task	8	0.013328	60	10	60-180	60	79	GapExp	0	80	2	45	0	distractor	1	507	747	184275	13.328	13.078	13.547
DTProbeTrack03	9	ProbeTrackDT	1.1	SCS215a	20101112.140752	20101112.141735	single-task	8	0.013328	60	10	60-180	60	161	GapExp	0	81	2	6	0	distractor	1	507	747	185022	13.328	13.285	13.365
DTProbeTrack03	9	ProbeTrackDT	1.1	SCS215a	20101112.140752	20101112.141741	single-task	8	0.013328	60	10	60-180	60	118	GapExp	0	82	2	45	1	target	1	400	800	185822	13.328	13.307	13.358
DTProbeTrack03	9	ProbeTrackDT	1.1	SCS215a	20101112.140752	20101112.141747	single-task	8	0.013328	60	10	60-180	60	88	GapExp	0	83	2	1	1	target	1	627	687	186509	13.328	13.104	13.551
DTProbeTrack03	9	ProbeTrackDT	1.1	SCS215a	20101112.140752	20101112.141752	single-task	8	0.013328	60	10	60-180	60	175	GapExp	0	84	2	1	0	distractor	1	440	780	187289	13.328	13.087	13.562
DTProbeTrack03	9	ProbeTrackDT	1.1	SCS215a	20101112.140752	20101112.141758	single-task	8	0.013328	60	10	60-180	60	110	GapExp	0	85	2	9	0	distractor	1	414	793	188082	13.328	12.898	13.745
DTProbeTrack03	9	ProbeTrackDT	1.1	SCS215a	20101112.140752	20101112.141804	single-task	8	0.013328	60	10	60-180	60	79	GapExp	0	86	2	9	0	distractor	1	494	753	188835	13.328	12.865	13.790
DTProbeTrack03	9	ProbeTrackDT	1.1	SCS215a	20101112.140752	20101112.141809	single-task	8	0.013328	60	10	60-180	60	61	GapExp	0	87	2	6	1	target	1	427	787	189622	13.328	12.871	13.793
DTProbeTrack03	9	ProbeTrackDT	1.1	SCS215a	20101112.140752	20101112.141814	single-task	8	0.013328	60	10	60-180	60	71	GapExp	0	88	2	45	0	distractor	1	414	793	190415	13.442	12.863	27.069
DTProbeTrack03	9	ProbeTrackDT	1.1	SCS215a	20101112.140752	20101112.141819	single-task	8	0.013328	60	10	60-180	60	133	GapExp	0	89	2	1	0	distractor	1	414	793	191208	13.328	13.083	13.560
DTProbeTrack03	9	ProbeTrackDT	1.1	SCS215a	20101112.140752	20101112.141825	single-task	8	0.013328	60	10	60-180	60	85	GapExp	0	90	2	45	1	target	1	347	827	192035	13.328	13.300	13.351
DTProbeTrack03	9	ProbeTrackDT	1.1	SCS215a	20101112.140752	20101112.141830	single-task	8	0.013328	60	10	60-180	60	79	GapExp	0	91	2	9	1	target	1	440	780	192815	13.328	13.306	13.346
DTProbeTrack03	9	ProbeTrackDT	1.1	SCS215a	20101112.140752	20101112.141835	single-task	8	0.013328	60	10	60-180	60	64	GapExp	0	92	2	45	1	target	1	440	780	193595	13.328	13.307	13.356
DTProbeTrack03	9	ProbeTrackDT	1.1	SCS215a	20101112.140752	20101112.141840	single-task	8	0.013328	60	10	60-180	60	69	GapExp	0	93	2	6	0	distractor	1	414	793	194388	13.328	13.295	13.350
DTProbeTrack03	9	ProbeTrackDT	1.1	SCS215a	20101112.140752	20101112.141845	single-task	8	0.013328	60	10	60-180	60	162	GapExp	0	94	2	1	0	distractor	1	387	807	195195	13.328	13.149	13.506
DTProbeTrack03	9	ProbeTrackDT	1.1	SCS215a	20101112.140752	20101112.141851	single-task	8	0.013328	60	10	60-180	60	146	GapExp	0	95	2	3	0	distractor	1	414	793	195988	13.328	13.103	13.574
DTProbeTrack03	9	ProbeTrackDT	1.1	SCS215a	20101112.140752	20101112.141857	single-task	8	0.013328	60	10	60-180	60	91	GapExp	0	96	2	1	1	target	1	400	800	196788	13.328	13.086	13.569
DTProbeTrack03	9	ProbeTrackDT	1.1	SCS215a	20101112.140752	20101112.141902	single-task	8	0.013328	60	10	60-180	60	126	GapExp	0	97	2	45	0	distractor	1	334	833	197621	13.328	13.093	13.562
DTProbeTrack03	9	ProbeTrackDT	1.1	SCS215a	20101112.140752	20101112.141908	single-task	8	0.013328	60	10	60-180	60	67	GapExp	0	98	2	45	1	target	1	627	687	198308	13.328	13.097	13.558
DTProbeTrack03	9	ProbeTrackDT	1.1	SCS215a	20101112.140752	20101112.141914	single-task	8	0.013328	60	10	60-180	60	129	GapExp	0	99	2	6	0	distractor	1	374	813	199121	13.328	13.208	13.449
DTProbeTrack03	9	ProbeTrackDT	1.1	SCS215a	20101112.140752	20101112.141919	single-task	8	0.013328	60	10	60-180	60	78	GapExp	0	100	2	45	0	distractor	1	440	780	199901	13.328	12.918	13.750
DTProbeTrack03	9	ProbeTrackDT	1.1	SCS215a	20101112.140752	20101112.142055	single-task	8	0.013328	60	10	60-180	60	93	GapExp	0	101	2	3	1	target	1	414	793	200694	13.328	12.920	13.729
DTProbeTrack03	9	ProbeTrackDT	1.1	SCS215a	20101112.140752	20101112.142100	single-task	8	0.013328	60	10	60-180	60	121	GapExp	0	102	2	6	0	distractor	1	334	833	201527	13.328	13.307	13.355
DTProbeTrack03	9	ProbeTrackDT	1.1	SCS215a	20101112.140752	20101112.142105	single-task	8	0.013328	60	10	60-180	60	63	GapExp	0	103	2	45	1	target	1	427	787	202314	13.328	13.039	13.624
DTProbeTrack03	9	ProbeTrackDT	1.1	SCS215a	20101112.140752	20101112.142110	single-task	8	0.013328	60	10	60-180	60	117	GapExp	0	104	2	6	0	distractor	1	400	800	203114	13.328	12.928	13.734
DTProbeTrack03	9	ProbeTrackDT	1.1	SCS215a	20101112.140752	20101112.142116	single-task	8	0.013328	60	10	60-180	60	162	GapExp	0	105	2	9	1	target	1	374	813	203927	13.328	13.102	13.558
DTProbeTrack03	9	ProbeTrackDT	1.1	SCS215a	20101112.140752	20101112.142122	single-task	8	0.013328	60	10	60-180	60	75	GapExp	0	106	2	1	0	distractor	1	480	760	204687	13.328	13.099	13.557
DTProbeTrack03	9	ProbeTrackDT	1.1	SCS215a	20101112.140752	20101112.142127	single-task	8	0.013328	60	10	60-180	60	180	GapExp	0	107	2	9	1	distractor	0	467	-1000	203687	13.328	13.250	13.412
DTProbeTrack03	9	ProbeTrackDT	1.1	SCS215a	20101112.140752	20101112.142133	single-task	8	0.013328	60	10	60-180	60	117	GapExp	0	108	2	3	1	target	1	374	813	204500	13.328	13.309	13.344
DTProbeTrack03	9	ProbeTrackDT	1.1	SCS215a	20101112.140752	20101112.142139	single-task	8	0.013328	60	10	60-180	60	121	GapExp	0	109	2	1	1	target	1	480	760	205260	13.328	13.304	13.346
DTProbeTrack03	9	ProbeTrackDT	1.1	SCS215a	20101112.140752	20101112.142144	single-task	8	0.013328	60	10	60-180	60	175	GapExp	0	110	2	9	0	target	0	334	-1000	204260	13.328	13.112	13.551
DTProbeTrack03	9	ProbeTrackDT	1.1	SCS215a	20101112.140752	20101112.142150	single-task	8	0.013328	60	10	60-180	60	139	GapExp	0	111	2	6	0	distractor	1	534	733	204993	13.328	13.307	13.349
DTProbeTrack03	9	ProbeTrackDT	1.1	SCS215a	20101112.140752	20101112.142156	single-task	8	0.013328	60	10	60-180	60	122	GapExp	0	112	2	1	1	target	1	400	800	205793	13.328	13.096	13.552
DTProbeTrack03	9	ProbeTrackDT	1.1	SCS215a	20101112.140752	20101112.142202	single-task	8	0.013328	60	10	60-180	60	92	GapExp	0	113	2	6	0	target	0	480	-1000	204793	13.328	13.304	13.350
DTProbeTrack03	9	ProbeTrackDT	1.1	SCS215a	20101112.140752	20101112.142207	single-task	8	0.013328	60	10	60-180	60	106	GapExp	0	114	2	1	1	target	1	440	780	205573	13.328	12.893	13.777
DTProbeTrack03	9	ProbeTrackDT	1.1	SCS215a	20101112.140752	20101112.142212	single-task	8	0.013328	60	10	60-180	60	80	GapExp	0	115	2	3	1	target	1	360	820	206393	13.328	13.117	13.537
DTProbeTrack03	9	ProbeTrackDT	1.1	SCS215a	20101112.140752	20101112.142217	single-task	8	0.013328	60	10	60-180	60	124	GapExp	0	116	2	1	0	distractor	1	627	687	207080	13.328	12.907	13.747
DTProbeTrack03	9	ProbeTrackDT	1.1	SCS215a	20101112.140752	20101112.142223	single-task	8	0.013328	60	10	60-180	60	124	GapExp	0	117	2	9	1	target	1	387	807	207887	13.328	12.955	13.711
DTProbeTrack03	9	ProbeTrackDT	1.1	SCS215a	20101112.140752	20101112.142228	single-task	8	0.013328	60	10	60-180	60	163	GapExp	0	118	2	45	1	target	1	387	807	208694	13.328	13.306	13.347
DTProbeTrack03	9	ProbeTrackDT	1.1	SCS215a	20101112.140752	20101112.142235	single-task	8	0.013328	60	10	60-180	60	168	GapExp	0	119	2	45	1	target	1	440	780	209474	13.328	13.075	13.549
DTProbeTrack03	9	ProbeTrackDT	1.1	SCS215a	20101112.140752	20101112.142241	single-task	8	0.013328	60	10	60-180	60	99	GapExp	0	120	2	3	1	distractor	0	400	-1000	208474	13.328	13.306	13.344
DTProbeTrack03	9	ProbeTrackDT	1.1	SCS215a	20101112.140752	20101112.142247	single-task	8	0.013328	60	10	60-180	60	82	GapExp	0	121	2	6	1	target	1	387	807	209281	13.328	13.106	13.550
DTProbeTrack03	9	ProbeTrackDT	1.1	SCS215a	20101112.140752	20101112.142252	single-task	8	0.013328	60	10	60-180	60	147	GapExp	0	122	2	6	0	distractor	1	400	800	210081	13.328	13.044	13.608
DTProbeTrack03	9	ProbeTrackDT	1.1	SCS215a	20101112.140752	20101112.142257	single-task	8	0.013328	60	10	60-180	60	152	GapExp	0	123	2	3	0	distractor	1	387	807	210888	13.328	13.308	13.354
DTProbeTrack03	9	ProbeTrackDT	1.1	SCS215a	20101112.140752	20101112.142303	single-task	8	0.013328	60	10	60-180	60	150	GapExp	0	124	2	1	0	distractor	1	547	727	211615	13.328	12.895	13.759
DTProbeTrack03	9	ProbeTrackDT	1.1	SCS215a	20101112.140752	20101112.142309	single-task	8	0.013328	60	10	60-180	60	179	GapExp	0	125	2	45	1	distractor	0	427	-1000	210615	13.328	12.946	13.712
DTProbeTrack03	9	ProbeTrackDT	1.1	SCS215a	20101112.140752	20101112.142316	single-task	8	0.013328	60	10	60-180	60	150	GapExp	0	126	2	1	0	distractor	1	494	753	211368	13.328	12.918	13.756
DTProbeTrack03	9	ProbeTrackDT	1.1	SCS215a	20101112.140752	20101112.142322	single-task	8	0.013328	60	10	60-180	60	80	GapExp	0	127	2	6	0	distractor	1	400	800	212168	13.328	13.099	13.556
DTProbeTrack03	9	ProbeTrackDT	1.1	SCS215a	20101112.140752	20101112.142327	single-task	8	0.013328	60	10	60-180	60	90	GapExp	0	128	2	45	0	distractor	1	494	753	212921	13.328	13.056	13.609
DTProbeTrack03	9	ProbeTrackDT	1.1	SCS215a	20101112.140752	20101112.142333	single-task	8	0.013328	60	10	60-180	60	89	GapExp	0	129	2	9	1	target	1	400	800	213721	13.328	13.306	13.357
DTProbeTrack03	9	ProbeTrackDT	1.1	SCS215a	20101112.140752	20101112.142338	single-task	8	0.013328	60	10	60-180	60	125	GapExp	0	130	2	6	1	target	1	467	767	214488	13.328	12.843	13.808
DTProbeTrack03	9	ProbeTrackDT	1.1	SCS215a	20101112.140752	20101112.142343	single-task	8	0.013328	60	10	60-180	60	75	GapExp	0	131	2	3	1	target	1	374	813	215301	13.328	13.086	13.551
DTProbeTrack03	9	ProbeTrackDT	1.1	SCS215a	20101112.140752	20101112.142348	single-task	8	0.013328	60	10	60-180	60	132	GapExp	0	132	2	9	0	target	0	454	-1000	214301	13.328	13.093	13.558
DTProbeTrack03	9	ProbeTrackDT	1.1	SCS215a	20101112.140752	20101112.142354	single-task	8	0.013328	60	10	60-180	60	91	GapExp	0	133	2	1	1	target	1	374	813	215114	13.328	13.308	13.345
DTProbeTrack03	9	ProbeTrackDT	1.1	SCS215a	20101112.140752	20101112.142359	single-task	8	0.013328	60	10	60-180	60	104	GapExp	0	134	2	45	0	distractor	1	427	787	215901	13.328	13.309	13.348
DTProbeTrack03	9	ProbeTrackDT	1.1	SCS215a	20101112.140752	20101112.142405	single-task	8	0.013328	60	10	60-180	60	155	GapExp	0	135	2	6	1	target	1	480	760	216661	13.328	13.290	13.378
DTProbeTrack03	9	ProbeTrackDT	1.1	SCS215a	20101112.140752	20101112.142411	single-task	8	0.013328	60	10	60-180	60	137	GapExp	0	136	2	3	1	target	1	400	800	217461	13.328	13.092	13.557
DTProbeTrack03	9	ProbeTrackDT	1.1	SCS215a	20101112.140752	20101112.142416	single-task	8	0.013328	60	10	60-180	60	76	GapExp	0	137	2	9	1	target	1	427	787	218248	13.328	13.304	13.351
DTProbeTrack03	9	ProbeTrackDT	1.1	SCS215a	20101112.140752	20101112.142421	single-task	8	0.013328	60	10	60-180	60	147	GapExp	0	138	2	6	1	target	1	507	747	218995	13.328	13.308	13.350
DTProbeTrack03	9	ProbeTrackDT	1.1	SCS215a	20101112.140752	20101112.142427	single-task	8	0.013328	60	10	60-180	60	84	GapExp	0	139	2	9	0	distractor	1	400	800	219795	13.328	13.309	13.346
DTProbeTrack03	9	ProbeTrackDT	1.1	SCS215a	20101112.140752	20101112.142432	single-task	8	0.013328	60	10	60-180	60	78	GapExp	0	140	2	3	0	target	0	427	-1000	218795	13.328	13.107	13.554
DTProbeTrack03	9	ProbeTrackDT	1.1	SCS215a	20101112.140752	20101112.142437	single-task	8	0.013328	60	10	60-180	60	125	GapExp	0	141	2	1	0	target	0	547	-1000	217795	13.328	13.308	13.350
DTProbeTrack03	9	ProbeTrackDT	1.1	SCS215a	20101112.140752	20101112.142443	single-task	8	0.013328	60	10	60-180	60	103	GapExp	0	142	2	3	0	distractor	1	613	694	218489	13.328	13.308	13.350
DTProbeTrack03	9	ProbeTrackDT	1.1	SCS215a	20101112.140752	20101112.142448	single-task	8	0.013328	60	10	60-180	60	68	GapExp	0	143	2	45	0	distractor	1	400	800	219289	13.328	13.303	13.348
DTProbeTrack03	9	ProbeTrackDT	1.1	SCS215a	20101112.140752	20101112.142453	single-task	8	0.013328	60	10	60-180	60	110	GapExp	0	144	2	6	1	target	1	520	740	220029	13.328	12.960	13.689
DTProbeTrack03	9	ProbeTrackDT	1.1	SCS215a	20101112.140752	20101112.142459	single-task	8	0.013328	60	10	60-180	60	72	GapExp	0	145	2	9	1	distractor	0	627	-1000	219029	13.328	13.107	13.550
DTProbeTrack03	9	ProbeTrackDT	1.1	SCS215a	20101112.140752	20101112.142504	single-task	8	0.013328	60	10	60-180	60	163	GapExp	0	146	2	3	0	target	0	454	-1000	218029	13.328	13.296	13.361
DTProbeTrack03	9	ProbeTrackDT	1.1	SCS215a	20101112.140752	20101112.142510	single-task	8	0.013328	60	10	60-180	60	109	GapExp	0	147	2	3	1	target	1	414	793	218822	13.328	13.291	13.358
DTProbeTrack03	9	ProbeTrackDT	1.1	SCS215a	20101112.140752	20101112.142515	single-task	8	0.013328	60	10	60-180	60	71	GapExp	0	148	2	45	1	target	1	374	813	219635	13.328	13.308	13.347
DTProbeTrack03	9	ProbeTrackDT	1.1	SCS215a	20101112.140752	20101112.142521	single-task	8	0.013328	60	10	60-180	60	100	GapExp	0	149	2	6	1	target	1	480	760	220395	13.328	13.097	13.556
DTProbeTrack03	9	ProbeTrackDT	1.1	SCS215a	20101112.140752	20101112.142526	single-task	8	0.013328	60	10	60-180	60	82	GapExp	0	150	2	9	1	target	1	347	827	221222	13.328	13.026	13.625
DTProbeTrack03	9	ProbeTrackDT	1.1	SCS215a	20101112.140752	20101112.142620	single-task	8	0.013328	60	10	60-180	60	126	GapExp	0	151	2	9	1	target	1	334	833	222055	13.328	12.911	13.739
DTProbeTrack03	9	ProbeTrackDT	1.1	SCS215a	20101112.140752	20101112.142626	single-task	8	0.013328	60	10	60-180	60	119	GapExp	0	152	2	6	1	target	1	374	813	222868	13.328	13.294	13.355
DTProbeTrack03	9	ProbeTrackDT	1.1	SCS215a	20101112.140752	20101112.142631	single-task	8	0.013328	60	10	60-180	60	111	GapExp	0	153	2	45	1	target	1	414	793	223661	13.328	13.106	13.550
DTProbeTrack03	9	ProbeTrackDT	1.1	SCS215a	20101112.140752	20101112.142637	single-task	8	0.013328	60	10	60-180	60	156	GapExp	0	154	2	3	1	target	1	347	827	224488	13.328	13.099	13.556
DTProbeTrack03	9	ProbeTrackDT	1.1	SCS215a	20101112.140752	20101112.142643	single-task	8	0.013328	60	10	60-180	60	97	GapExp	0	155	2	45	0	distractor	1	467	767	225255	13.328	13.095	13.560
DTProbeTrack03	9	ProbeTrackDT	1.1	SCS215a	20101112.140752	20101112.142649	single-task	8	0.013328	60	10	60-180	60	159	GapExp	0	156	2	1	1	target	1	587	707	225962	13.328	13.307	13.344
DTProbeTrack03	9	ProbeTrackDT	1.1	SCS215a	20101112.140752	20101112.142655	single-task	8	0.013328	60	10	60-180	60	68	GapExp	0	157	2	3	1	target	1	427	787	226749	13.328	13.310	13.346
DTProbeTrack03	9	ProbeTrackDT	1.1	SCS215a	20101112.140752	20101112.142659	single-task	8	0.013328	60	10	60-180	60	119	GapExp	0	158	2	1	1	target	1	307	847	227596	13.328	13.098	13.558
DTProbeTrack03	9	ProbeTrackDT	1.1	SCS215a	20101112.140752	20101112.142705	single-task	8	0.013328	60	10	60-180	60	79	GapExp	0	159	2	3	0	distractor	1	440	780	228376	13.328	12.902	13.753
DTProbeTrack03	9	ProbeTrackDT	1.1	SCS215a	20101112.140752	20101112.142710	single-task	8	0.013328	60	10	60-180	60	69	GapExp	0	160	2	1	0	distractor	1	520	740	229116	13.328	13.307	13.345
DTProbeTrack03	9	ProbeTrackDT	1.1	SCS215a	20101112.140752	20101112.142715	single-task	8	0.013328	60	10	60-180	60	112	GapExp	0	161	2	45	1	target	1	494	753	229869	13.328	13.297	13.348
DTProbeTrack03	9	ProbeTrackDT	1.1	SCS215a	20101112.140752	20101112.142721	single-task	8	0.013328	60	10	60-180	60	132	GapExp	0	162	2	9	1	target	1	360	820	230689	13.328	13.095	13.545
DTProbeTrack03	9	ProbeTrackDT	1.1	SCS215a	20101112.140752	20101112.142726	single-task	8	0.013328	60	10	60-180	60	104	GapExp	0	163	2	9	1	target	1	414	793	231482	13.328	12.891	13.773
DTProbeTrack03	9	ProbeTrackDT	1.1	SCS215a	20101112.140752	20101112.142732	single-task	8	0.013328	60	10	60-180	60	92	GapExp	0	164	2	9	1	target	1	360	820	232302	13.328	13.312	13.349
DTProbeTrack03	9	ProbeTrackDT	1.1	SCS215a	20101112.140752	20101112.142737	single-task	8	0.013328	60	10	60-180	60	174	GapExp	0	165	2	1	0	distractor	1	494	753	233055	13.328	12.914	13.749
DTProbeTrack03	9	ProbeTrackDT	1.1	SCS215a	20101112.140752	20101112.142743	single-task	8	0.013328	60	10	60-180	60	167	GapExp	0	166	2	6	1	target	1	414	793	233848	13.328	13.304	13.346
DTProbeTrack03	9	ProbeTrackDT	1.1	SCS215a	20101112.140752	20101112.142749	single-task	8	0.013328	60	10	60-180	60	119	GapExp	0	167	2	9	0	distractor	1	680	660	234508	13.328	12.853	13.812
DTProbeTrack03	9	ProbeTrackDT	1.1	SCS215a	20101112.140752	20101112.142755	single-task	8	0.013328	60	10	60-180	60	166	GapExp	0	168	2	45	0	distractor	1	400	800	235308	13.328	13.098	13.547
DTProbeTrack03	9	ProbeTrackDT	1.1	SCS215a	20101112.140752	20101112.142801	single-task	8	0.013328	60	10	60-180	60	155	GapExp	0	169	2	45	1	distractor	0	534	-1000	234308	13.328	13.024	13.633
DTProbeTrack03	9	ProbeTrackDT	1.1	SCS215a	20101112.140752	20101112.142808	single-task	8	0.013328	60	10	60-180	60	81	GapExp	0	170	2	9	0	distractor	1	440	780	235088	13.328	13.089	13.564
DTProbeTrack03	9	ProbeTrackDT	1.1	SCS215a	20101112.140752	20101112.142813	single-task	8	0.013328	60	10	60-180	60	128	GapExp	0	171	2	1	0	distractor	1	427	787	235875	13.328	12.890	13.766
DTProbeTrack03	9	ProbeTrackDT	1.1	SCS215a	20101112.140752	20101112.142819	single-task	8	0.013328	60	10	60-180	60	164	GapExp	0	172	2	9	1	target	1	494	753	236628	13.328	13.308	13.347
DTProbeTrack03	9	ProbeTrackDT	1.1	SCS215a	20101112.140752	20101112.142825	single-task	8	0.013328	60	10	60-180	60	98	GapExp	0	173	2	3	1	target	1	427	787	237415	13.328	13.308	13.347
DTProbeTrack03	9	ProbeTrackDT	1.1	SCS215a	20101112.140752	20101112.142830	single-task	8	0.013328	60	10	60-180	60	129	GapExp	0	174	2	3	0	distractor	1	507	747	238162	13.328	13.101	13.556
DTProbeTrack03	9	ProbeTrackDT	1.1	SCS215a	20101112.140752	20101112.142836	single-task	8	0.013328	60	10	60-180	60	88	GapExp	0	175	2	3	1	target	1	494	753	238915	13.328	13.099	13.544
DTProbeTrack03	9	ProbeTrackDT	1.1	SCS215a	20101112.140752	20101112.142841	single-task	8	0.013328	60	10	60-180	60	94	GapExp	0	176	2	6	0	distractor	1	387	807	239722	13.328	13.310	13.345
DTProbeTrack03	9	ProbeTrackDT	1.1	SCS215a	20101112.140752	20101112.142846	single-task	8	0.013328	60	10	60-180	60	131	GapExp	0	177	2	1	1	target	1	680	660	240382	13.328	12.998	13.661
DTProbeTrack03	9	ProbeTrackDT	1.1	SCS215a	20101112.140752	20101112.142852	single-task	8	0.013328	60	10	60-180	60	79	GapExp	0	178	2	3	1	target	1	614	693	241075	13.328	13.112	13.556
DTProbeTrack03	9	ProbeTrackDT	1.1	SCS215a	20101112.140752	20101112.142857	single-task	8	0.013328	60	10	60-180	60	83	GapExp	0	179	2	6	0	distractor	1	587	707	241782	13.328	12.995	13.661
DTProbeTrack03	9	ProbeTrackDT	1.1	SCS215a	20101112.140752	20101112.142902	single-task	8	0.013328	60	10	60-180	60	116	GapExp	0	180	2	9	1	target	1	494	753	242535	13.328	13.302	13.352
DTProbeTrack03	9	ProbeTrackDT	1.1	SCS215a	20101112.140752	20101112.142908	single-task	8	0.013328	60	10	60-180	60	174	GapExp	0	181	2	45	0	distractor	1	400	800	243335	13.328	13.308	13.347
DTProbeTrack03	9	ProbeTrackDT	1.1	SCS215a	20101112.140752	20101112.142914	single-task	8	0.013328	60	10	60-180	60	75	GapExp	0	182	2	9	1	target	1	387	807	244142	13.328	12.983	13.686
DTProbeTrack03	9	ProbeTrackDT	1.1	SCS215a	20101112.140752	20101112.142919	single-task	8	0.013328	60	10	60-180	60	65	GapExp	0	183	2	6	1	target	1	374	813	244955	13.328	13.084	13.561
DTProbeTrack03	9	ProbeTrackDT	1.1	SCS215a	20101112.140752	20101112.142924	single-task	8	0.013328	60	10	60-180	60	158	GapExp	0	184	2	9	0	distractor	1	507	747	245702	13.328	12.892	13.770
DTProbeTrack03	9	ProbeTrackDT	1.1	SCS215a	20101112.140752	20101112.142930	single-task	8	0.013328	60	10	60-180	60	150	GapExp	0	185	2	3	0	distractor	1	480	760	246462	13.328	13.303	13.357
DTProbeTrack03	9	ProbeTrackDT	1.1	SCS215a	20101112.140752	20101112.142936	single-task	8	0.013328	60	10	60-180	60	151	GapExp	0	186	2	6	0	distractor	1	400	800	247262	13.328	12.863	13.806
DTProbeTrack03	9	ProbeTrackDT	1.1	SCS215a	20101112.140752	20101112.142942	single-task	8	0.013328	60	10	60-180	60	170	GapExp	0	187	2	3	0	distractor	1	573	714	247976	13.328	13.309	13.347
DTProbeTrack03	9	ProbeTrackDT	1.1	SCS215a	20101112.140752	20101112.142948	single-task	8	0.013328	60	10	60-180	60	175	GapExp	0	188	2	9	0	distractor	1	360	820	248796	13.328	13.304	13.346
DTProbeTrack03	9	ProbeTrackDT	1.1	SCS215a	20101112.140752	20101112.142955	single-task	8	0.013328	60	10	60-180	60	105	GapExp	0	189	2	9	1	target	1	440	780	249576	13.328	12.840	13.801
DTProbeTrack03	9	ProbeTrackDT	1.1	SCS215a	20101112.140752	20101112.143000	single-task	8	0.013328	60	10	60-180	60	170	GapExp	0	190	2	9	0	distractor	1	387	807	250383	13.328	13.102	13.556
DTProbeTrack03	9	ProbeTrackDT	1.1	SCS215a	20101112.140752	20101112.143006	single-task	8	0.013328	60	10	60-180	60	165	GapExp	0	191	2	9	0	distractor	1	467	767	251150	13.328	12.907	13.747
DTProbeTrack03	9	ProbeTrackDT	1.1	SCS215a	20101112.140752	20101112.143012	single-task	8	0.013328	60	10	60-180	60	115	GapExp	0	192	2	1	1	target	1	414	793	251943	13.328	13.310	13.346
DTProbeTrack03	9	ProbeTrackDT	1.1	SCS215a	20101112.140752	20101112.143018	single-task	8	0.013328	60	10	60-180	60	68	GapExp	0	193	2	1	0	target	0	840	-1000	250943	13.328	12.987	13.654
DTProbeTrack03	9	ProbeTrackDT	1.1	SCS215a	20101112.140752	20101112.143023	single-task	8	0.013328	60	10	60-180	60	80	GapExp	0	194	2	3	1	target	1	427	787	251730	13.328	13.090	13.565
DTProbeTrack03	9	ProbeTrackDT	1.1	SCS215a	20101112.140752	20101112.143028	single-task	8	0.013328	60	10	60-180	60	72	GapExp	0	195	2	6	0	distractor	1	440	780	252510	13.330	13.109	13.749
DTProbeTrack03	9	ProbeTrackDT	1.1	SCS215a	20101112.140752	20101112.143033	single-task	8	0.013328	60	10	60-180	60	93	GapExp	0	196	2	3	0	distractor	1	427	787	253297	13.328	12.859	13.798
DTProbeTrack03	9	ProbeTrackDT	1.1	SCS215a	20101112.140752	20101112.143038	single-task	8	0.013328	60	10	60-180	60	80	GapExp	0	197	2	3	0	distractor	1	494	753	254050	13.328	13.306	13.345
DTProbeTrack03	9	ProbeTrackDT	1.1	SCS215a	20101112.140752	20101112.143043	single-task	8	0.013328	60	10	60-180	60	100	GapExp	0	198	2	6	1	target	1	440	780	254830	13.328	13.099	13.556
DTProbeTrack03	9	ProbeTrackDT	1.1	SCS215a	20101112.140752	20101112.143048	single-task	8	0.013328	60	10	60-180	60	150	GapExp	0	199	2	6	1	target	1	387	807	255637	13.328	13.100	13.559
DTProbeTrack03	9	ProbeTrackDT	1.1	SCS215a	20101112.140752	20101112.143054	single-task	8	0.013328	60	10	60-180	60	63	GapExp	0	200	2	1	0	distractor	1	587	707	256344	13.328	13.303	13.345
DTProbeTrack03	9	ProbeTrackDT	1.1	SCS215a	20101112.140752	20101112.143128	single-task	8	0.013328	60	10	60-180	60	159	GapExp	0	201	2	3	1	target	1	440	780	257124	13.328	13.308	13.348
DTProbeTrack03	9	ProbeTrackDT	1.1	SCS215a	20101112.140752	20101112.143134	single-task	8	0.013328	60	10	60-180	60	143	GapExp	0	202	2	3	1	target	1	347	827	257951	13.328	13.309	13.348
DTProbeTrack03	9	ProbeTrackDT	1.1	SCS215a	20101112.140752	20101112.143140	single-task	8	0.013328	60	10	60-180	60	160	GapExp	0	203	2	1	1	target	1	440	780	258731	13.328	12.972	13.674
DTProbeTrack03	9	ProbeTrackDT	1.1	SCS215a	20101112.140752	20101112.143146	single-task	8	0.013328	60	10	60-180	60	94	GapExp	0	204	2	6	0	distractor	1	360	820	259551	13.328	13.107	13.547
DTProbeTrack03	9	ProbeTrackDT	1.1	SCS215a	20101112.140752	20101112.143151	single-task	8	0.013328	60	10	60-180	60	118	GapExp	0	205	2	1	1	target	1	374	813	260364	13.328	13.059	13.603
DTProbeTrack03	9	ProbeTrackDT	1.1	SCS215a	20101112.143416	20101112.143447	dt-generate	8	0.013327	60	10	60-180	60	146	GapPrac	1	1	2	9	0	distractor	1	440	780	261144	13.328	12.904	13.741
DTProbeTrack03	9	ProbeTrackDT	1.1	SCS215a	20101112.143416	20101112.143452	dt-generate	8	0.013327	60	10	60-180	60	126	GapPrac	1	2	2	3	1	target	1	400	800	261944	13.328	13.305	13.352
DTProbeTrack03	9	ProbeTrackDT	1.1	SCS215a	20101112.143416	20101112.143458	dt-generate	8	0.013327	60	10	60-180	60	169	GapPrac	1	3	2	3	1	target	1	454	773	262717	13.328	13.012	13.645
DTProbeTrack03	9	ProbeTrackDT	1.1	SCS215a	20101112.143416	20101112.143504	dt-generate	8	0.013327	60	10	60-180	60	145	GapPrac	1	4	2	45	0	distractor	1	480	760	263477	13.328	12.879	13.780
DTProbeTrack03	9	ProbeTrackDT	1.1	SCS215a	20101112.143416	20101112.143511	dt-generate	8	0.013327	60	10	60-180	60	146	GapPrac	1	5	2	3	0	target	0	973	-1000	262477	13.328	13.181	13.491
DTProbeTrack03	9	ProbeTrackDT	1.1	SCS215a	20101112.143416	20101112.143517	dt-generate	8	0.013327	60	10	60-180	60	155	GapPrac	1	6	2	1	1	target	1	467	767	263244	13.328	13.307	13.350
DTProbeTrack03	9	ProbeTrackDT	1.1	SCS215a	20101112.143416	20101112.143523	dt-generate	8	0.013327	60	10	60-180	60	179	GapPrac	1	7	2	45	1	target	1	760	620	263864	13.328	13.099	13.551
DTProbeTrack03	9	ProbeTrackDT	1.1	SCS215a	20101112.143416	20101112.143530	dt-generate	8	0.013327	60	10	60-180	60	153	GapPrac	1	8	2	1	0	distractor	1	720	640	264504	13.463	12.871	26.852
DTProbeTrack03	9	ProbeTrackDT	1.1	SCS215a	20101112.143416	20101112.143536	dt-generate	8	0.013327	60	10	60-180	60	123	GapPrac	1	9	2	6	1	target	1	427	787	265291	13.328	13.101	13.543
DTProbeTrack03	9	ProbeTrackDT	1.1	SCS215a	20101112.143416	20101112.143542	dt-generate	8	0.013327	60	10	60-180	60	114	GapPrac	1	10	2	3	0	distractor	1	547	727	266018	13.328	13.027	13.632
DTProbeTrack03	9	ProbeTrackDT	1.1	SCS215a	20101112.143416	20101112.143547	dt-generate	8	0.013327	60	10	60-180	60	83	GapPrac	1	11	2	1	0	target	0	21005	-1000	265018	13.328	12.912	13.711
DTProbeTrack03	9	ProbeTrackDT	1.1	SCS215a	20101112.143416	20101112.143613	dt-generate	8	0.013327	60	10	60-180	60	120	GapPrac	1	12	2	9	0	distractor	1	400	800	265818	13.328	13.105	13.554
DTProbeTrack03	9	ProbeTrackDT	1.1	SCS215a	20101112.143416	20101112.143618	dt-generate	8	0.013327	60	10	60-180	60	178	GapPrac	1	13	2	6	0	distractor	1	427	787	266605	13.328	13.175	13.481
DTProbeTrack03	9	ProbeTrackDT	1.1	SCS215a	20101112.143416	20101112.143625	dt-generate	8	0.013327	60	10	60-180	60	66	GapPrac	1	14	2	6	1	target	1	640	680	267285	13.328	13.096	13.559
DTProbeTrack03	9	ProbeTrackDT	1.1	SCS215a	20101112.143416	20101112.143630	dt-generate	8	0.013327	60	10	60-180	60	112	GapPrac	1	15	2	9	1	target	1	480	760	268045	13.328	12.871	13.783
DTProbeTrack03	9	ProbeTrackDT	1.1	SCS215a	20101112.143416	20101112.143635	dt-generate	8	0.013327	60	10	60-180	60	148	GapPrac	1	16	2	1	1	target	1	574	713	268758	13.328	13.308	13.345
DTProbeTrack03	9	ProbeTrackDT	1.1	SCS215a	20101112.143416	20101112.143641	dt-generate	8	0.013327	60	10	60-180	60	87	GapPrac	1	17	2	9	1	target	1	427	787	269545	13.328	13.098	13.570
DTProbeTrack03	9	ProbeTrackDT	1.1	SCS215a	20101112.143416	20101112.143646	dt-generate	8	0.013327	60	10	60-180	60	68	GapPrac	1	18	2	45	0	distractor	1	480	760	270305	13.328	13.098	13.556
DTProbeTrack03	9	ProbeTrackDT	1.1	SCS215a	20101112.143416	20101112.143652	dt-generate	8	0.013327	60	10	60-180	60	73	GapPrac	1	19	2	6	0	distractor	1	627	687	270992	13.328	12.854	13.800
DTProbeTrack03	9	ProbeTrackDT	1.1	SCS215a	20101112.143416	20101112.143657	dt-generate	8	0.013327	60	10	60-180	60	91	GapPrac	1	20	2	45	1	target	1	360	820	271812	13.328	13.309	13.347
DTProbeTrack03	9	ProbeTrackDT	1.1	SCS215a	20101112.143751	20101112.143807	dt-generate	8	0.013328	60	10	60-180	60	112	GapExp	1	1	2	3	1	target	1	613	694	272506	13.328	13.299	13.361
DTProbeTrack03	9	ProbeTrackDT	1.1	SCS215a	20101112.143751	20101112.143812	dt-generate	8	0.013328	60	10	60-180	60	86	GapExp	1	2	2	6	1	target	1	440	780	273286	13.328	13.309	13.348
DTProbeTrack03	9	ProbeTrackDT	1.1	SCS215a	20101112.143751	20101112.143817	dt-generate	8	0.013328	60	10	60-180	60	68	GapExp	1	3	2	45	1	target	1	387	807	274093	13.328	13.120	13.546
DTProbeTrack03	9	ProbeTrackDT	1.1	SCS215a	20101112.143751	20101112.143823	dt-generate	8	0.013328	60	10	60-180	60	145	GapExp	1	4	2	9	0	target	0	707	-1000	273093	13.328	12.894	13.769
DTProbeTrack03	9	ProbeTrackDT	1.1	SCS215a	20101112.143751	20101112.143829	dt-generate	8	0.013328	60	10	60-180	60	165	GapExp	1	5	2	6	0	distractor	1	560	720	273813	13.328	12.909	13.742
DTProbeTrack03	9	ProbeTrackDT	1.1	SCS215a	20101112.143751	20101112.143835	dt-generate	8	0.013328	60	10	60-180	60	131	GapExp	0	6	2	3	1	target	1	1720	140	273953	13.328	12.930	13.720
DTProbeTrack03	9	ProbeTrackDT	1.1	SCS215a	20101112.143751	20101112.143842	dt-generate	8	0.013328	60	10	60-180	60	164	GapExp	0	7	2	45	1	target	1	587	707	274660	13.328	12.857	13.799
DTProbeTrack03	9	ProbeTrackDT	1.1	SCS215a	20101112.143751	20101112.143849	dt-generate	8	0.013328	60	10	60-180	60	61	GapExp	0	8	2	45	0	distractor	1	507	747	275407	13.328	13.309	13.347
DTProbeTrack03	9	ProbeTrackDT	1.1	SCS215a	20101112.143751	20101112.143854	dt-generate	8	0.013328	60	10	60-180	60	176	GapExp	0	9	2	3	0	distractor	1	507	747	276154	13.328	13.098	13.558
DTProbeTrack03	9	ProbeTrackDT	1.1	SCS215a	20101112.143751	20101112.143900	dt-generate	8	0.013328	60	10	60-180	60	61	GapExp	0	10	2	1	0	target	0	1613	-1000	275154	13.328	12.939	13.728
DTProbeTrack03	9	ProbeTrackDT	1.1	SCS215a	20101112.143751	20101112.143906	dt-generate	8	0.013328	60	10	60-180	60	177	GapExp	0	11	2	45	0	distractor	1	574	713	275867	13.328	12.864	13.792
DTProbeTrack03	9	ProbeTrackDT	1.1	SCS215a	20101112.143751	20101112.143913	dt-generate	8	0.013328	60	10	60-180	60	168	GapExp	0	12	2	6	1	target	1	480	760	276627	13.328	13.015	13.636
DTProbeTrack03	9	ProbeTrackDT	1.1	SCS215a	20101112.143751	20101112.143919	dt-generate	8	0.013328	60	10	60-180	60	169	GapExp	0	13	2	6	0	target	0	707	-1000	275627	13.328	13.099	13.565
DTProbeTrack03	9	ProbeTrackDT	1.1	SCS215a	20101112.143751	20101112.143926	dt-generate	8	0.013328	60	10	60-180	60	87	GapExp	0	14	2	45	0	distractor	1	494	753	276380	13.328	13.308	13.346
DTProbeTrack03	9	ProbeTrackDT	1.1	SCS215a	20101112.143751	20101112.143931	dt-generate	8	0.013328	60	10	60-180	60	123	GapExp	0	15	2	6	0	target	0	627	-1000	275380	13.328	12.892	13.781
DTProbeTrack03	9	ProbeTrackDT	1.1	SCS215a	20101112.143751	20101112.143937	dt-generate	8	0.013328	60	10	60-180	60	110	GapExp	0	16	2	45	0	distractor	1	653	674	276054	13.328	12.930	13.718
DTProbeTrack03	9	ProbeTrackDT	1.1	SCS215a	20101112.143751	20101112.143943	dt-generate	8	0.013328	60	10	60-180	60	123	GapExp	0	17	2	9	1	target	1	440	780	276834	13.328	12.906	13.754
DTProbeTrack03	9	ProbeTrackDT	1.1	SCS215a	20101112.143751	20101112.143949	dt-generate	8	0.013328	60	10	60-180	60	160	GapExp	0	18	2	6	1	target	1	440	780	277614	13.328	13.105	13.550
DTProbeTrack03	9	ProbeTrackDT	1.1	SCS215a	20101112.143751	20101112.143955	dt-generate	8	0.013328	60	10	60-180	60	179	GapExp	0	19	2	6	1	target	1	494	753	278367	13.328	13.107	13.557
DTProbeTrack03	9	ProbeTrackDT	1.1	SCS215a	20101112.143751	20101112.144001	dt-generate	8	0.013328	60	10	60-180	60	110	GapExp	0	20	2	45	1	target	1	494	753	279120	13.328	13.093	13.555
DTProbeTrack03	9	ProbeTrackDT	1.1	SCS215a	20101112.143751	20101112.144007	dt-generate	8	0.013328	60	10	60-180	60	162	GapExp	0	21	2	9	1	target	1	400	800	279920	13.328	13.308	13.348
DTProbeTrack03	9	ProbeTrackDT	1.1	SCS215a	20101112.143751	20101112.144013	dt-generate	8	0.013328	60	10	60-180	60	131	GapExp	0	22	2	1	0	target	0	800	-1000	278920	13.328	13.310	13.344
DTProbeTrack03	9	ProbeTrackDT	1.1	SCS215a	20101112.143751	20101112.144019	dt-generate	8	0.013328	60	10	60-180	60	146	GapExp	0	23	2	45	1	target	1	534	733	279653	13.328	12.852	13.795
DTProbeTrack03	9	ProbeTrackDT	1.1	SCS215a	20101112.143751	20101112.144026	dt-generate	8	0.013328	60	10	60-180	60	69	GapExp	0	24	2	1	0	target	0	1546	-1000	278653	13.328	12.934	13.723
DTProbeTrack03	9	ProbeTrackDT	1.1	SCS215a	20101112.143751	20101112.144031	dt-generate	8	0.013328	60	10	60-180	60	77	GapExp	0	25	2	9	0	distractor	1	494	753	279406	13.328	13.100	13.558
DTProbeTrack03	9	ProbeTrackDT	1.1	SCS215a	20101112.143751	20101112.144036	dt-generate	8	0.013328	60	10	60-180	60	82	GapExp	0	26	2	3	0	distractor	1	480	760	280166	13.328	13.098	13.567
DTProbeTrack03	9	ProbeTrackDT	1.1	SCS215a	20101112.143751	20101112.144042	dt-generate	8	0.013328	60	10	60-180	60	175	GapExp	0	27	2	6	1	target	1	454	773	280939	13.328	12.899	13.756
DTProbeTrack03	9	ProbeTrackDT	1.1	SCS215a	20101112.143751	20101112.144048	dt-generate	8	0.013328	60	10	60-180	60	132	GapExp	0	28	2	9	0	distractor	1	507	747	281686	13.328	13.308	13.346
DTProbeTrack03	9	ProbeTrackDT	1.1	SCS215a	20101112.143751	20101112.144054	dt-generate	8	0.013328	60	10	60-180	60	173	GapExp	0	29	2	45	0	distractor	1	534	733	282419	13.328	12.931	13.727
DTProbeTrack03	9	ProbeTrackDT	1.1	SCS215a	20101112.143751	20101112.144100	dt-generate	8	0.013328	60	10	60-180	60	144	GapExp	0	30	2	1	1	target	1	547	727	283146	13.328	13.033	13.622
DTProbeTrack03	9	ProbeTrackDT	1.1	SCS215a	20101112.143751	20101112.144106	dt-generate	8	0.013328	60	10	60-180	60	162	GapExp	0	31	2	45	0	distractor	1	467	767	283913	13.328	13.085	13.555
DTProbeTrack03	9	ProbeTrackDT	1.1	SCS215a	20101112.143751	20101112.144113	dt-generate	8	0.013328	60	10	60-180	60	174	GapExp	0	32	2	1	1	target	1	534	733	284646	13.328	12.935	13.736
DTProbeTrack03	9	ProbeTrackDT	1.1	SCS215a	20101112.143751	20101112.144119	dt-generate	8	0.013328	60	10	60-180	60	80	GapExp	0	33	2	1	1	target	1	560	720	285366	13.328	12.927	13.729
DTProbeTrack03	9	ProbeTrackDT	1.1	SCS215a	20101112.143751	20101112.144124	dt-generate	8	0.013328	60	10	60-180	60	103	GapExp	0	34	2	9	1	target	1	400	800	286166	13.328	13.134	13.525
DTProbeTrack03	9	ProbeTrackDT	1.1	SCS215a	20101112.143751	20101112.144129	dt-generate	8	0.013328	60	10	60-180	60	162	GapExp	0	35	2	6	0	distractor	1	600	700	286866	13.328	12.901	13.756
DTProbeTrack03	9	ProbeTrackDT	1.1	SCS215a	20101112.143751	20101112.144136	dt-generate	8	0.013328	60	10	60-180	60	107	GapExp	0	36	2	3	0	distractor	1	560	720	287586	13.328	13.307	13.346
DTProbeTrack03	9	ProbeTrackDT	1.1	SCS215a	20101112.143751	20101112.144141	dt-generate	8	0.013328	60	10	60-180	60	125	GapExp	0	37	2	9	0	distractor	1	400	800	288386	13.328	13.100	13.545
DTProbeTrack03	9	ProbeTrackDT	1.1	SCS215a	20101112.143751	20101112.144147	dt-generate	8	0.013328	60	10	60-180	60	170	GapExp	0	38	2	3	1	target	1	560	720	289106	13.328	12.903	13.748
DTProbeTrack03	9	ProbeTrackDT	1.1	SCS215a	20101112.143751	20101112.144153	dt-generate	8	0.013328	60	10	60-180	60	96	GapExp	0	39	2	45	1	target	1	587	707	289813	13.328	12.978	13.687
DTProbeTrack03	9	ProbeTrackDT	1.1	SCS215a	20101112.143751	20101112.144159	dt-generate	8	0.013328	60	10	60-180	60	146	GapExp	0	40	2	3	1	target	1	520	740	290553	13.328	12.879	13.771
DTProbeTrack03	9	ProbeTrackDT	1.1	SCS215a	20101112.143751	20101112.144205	dt-generate	8	0.013328	60	10	60-180	60	138	GapExp	0	41	2	3	1	target	1	414	793	291346	13.328	12.853	13.797
