exp	sub	code	rev	comp	runtime	trialtime	stdt	nstim	refreshdur	cuedur	gapdur	gapOnsetRange	durPostProbe	gapOnsetTime	blocktype	prac	trial	ntargets	soa	probeTarget	resp	acc	rt	pts	tpts	meanFrameDur	minFrameDur	maxFrameDur
DTProbeTrack03	11	ProbeTrackDT	1.1	SCS215a	20101117.090756	20101117.090820	single-task	8	0.013328	60	0	60-180	60	168	NoGap	1	1	2	3	1	distractor	0	587	-1000	-1000	13.328	13.034	13.590
DTProbeTrack03	11	ProbeTrackDT	1.1	SCS215a	20101117.090756	20101117.090827	single-task	8	0.013328	60	0	60-180	60	80	NoGap	1	2	2	9	1	target	1	854	573	-427	13.328	13.289	13.366
DTProbeTrack03	11	ProbeTrackDT	1.1	SCS215a	20101117.090756	20101117.090832	single-task	8	0.013328	60	0	60-180	60	122	NoGap	1	3	2	1	0	distractor	1	1013	494	67	13.328	13.069	13.586
DTProbeTrack03	11	ProbeTrackDT	1.1	SCS215a	20101117.090756	20101117.090838	single-task	8	0.013328	60	0	60-180	60	164	NoGap	1	4	2	9	0	distractor	1	880	560	627	13.328	13.293	13.363
DTProbeTrack03	11	ProbeTrackDT	1.1	SCS215a	20101117.090756	20101117.090844	single-task	8	0.013328	60	0	60-180	60	169	NoGap	1	5	2	9	0	target	0	747	-1000	-373	13.328	13.291	13.363
DTProbeTrack03	11	ProbeTrackDT	1.1	SCS215a	20101117.090756	20101117.090851	single-task	8	0.013328	60	0	60-180	60	135	NoGap	1	6	2	9	1	distractor	0	987	-1000	-1373	13.328	13.293	13.363
DTProbeTrack03	11	ProbeTrackDT	1.1	SCS215a	20101117.090756	20101117.090857	single-task	8	0.013328	60	0	60-180	60	111	NoGap	1	7	2	3	0	target	0	2799	-1000	-2373	13.328	13.293	13.363
DTProbeTrack03	11	ProbeTrackDT	1.1	SCS215a	20101117.090756	20101117.090905	single-task	8	0.013328	60	0	60-180	60	152	NoGap	1	8	2	1	1	target	1	813	594	-1779	13.328	13.280	13.375
DTProbeTrack03	11	ProbeTrackDT	1.1	SCS215a	20101117.090756	20101117.090911	single-task	8	0.013328	60	0	60-180	60	71	NoGap	1	9	2	9	0	distractor	1	720	640	-1139	13.328	13.291	13.364
DTProbeTrack03	11	ProbeTrackDT	1.1	SCS215a	20101117.090756	20101117.090916	single-task	8	0.013328	60	0	60-180	60	78	NoGap	1	10	2	6	0	distractor	1	813	594	-545	13.449	13.099	40.179
DTProbeTrack03	11	ProbeTrackDT	1.1	SCS215a	20101117.090756	20101117.090921	single-task	8	0.013328	60	0	60-180	60	68	NoGap	1	11	2	45	1	target	1	747	627	82	13.328	13.292	13.363
DTProbeTrack03	11	ProbeTrackDT	1.1	SCS215a	20101117.090756	20101117.090927	single-task	8	0.013328	60	0	60-180	60	111	NoGap	1	12	2	6	0	distractor	1	707	647	729	13.328	13.293	13.363
DTProbeTrack03	11	ProbeTrackDT	1.1	SCS215a	20101117.090756	20101117.090933	single-task	8	0.013328	60	0	60-180	60	145	NoGap	1	13	2	1	0	distractor	1	1067	467	1196	13.328	13.253	13.436
DTProbeTrack03	11	ProbeTrackDT	1.1	SCS215a	20101117.090756	20101117.090939	single-task	8	0.013328	60	0	60-180	60	119	NoGap	1	14	2	45	0	distractor	1	693	654	1850	13.328	13.293	13.363
DTProbeTrack03	11	ProbeTrackDT	1.1	SCS215a	20101117.090756	20101117.090945	single-task	8	0.013328	60	0	60-180	60	101	NoGap	1	15	2	3	1	target	1	1000	500	2350	13.328	13.116	13.507
DTProbeTrack03	11	ProbeTrackDT	1.1	SCS215a	20101117.090756	20101117.090951	single-task	8	0.013328	60	0	60-180	60	162	NoGap	1	16	2	45	1	target	1	574	713	3063	13.328	13.293	13.363
DTProbeTrack03	11	ProbeTrackDT	1.1	SCS215a	20101117.090756	20101117.090957	single-task	8	0.013328	60	0	60-180	60	119	NoGap	1	17	2	45	0	distractor	1	707	647	3710	13.328	13.293	13.363
DTProbeTrack03	11	ProbeTrackDT	1.1	SCS215a	20101117.090756	20101117.091004	single-task	8	0.013328	60	0	60-180	60	102	NoGap	1	18	2	45	0	distractor	1	614	693	4403	13.377	12.860	26.443
DTProbeTrack03	11	ProbeTrackDT	1.1	SCS215a	20101117.090756	20101117.091010	single-task	8	0.013328	60	0	60-180	60	141	NoGap	1	19	2	6	0	distractor	1	773	614	5017	13.328	13.264	13.367
DTProbeTrack03	11	ProbeTrackDT	1.1	SCS215a	20101117.090756	20101117.091016	single-task	8	0.013328	60	0	60-180	60	99	NoGap	1	20	2	6	1	target	1	627	687	5704	13.328	13.293	13.363
DTProbeTrack03	11	ProbeTrackDT	1.1	SCS215a	20101117.090756	20101117.091021	single-task	8	0.013328	60	0	60-180	60	77	NoGap	1	21	2	9	0	distractor	1	707	647	6351	13.451	13.257	26.621
DTProbeTrack03	11	ProbeTrackDT	1.1	SCS215a	20101117.090756	20101117.091026	single-task	8	0.013328	60	0	60-180	60	61	NoGap	1	22	2	9	1	target	1	667	667	7018	13.328	13.130	13.559
DTProbeTrack03	11	ProbeTrackDT	1.1	SCS215a	20101117.090756	20101117.091031	single-task	8	0.013328	60	0	60-180	60	174	NoGap	1	23	2	3	1	distractor	0	574	-1000	6018	13.328	13.221	13.452
DTProbeTrack03	11	ProbeTrackDT	1.1	SCS215a	20101117.090756	20101117.091037	single-task	8	0.013328	60	0	60-180	60	106	NoGap	1	24	2	1	0	distractor	1	667	667	6685	13.328	13.155	13.500
DTProbeTrack03	11	ProbeTrackDT	1.1	SCS215a	20101117.090756	20101117.091043	single-task	8	0.013328	60	0	60-180	60	85	NoGap	1	25	2	6	1	target	1	627	687	7372	13.328	13.173	13.450
DTProbeTrack03	11	ProbeTrackDT	1.1	SCS215a	20101117.090756	20101117.091048	single-task	8	0.013328	60	0	60-180	60	72	NoGap	1	26	2	1	1	distractor	0	547	-1000	6372	13.328	13.292	13.366
DTProbeTrack03	11	ProbeTrackDT	1.1	SCS215a	20101117.090756	20101117.091053	single-task	8	0.013328	60	0	60-180	60	96	NoGap	1	27	2	1	1	target	1	427	787	7159	13.328	13.293	13.363
DTProbeTrack03	11	ProbeTrackDT	1.1	SCS215a	20101117.090756	20101117.091058	single-task	8	0.013328	60	0	60-180	60	152	NoGap	1	28	2	45	0	distractor	1	587	707	7866	13.328	13.201	13.487
DTProbeTrack03	11	ProbeTrackDT	1.1	SCS215a	20101117.090756	20101117.091104	single-task	8	0.013328	60	0	60-180	60	98	NoGap	1	29	2	6	1	target	1	560	720	8586	13.328	13.293	13.363
DTProbeTrack03	11	ProbeTrackDT	1.1	SCS215a	20101117.090756	20101117.091110	single-task	8	0.013328	60	0	60-180	60	130	NoGap	1	30	2	45	1	target	1	374	813	9399	13.328	13.293	13.363
DTProbeTrack03	11	ProbeTrackDT	1.1	SCS215a	20101117.090756	20101117.091116	single-task	8	0.013328	60	0	60-180	60	80	NoGap	1	31	2	6	0	target	0	773	-1000	8399	13.328	13.293	13.363
DTProbeTrack03	11	ProbeTrackDT	1.1	SCS215a	20101117.090756	20101117.091121	single-task	8	0.013328	60	0	60-180	60	168	NoGap	1	32	2	1	0	distractor	1	600	700	9099	13.328	13.288	13.371
DTProbeTrack03	11	ProbeTrackDT	1.1	SCS215a	20101117.090756	20101117.091127	single-task	8	0.013328	60	0	60-180	60	116	NoGap	1	33	2	3	1	target	1	494	753	9852	13.328	13.292	13.363
DTProbeTrack03	11	ProbeTrackDT	1.1	SCS215a	20101117.090756	20101117.091132	single-task	8	0.013328	60	0	60-180	60	131	NoGap	1	34	2	3	0	distractor	1	614	693	10545	13.328	13.292	13.363
DTProbeTrack03	11	ProbeTrackDT	1.1	SCS215a	20101117.090756	20101117.091138	single-task	8	0.013328	60	0	60-180	60	130	NoGap	1	35	2	1	1	target	1	707	647	11192	13.328	13.259	13.363
DTProbeTrack03	11	ProbeTrackDT	1.1	SCS215a	20101117.090756	20101117.091144	single-task	8	0.013328	60	0	60-180	60	101	NoGap	1	36	2	3	0	distractor	1	733	634	11826	13.328	13.293	13.363
DTProbeTrack03	11	ProbeTrackDT	1.1	SCS215a	20101117.090756	20101117.091149	single-task	8	0.013328	60	0	60-180	60	126	NoGap	1	37	2	9	1	distractor	0	653	-1000	10826	13.328	13.089	13.565
DTProbeTrack03	11	ProbeTrackDT	1.1	SCS215a	20101117.090756	20101117.091155	single-task	8	0.013328	60	0	60-180	60	79	NoGap	1	38	2	3	0	target	0	733	-1000	9826	13.328	13.293	13.363
DTProbeTrack03	11	ProbeTrackDT	1.1	SCS215a	20101117.090756	20101117.091200	single-task	8	0.013328	60	0	60-180	60	158	NoGap	1	39	2	6	1	target	1	747	627	10453	13.328	13.293	13.363
DTProbeTrack03	11	ProbeTrackDT	1.1	SCS215a	20101117.090756	20101117.091206	single-task	8	0.013328	60	0	60-180	60	103	NoGap	1	40	2	45	1	target	1	533	734	11187	13.328	12.916	13.706
DTProbeTrack03	11	ProbeTrackDT	1.1	SCS215a	20101117.091604	20101117.091614	dt-generate	8	0.013328	60	10	60-180	60	158	GapPrac	1	1	2	45	1	target	1	1453	274	11461	13.328	12.939	13.709
DTProbeTrack03	11	ProbeTrackDT	1.1	SCS215a	20101117.091604	20101117.091621	dt-generate	8	0.013328	60	10	60-180	60	167	GapPrac	1	2	2	45	1	distractor	0	600	-1000	10461	13.328	12.853	13.817
DTProbeTrack03	11	ProbeTrackDT	1.1	SCS215a	20101117.091604	20101117.091628	dt-generate	8	0.013328	60	10	60-180	60	139	GapPrac	1	3	2	6	0	target	0	67	-1000	9461	13.328	13.306	13.357
DTProbeTrack03	11	ProbeTrackDT	1.1	SCS215a	20101117.091604	20101117.091633	dt-generate	8	0.013328	60	10	60-180	60	175	GapPrac	1	4	2	3	1	distractor	0	933	-1000	8461	13.328	13.107	13.552
DTProbeTrack03	11	ProbeTrackDT	1.1	SCS215a	20101117.091604	20101117.091640	dt-generate	8	0.013328	60	10	60-180	60	127	GapPrac	1	5	2	6	1	distractor	0	280	-1000	7461	13.328	13.087	13.566
DTProbeTrack03	11	ProbeTrackDT	1.1	SCS215a	20101117.091604	20101117.091646	dt-generate	8	0.013328	60	10	60-180	60	126	GapPrac	1	6	2	3	0	target	0	680	-1000	6461	13.328	13.095	13.561
DTProbeTrack03	11	ProbeTrackDT	1.1	SCS215a	20101117.091604	20101117.091652	dt-generate	8	0.013328	60	10	60-180	60	107	GapPrac	1	7	2	3	0	distractor	1	800	600	7061	13.328	13.308	13.345
DTProbeTrack03	11	ProbeTrackDT	1.1	SCS215a	20101117.091604	20101117.091657	dt-generate	8	0.013328	60	10	60-180	60	112	GapPrac	1	8	2	3	1	target	1	94	953	8014	13.645	12.864	53.144
DTProbeTrack03	11	ProbeTrackDT	1.1	SCS215a	20101117.091604	20101117.091703	dt-generate	8	0.013328	60	10	60-180	60	93	GapPrac	1	9	2	45	0	target	0	427	-1000	7014	13.328	13.289	13.370
DTProbeTrack03	11	ProbeTrackDT	1.1	SCS215a	20101117.091604	20101117.091708	dt-generate	8	0.013328	60	10	60-180	60	103	GapPrac	1	10	2	6	0	distractor	1	547	727	7741	13.328	13.102	13.555
DTProbeTrack03	11	ProbeTrackDT	1.1	SCS215a	20101117.091604	20101117.091714	dt-generate	8	0.013328	60	10	60-180	60	143	GapPrac	1	11	2	9	0	target	0	1906	-1000	6741	13.328	13.063	13.605
DTProbeTrack03	11	ProbeTrackDT	1.1	SCS215a	20101117.091604	20101117.091721	dt-generate	8	0.013328	60	10	60-180	60	162	GapPrac	1	12	2	9	1	target	1	1067	467	7208	13.328	13.096	13.564
DTProbeTrack03	11	ProbeTrackDT	1.1	SCS215a	20101117.091604	20101117.091728	dt-generate	8	0.013328	60	10	60-180	60	108	GapPrac	1	13	2	1	0	target	0	80	-1000	6208	13.328	12.960	13.707
DTProbeTrack03	11	ProbeTrackDT	1.1	SCS215a	20101117.091604	20101117.091733	dt-generate	8	0.013328	60	10	60-180	60	125	GapPrac	1	14	2	1	0	target	0	1533	-1000	5208	13.328	13.309	13.348
DTProbeTrack03	11	ProbeTrackDT	1.1	SCS215a	20101117.091604	20101117.091740	dt-generate	8	0.013328	60	10	60-180	60	94	GapPrac	1	15	2	9	1	distractor	0	787	-1000	4208	13.328	12.899	13.764
DTProbeTrack03	11	ProbeTrackDT	1.1	SCS215a	20101117.091604	20101117.091745	dt-generate	8	0.013328	60	10	60-180	60	71	GapPrac	1	16	2	6	1	target	1	747	627	4835	13.328	13.308	13.346
DTProbeTrack03	11	ProbeTrackDT	1.1	SCS215a	20101117.091604	20101117.091750	dt-generate	8	0.013328	60	10	60-180	60	99	GapPrac	1	17	2	45	0	distractor	1	933	534	5369	13.558	13.048	66.648
DTProbeTrack03	11	ProbeTrackDT	1.1	SCS215a	20101117.091604	20101117.091757	dt-generate	8	0.013328	60	10	60-180	60	164	GapPrac	1	18	2	1	1	target	1	1240	380	5749	13.328	13.108	13.547
DTProbeTrack03	11	ProbeTrackDT	1.1	SCS215a	20101117.091604	20101117.091804	dt-generate	8	0.013328	60	10	60-180	60	165	GapPrac	1	19	2	9	0	target	0	507	-1000	4749	13.328	13.308	13.355
DTProbeTrack03	11	ProbeTrackDT	1.1	SCS215a	20101117.091604	20101117.091810	dt-generate	8	0.013328	60	10	60-180	60	150	GapPrac	1	20	2	1	1	target	1	1133	434	5183	13.328	13.040	13.621
DTProbeTrack03	11	ProbeTrackDT	1.1	SCS215a	20101117.091923	20101117.091932	dt-generate	8	0.013328	60	10	60-180	60	67	GapExp	1	1	2	45	0	distractor	1	667	667	5850	13.328	12.967	13.693
DTProbeTrack03	11	ProbeTrackDT	1.1	SCS215a	20101117.091923	20101117.091938	dt-generate	8	0.013328	60	10	60-180	60	159	GapExp	1	2	2	45	1	target	1	747	627	6477	13.712	13.308	133.258
DTProbeTrack03	11	ProbeTrackDT	1.1	SCS215a	20101117.091923	20101117.091945	dt-generate	8	0.013328	60	10	60-180	60	151	GapExp	1	3	2	6	1	target	1	733	634	7111	13.328	13.306	13.347
DTProbeTrack03	11	ProbeTrackDT	1.1	SCS215a	20101117.091923	20101117.091951	dt-generate	8	0.013328	60	10	60-180	60	111	GapExp	1	4	2	1	1	distractor	0	4398	-1000	6111	13.328	12.904	13.745
DTProbeTrack03	11	ProbeTrackDT	1.1	SCS215a	20101117.091923	20101117.092001	dt-generate	8	0.013328	60	10	60-180	60	115	GapExp	1	5	2	3	1	target	1	574	713	6824	13.328	13.307	13.345
DTProbeTrack03	11	ProbeTrackDT	1.1	SCS215a	20101117.091923	20101117.092006	dt-generate	8	0.013328	60	10	60-180	60	104	GapExp	0	6	2	1	1	target	1	1147	427	7251	13.328	13.145	13.509
DTProbeTrack03	11	ProbeTrackDT	1.1	SCS215a	20101117.091923	20101117.092012	dt-generate	8	0.013328	60	10	60-180	60	110	GapExp	0	7	2	9	1	target	1	720	640	7891	13.328	13.224	13.434
DTProbeTrack03	11	ProbeTrackDT	1.1	SCS215a	20101117.091923	20101117.092018	dt-generate	8	0.013328	60	10	60-180	60	108	GapExp	0	8	2	1	0	distractor	1	787	607	8498	13.328	13.198	13.461
DTProbeTrack03	11	ProbeTrackDT	1.1	SCS215a	20101117.091923	20101117.092024	dt-generate	8	0.013328	60	10	60-180	60	127	GapExp	0	9	2	45	1	distractor	0	627	-1000	7498	13.328	12.943	13.712
DTProbeTrack03	11	ProbeTrackDT	1.1	SCS215a	20101117.091923	20101117.092030	dt-generate	8	0.013328	60	10	60-180	60	158	GapExp	0	10	2	6	0	distractor	1	853	574	8072	13.328	12.989	13.654
DTProbeTrack03	11	ProbeTrackDT	1.1	SCS215a	20101117.091923	20101117.092037	dt-generate	8	0.013328	60	10	60-180	60	149	GapExp	0	11	2	6	0	target	0	800	-1000	7072	13.328	12.944	13.705
DTProbeTrack03	11	ProbeTrackDT	1.1	SCS215a	20101117.091923	20101117.092043	dt-generate	8	0.013328	60	10	60-180	60	80	GapExp	0	12	2	3	0	distractor	1	1000	500	7572	13.328	13.074	13.589
DTProbeTrack03	11	ProbeTrackDT	1.1	SCS215a	20101117.091923	20101117.092048	dt-generate	8	0.013328	60	10	60-180	60	103	GapExp	0	13	2	1	0	target	0	467	-1000	6572	13.387	12.987	26.644
DTProbeTrack03	11	ProbeTrackDT	1.1	SCS215a	20101117.091923	20101117.092054	dt-generate	8	0.013328	60	10	60-180	60	160	GapExp	0	14	2	45	1	target	1	520	740	7312	13.328	12.898	13.751
DTProbeTrack03	11	ProbeTrackDT	1.1	SCS215a	20101117.091923	20101117.092100	dt-generate	8	0.013328	60	10	60-180	60	89	GapExp	0	15	2	6	0	distractor	1	747	627	7939	13.328	12.842	13.805
DTProbeTrack03	11	ProbeTrackDT	1.1	SCS215a	20101117.091923	20101117.092106	dt-generate	8	0.013328	60	10	60-180	60	147	GapExp	0	16	2	45	0	target	0	960	-1000	6939	13.328	12.843	13.814
DTProbeTrack03	11	ProbeTrackDT	1.1	SCS215a	20101117.091923	20101117.092113	dt-generate	8	0.013328	60	10	60-180	60	115	GapExp	0	17	2	6	0	distractor	1	853	574	7513	13.328	13.095	13.553
DTProbeTrack03	11	ProbeTrackDT	1.1	SCS215a	20101117.091923	20101117.092119	dt-generate	8	0.013328	60	10	60-180	60	130	GapExp	0	18	2	9	0	target	0	547	-1000	6513	13.328	13.084	13.564
DTProbeTrack03	11	ProbeTrackDT	1.1	SCS215a	20101117.091923	20101117.092125	dt-generate	8	0.013328	60	10	60-180	60	169	GapExp	0	19	2	9	1	target	1	733	634	7147	13.328	13.300	13.351
DTProbeTrack03	11	ProbeTrackDT	1.1	SCS215a	20101117.091923	20101117.092131	dt-generate	8	0.013328	60	10	60-180	60	119	GapExp	0	20	2	45	0	distractor	1	574	713	7860	13.328	13.304	13.351
DTProbeTrack03	11	ProbeTrackDT	1.1	SCS215a	20101117.091923	20101117.092137	dt-generate	8	0.013328	60	10	60-180	60	101	GapExp	0	21	2	3	1	distractor	0	494	-1000	6860	13.328	13.309	13.344
DTProbeTrack03	11	ProbeTrackDT	1.1	SCS215a	20101117.091923	20101117.092143	dt-generate	8	0.013328	60	10	60-180	60	66	GapExp	0	22	2	9	0	target	0	1040	-1000	5860	13.328	12.934	13.728
DTProbeTrack03	11	ProbeTrackDT	1.1	SCS215a	20101117.091923	20101117.092148	dt-generate	8	0.013328	60	10	60-180	60	86	GapExp	0	23	2	1	1	target	1	707	647	6507	13.328	13.087	13.557
DTProbeTrack03	11	ProbeTrackDT	1.1	SCS215a	20101117.091923	20101117.092154	dt-generate	8	0.013328	60	10	60-180	60	173	GapExp	0	24	2	9	1	target	1	494	753	7260	13.328	12.925	13.738
DTProbeTrack03	11	ProbeTrackDT	1.1	SCS215a	20101117.091923	20101117.092200	dt-generate	8	0.013328	60	10	60-180	60	96	GapExp	0	25	2	45	1	target	1	67	967	8227	13.328	13.308	13.348
DTProbeTrack03	11	ProbeTrackDT	1.1	SCS215a	20101117.091923	20101117.092205	dt-generate	8	0.013328	60	10	60-180	60	132	GapExp	0	26	2	3	0	target	0	773	-1000	7227	13.328	13.136	13.524
DTProbeTrack03	11	ProbeTrackDT	1.1	SCS215a	20101117.091923	20101117.092211	dt-generate	8	0.013328	60	10	60-180	60	78	GapExp	0	27	2	45	0	target	0	27	-1000	6227	13.328	13.308	13.346
DTProbeTrack03	11	ProbeTrackDT	1.1	SCS215a	20101117.091923	20101117.092217	dt-generate	8	0.013328	60	10	60-180	60	173	GapExp	0	28	2	3	1	target	1	4319	0	6227	13.369	12.879	26.639
DTProbeTrack03	11	ProbeTrackDT	1.1	SCS215a	20101117.091923	20101117.092227	dt-generate	8	0.013328	60	10	60-180	60	154	GapExp	0	29	2	6	1	target	1	613	694	6921	13.328	13.308	13.347
DTProbeTrack03	11	ProbeTrackDT	1.1	SCS215a	20101117.091923	20101117.092233	dt-generate	8	0.013328	60	10	60-180	60	178	GapExp	0	30	2	3	0	distractor	1	1160	420	7341	13.328	12.921	13.742
DTProbeTrack03	11	ProbeTrackDT	1.1	SCS215a	20101117.091923	20101117.092240	dt-generate	8	0.013328	60	10	60-180	60	67	GapExp	0	31	2	6	1	target	1	800	600	7941	13.328	13.307	13.347
DTProbeTrack03	11	ProbeTrackDT	1.1	SCS215a	20101117.091923	20101117.092245	dt-generate	8	0.013328	60	10	60-180	60	63	GapExp	0	32	2	6	1	target	1	600	700	8641	13.328	13.098	13.558
DTProbeTrack03	11	ProbeTrackDT	1.1	SCS215a	20101117.091923	20101117.092250	dt-generate	8	0.013328	60	10	60-180	60	172	GapExp	0	33	2	1	0	target	0	587	-1000	7641	13.328	12.917	13.738
DTProbeTrack03	11	ProbeTrackDT	1.1	SCS215a	20101117.091923	20101117.092256	dt-generate	8	0.013328	60	10	60-180	60	119	GapExp	0	34	2	3	0	target	0	1213	-1000	6641	13.328	12.940	13.714
DTProbeTrack03	11	ProbeTrackDT	1.1	SCS215a	20101117.091923	20101117.092303	dt-generate	8	0.013328	60	10	60-180	60	110	GapExp	0	35	2	3	1	distractor	0	1306	-1000	5641	13.328	13.288	13.364
DTProbeTrack03	11	ProbeTrackDT	1.1	SCS215a	20101117.091923	20101117.092309	dt-generate	8	0.013328	60	10	60-180	60	155	GapExp	0	36	2	3	1	target	1	813	594	6235	13.328	13.305	13.349
DTProbeTrack03	11	ProbeTrackDT	1.1	SCS215a	20101117.091923	20101117.092315	dt-generate	8	0.013328	60	10	60-180	60	137	GapExp	0	37	2	6	1	distractor	0	787	-1000	5235	13.328	12.961	13.695
DTProbeTrack03	11	ProbeTrackDT	1.1	SCS215a	20101117.091923	20101117.092321	dt-generate	8	0.013328	60	10	60-180	60	129	GapExp	0	38	2	3	0	target	0	1067	-1000	4235	13.328	13.064	13.597
DTProbeTrack03	11	ProbeTrackDT	1.1	SCS215a	20101117.091923	20101117.092328	dt-generate	8	0.013328	60	10	60-180	60	106	GapExp	0	39	2	6	1	target	1	760	620	4855	13.328	13.309	13.347
DTProbeTrack03	11	ProbeTrackDT	1.1	SCS215a	20101117.091923	20101117.092333	dt-generate	8	0.013328	60	10	60-180	60	170	GapExp	0	40	2	45	1	distractor	0	534	-1000	3855	13.328	12.876	13.778
DTProbeTrack03	11	ProbeTrackDT	1.1	SCS215a	20101117.091923	20101117.092340	dt-generate	8	0.013328	60	10	60-180	60	146	GapExp	0	41	2	3	0	target	0	534	-1000	2855	13.328	13.300	13.349
DTProbeTrack03	11	ProbeTrackDT	1.1	SCS215a	20101117.091923	20101117.092346	dt-generate	8	0.013328	60	10	60-180	60	171	GapExp	0	42	2	6	0	distractor	1	734	633	3488	13.328	13.088	13.558
DTProbeTrack03	11	ProbeTrackDT	1.1	SCS215a	20101117.091923	20101117.092353	dt-generate	8	0.013328	60	10	60-180	60	178	GapExp	0	43	2	45	1	target	1	294	853	4341	13.328	13.114	13.543
DTProbeTrack03	11	ProbeTrackDT	1.1	SCS215a	20101117.091923	20101117.092400	dt-generate	8	0.013328	60	10	60-180	60	102	GapExp	0	44	2	9	0	distractor	1	587	707	5048	13.328	12.917	13.727
DTProbeTrack03	11	ProbeTrackDT	1.1	SCS215a	20101117.091923	20101117.092405	dt-generate	8	0.013328	60	10	60-180	60	161	GapExp	0	45	2	9	0	distractor	1	587	707	5755	13.328	13.308	13.349
DTProbeTrack03	11	ProbeTrackDT	1.1	SCS215a	20101117.091923	20101117.092412	dt-generate	8	0.013328	60	10	60-180	60	86	GapExp	0	46	2	6	1	target	1	840	580	6335	13.328	13.307	13.348
DTProbeTrack03	11	ProbeTrackDT	1.1	SCS215a	20101117.091923	20101117.092417	dt-generate	8	0.013328	60	10	60-180	60	99	GapExp	0	47	2	1	0	distractor	1	1133	434	6769	13.328	12.966	13.706
DTProbeTrack03	11	ProbeTrackDT	1.1	SCS215a	20101117.091923	20101117.092423	dt-generate	8	0.013328	60	10	60-180	60	151	GapExp	0	48	2	1	1	target	1	547	727	7496	13.328	13.109	13.561
DTProbeTrack03	11	ProbeTrackDT	1.1	SCS215a	20101117.091923	20101117.092429	dt-generate	8	0.013328	60	10	60-180	60	83	GapExp	0	49	2	45	1	target	1	507	747	8243	13.328	12.911	13.750
DTProbeTrack03	11	ProbeTrackDT	1.1	SCS215a	20101117.091923	20101117.092435	dt-generate	8	0.013328	60	10	60-180	60	136	GapExp	0	50	2	6	0	target	0	587	-1000	7243	13.328	13.096	13.547
DTProbeTrack03	11	ProbeTrackDT	1.1	SCS215a	20101117.091923	20101117.092450	dt-generate	8	0.013328	60	10	60-180	60	99	GapExp	0	51	2	3	1	target	1	507	747	7990	13.328	13.097	13.567
DTProbeTrack03	11	ProbeTrackDT	1.1	SCS215a	20101117.091923	20101117.092456	dt-generate	8	0.013328	60	10	60-180	60	72	GapExp	0	52	2	45	0	target	0	627	-1000	6990	13.328	12.943	13.710
DTProbeTrack03	11	ProbeTrackDT	1.1	SCS215a	20101117.091923	20101117.092501	dt-generate	8	0.013328	60	10	60-180	60	137	GapExp	0	53	2	45	1	target	1	653	674	7664	13.328	13.096	13.569
DTProbeTrack03	11	ProbeTrackDT	1.1	SCS215a	20101117.091923	20101117.092508	dt-generate	8	0.013328	60	10	60-180	60	157	GapExp	0	54	2	1	1	target	1	467	767	8431	13.328	13.307	13.356
DTProbeTrack03	11	ProbeTrackDT	1.1	SCS215a	20101117.091923	20101117.092514	dt-generate	8	0.013328	60	10	60-180	60	134	GapExp	0	55	2	1	0	target	0	1053	-1000	7431	13.328	13.306	13.346
DTProbeTrack03	11	ProbeTrackDT	1.1	SCS215a	20101117.091923	20101117.092520	dt-generate	8	0.013328	60	10	60-180	60	62	GapExp	0	56	2	3	1	target	1	2919	0	7431	13.328	12.868	13.774
DTProbeTrack03	11	ProbeTrackDT	1.1	SCS215a	20101117.091923	20101117.092527	dt-generate	8	0.013328	60	10	60-180	60	77	GapExp	0	57	2	45	1	target	1	653	674	8105	13.328	13.309	13.357
DTProbeTrack03	11	ProbeTrackDT	1.1	SCS215a	20101117.091923	20101117.092533	dt-generate	8	0.013328	60	10	60-180	60	77	GapExp	0	58	2	45	0	target	0	813	-1000	7105	13.328	12.887	13.764
DTProbeTrack03	11	ProbeTrackDT	1.1	SCS215a	20101117.091923	20101117.092539	dt-generate	8	0.013328	60	10	60-180	60	143	GapExp	0	59	2	6	1	target	1	667	667	7772	13.374	12.886	26.639
DTProbeTrack03	11	ProbeTrackDT	1.1	SCS215a	20101117.091923	20101117.092545	dt-generate	8	0.013328	60	10	60-180	60	135	GapExp	0	60	2	1	1	distractor	0	627	-1000	6772	13.328	12.852	13.796
DTProbeTrack03	11	ProbeTrackDT	1.1	SCS215a	20101117.091923	20101117.092551	dt-generate	8	0.013328	60	10	60-180	60	123	GapExp	0	61	2	9	0	target	0	720	-1000	5772	13.328	13.308	13.346
DTProbeTrack03	11	ProbeTrackDT	1.1	SCS215a	20101117.091923	20101117.092557	dt-generate	8	0.013328	60	10	60-180	60	64	GapExp	0	62	2	3	1	target	1	840	580	6352	13.328	12.869	13.794
DTProbeTrack03	11	ProbeTrackDT	1.1	SCS215a	20101117.091923	20101117.092602	dt-generate	8	0.013328	60	10	60-180	60	100	GapExp	0	63	2	45	1	distractor	0	547	-1000	5352	13.328	12.964	13.688
DTProbeTrack03	11	ProbeTrackDT	1.1	SCS215a	20101117.091923	20101117.092608	dt-generate	8	0.013328	60	10	60-180	60	122	GapExp	0	64	2	1	1	target	1	773	614	5966	13.328	13.094	13.560
DTProbeTrack03	11	ProbeTrackDT	1.1	SCS215a	20101117.091923	20101117.092614	dt-generate	8	0.013328	60	10	60-180	60	108	GapExp	0	65	2	9	1	target	1	507	747	6713	13.328	13.097	13.560
DTProbeTrack03	11	ProbeTrackDT	1.1	SCS215a	20101117.091923	20101117.092619	dt-generate	8	0.013328	60	10	60-180	60	149	GapExp	0	66	2	3	1	target	1	587	707	7420	13.328	12.954	13.693
DTProbeTrack03	11	ProbeTrackDT	1.1	SCS215a	20101117.091923	20101117.092625	dt-generate	8	0.013328	60	10	60-180	60	156	GapExp	0	67	2	3	1	target	1	653	674	8094	13.328	13.308	13.348
DTProbeTrack03	11	ProbeTrackDT	1.1	SCS215a	20101117.091923	20101117.092632	dt-generate	8	0.013328	60	10	60-180	60	107	GapExp	0	68	2	1	1	target	1	733	634	8728	13.328	12.900	13.739
DTProbeTrack03	11	ProbeTrackDT	1.1	SCS215a	20101117.091923	20101117.092637	dt-generate	8	0.013328	60	10	60-180	60	127	GapExp	0	69	2	3	0	target	0	280	-1000	7728	13.328	13.122	13.535
DTProbeTrack03	11	ProbeTrackDT	1.1	SCS215a	20101117.091923	20101117.092643	dt-generate	8	0.013328	60	10	60-180	60	126	GapExp	0	70	2	6	1	target	1	574	713	8441	13.328	13.078	13.565
DTProbeTrack03	11	ProbeTrackDT	1.1	SCS215a	20101117.091923	20101117.092649	dt-generate	8	0.013328	60	10	60-180	60	152	GapExp	0	71	2	1	1	target	1	494	753	9194	13.328	13.093	13.570
DTProbeTrack03	11	ProbeTrackDT	1.1	SCS215a	20101117.091923	20101117.092655	dt-generate	8	0.013328	60	10	60-180	60	137	GapExp	0	72	2	1	0	distractor	1	653	674	9868	13.328	13.106	13.553
DTProbeTrack03	11	ProbeTrackDT	1.1	SCS215a	20101117.091923	20101117.092701	dt-generate	8	0.013328	60	10	60-180	60	177	GapExp	0	73	2	9	0	target	0	760	-1000	8868	13.328	12.935	13.702
DTProbeTrack03	11	ProbeTrackDT	1.1	SCS215a	20101117.091923	20101117.092707	dt-generate	8	0.013328	60	10	60-180	60	172	GapExp	0	74	2	1	0	distractor	1	707	647	9515	13.370	12.968	26.935
DTProbeTrack03	11	ProbeTrackDT	1.1	SCS215a	20101117.091923	20101117.092714	dt-generate	8	0.013328	60	10	60-180	60	69	GapExp	0	75	2	45	0	distractor	1	973	514	10029	13.328	13.079	13.572
DTProbeTrack03	11	ProbeTrackDT	1.1	SCS215a	20101117.091923	20101117.092720	dt-generate	8	0.013328	60	10	60-180	60	138	GapExp	0	76	2	6	0	distractor	1	947	527	10556	13.328	13.304	13.354
DTProbeTrack03	11	ProbeTrackDT	1.1	SCS215a	20101117.091923	20101117.092726	dt-generate	8	0.013328	60	10	60-180	60	161	GapExp	0	77	2	9	1	distractor	0	800	-1000	9556	13.328	12.896	13.770
DTProbeTrack03	11	ProbeTrackDT	1.1	SCS215a	20101117.091923	20101117.092732	dt-generate	8	0.013328	60	10	60-180	60	114	GapExp	0	78	2	9	1	target	1	560	720	10276	13.328	12.866	13.796
DTProbeTrack03	11	ProbeTrackDT	1.1	SCS215a	20101117.091923	20101117.092738	dt-generate	8	0.013328	60	10	60-180	60	134	GapExp	0	79	2	6	1	target	1	733	634	10910	13.328	13.117	13.540
DTProbeTrack03	11	ProbeTrackDT	1.1	SCS215a	20101117.091923	20101117.092744	dt-generate	8	0.013328	60	10	60-180	60	62	GapExp	0	80	2	45	0	distractor	1	827	587	11497	13.328	13.118	13.540
DTProbeTrack03	11	ProbeTrackDT	1.1	SCS215a	20101117.091923	20101117.092750	dt-generate	8	0.013328	60	10	60-180	60	111	GapExp	0	81	2	9	1	target	1	574	713	12210	13.328	13.306	13.349
DTProbeTrack03	11	ProbeTrackDT	1.1	SCS215a	20101117.091923	20101117.092756	dt-generate	8	0.013328	60	10	60-180	60	70	GapExp	0	82	2	3	0	target	0	694	-1000	11210	13.328	12.938	13.710
DTProbeTrack03	11	ProbeTrackDT	1.1	SCS215a	20101117.091923	20101117.092801	dt-generate	8	0.013328	60	10	60-180	60	69	GapExp	0	83	2	9	0	distractor	1	720	640	11850	13.328	13.304	13.351
DTProbeTrack03	11	ProbeTrackDT	1.1	SCS215a	20101117.091923	20101117.092806	dt-generate	8	0.013328	60	10	60-180	60	84	GapExp	0	84	2	45	1	distractor	0	440	-1000	10850	13.328	12.905	13.743
DTProbeTrack03	11	ProbeTrackDT	1.1	SCS215a	20101117.091923	20101117.092811	dt-generate	8	0.013328	60	10	60-180	60	173	GapExp	0	85	2	45	0	distractor	1	587	707	11557	13.328	13.094	13.568
DTProbeTrack03	11	ProbeTrackDT	1.1	SCS215a	20101117.091923	20101117.092818	dt-generate	8	0.013328	60	10	60-180	60	117	GapExp	0	86	2	45	0	distractor	1	414	793	12350	13.328	13.098	13.562
DTProbeTrack03	11	ProbeTrackDT	1.1	SCS215a	20101117.091923	20101117.092824	dt-generate	8	0.013328	60	10	60-180	60	113	GapExp	0	87	2	6	1	target	1	627	687	13037	13.328	12.895	13.762
DTProbeTrack03	11	ProbeTrackDT	1.1	SCS215a	20101117.091923	20101117.092830	dt-generate	8	0.013328	60	10	60-180	60	78	GapExp	0	88	2	45	0	distractor	1	560	720	13757	13.328	13.304	13.347
DTProbeTrack03	11	ProbeTrackDT	1.1	SCS215a	20101117.091923	20101117.092836	dt-generate	8	0.013328	60	10	60-180	60	116	GapExp	0	89	2	6	0	target	0	973	-1000	12757	13.328	13.304	13.358
DTProbeTrack03	11	ProbeTrackDT	1.1	SCS215a	20101117.091923	20101117.092842	dt-generate	8	0.013328	60	10	60-180	60	64	GapExp	0	90	2	9	0	target	0	574	-1000	11757	13.328	13.300	13.348
DTProbeTrack03	11	ProbeTrackDT	1.1	SCS215a	20101117.091923	20101117.092847	dt-generate	8	0.013328	60	10	60-180	60	82	GapExp	0	91	2	1	0	distractor	1	1040	480	12237	13.328	12.941	13.728
DTProbeTrack03	11	ProbeTrackDT	1.1	SCS215a	20101117.091923	20101117.092852	dt-generate	8	0.013328	60	10	60-180	60	105	GapExp	0	92	2	9	0	target	0	587	-1000	11237	13.328	12.883	13.785
DTProbeTrack03	11	ProbeTrackDT	1.1	SCS215a	20101117.091923	20101117.092858	dt-generate	8	0.013328	60	10	60-180	60	96	GapExp	0	93	2	45	0	target	0	640	-1000	10237	13.376	12.827	26.811
DTProbeTrack03	11	ProbeTrackDT	1.1	SCS215a	20101117.091923	20101117.092904	dt-generate	8	0.013328	60	10	60-180	60	166	GapExp	0	94	2	45	1	target	1	600	700	10937	13.328	12.906	13.755
DTProbeTrack03	11	ProbeTrackDT	1.1	SCS215a	20101117.091923	20101117.092910	dt-generate	8	0.013328	60	10	60-180	60	109	GapExp	0	95	2	3	1	target	1	667	667	11604	13.328	13.009	13.646
DTProbeTrack03	11	ProbeTrackDT	1.1	SCS215a	20101117.091923	20101117.092916	dt-generate	8	0.013328	60	10	60-180	60	121	GapExp	0	96	2	9	0	distractor	1	693	654	12258	13.328	13.101	13.550
DTProbeTrack03	11	ProbeTrackDT	1.1	SCS215a	20101117.091923	20101117.092922	dt-generate	8	0.013328	60	10	60-180	60	122	GapExp	0	97	2	3	0	target	0	587	-1000	11258	13.328	13.101	13.560
DTProbeTrack03	11	ProbeTrackDT	1.1	SCS215a	20101117.091923	20101117.092928	dt-generate	8	0.013328	60	10	60-180	60	110	GapExp	0	98	2	9	1	distractor	0	467	-1000	10258	13.383	13.091	26.903
DTProbeTrack03	11	ProbeTrackDT	1.1	SCS215a	20101117.091923	20101117.092933	dt-generate	8	0.013328	60	10	60-180	60	153	GapExp	0	99	2	9	1	target	1	707	647	10905	13.328	12.877	13.791
DTProbeTrack03	11	ProbeTrackDT	1.1	SCS215a	20101117.091923	20101117.092939	dt-generate	8	0.013328	60	10	60-180	60	159	GapExp	0	100	2	1	1	target	1	1040	480	11385	13.328	13.300	13.350
DTProbeTrack03	11	ProbeTrackDT	1.1	SCS215a	20101117.091923	20101117.092953	dt-generate	8	0.013328	60	10	60-180	60	85	GapExp	0	101	2	9	0	target	0	547	-1000	10385	13.328	13.308	13.346
DTProbeTrack03	11	ProbeTrackDT	1.1	SCS215a	20101117.091923	20101117.092958	dt-generate	8	0.013328	60	10	60-180	60	157	GapExp	0	102	2	3	0	distractor	1	787	607	10992	13.328	13.112	13.557
DTProbeTrack03	11	ProbeTrackDT	1.1	SCS215a	20101117.091923	20101117.093004	dt-generate	8	0.013328	60	10	60-180	60	83	GapExp	0	103	2	1	1	target	1	733	634	11626	13.328	13.097	13.755
DTProbeTrack03	11	ProbeTrackDT	1.1	SCS215a	20101117.091923	20101117.093009	dt-generate	8	0.013328	60	10	60-180	60	98	GapExp	0	104	2	3	0	distractor	1	574	713	12339	13.328	12.848	13.809
DTProbeTrack03	11	ProbeTrackDT	1.1	SCS215a	20101117.091923	20101117.093015	dt-generate	8	0.013328	60	10	60-180	60	118	GapExp	0	105	2	3	1	target	1	534	733	13072	13.328	13.304	13.346
DTProbeTrack03	11	ProbeTrackDT	1.1	SCS215a	20101117.091923	20101117.093020	dt-generate	8	0.013328	60	10	60-180	60	93	GapExp	0	106	2	1	1	target	1	667	667	13739	13.328	12.910	13.742
DTProbeTrack03	11	ProbeTrackDT	1.1	SCS215a	20101117.091923	20101117.093026	dt-generate	8	0.013328	60	10	60-180	60	124	GapExp	0	107	2	6	1	target	1	480	760	14499	13.328	12.867	13.779
DTProbeTrack03	11	ProbeTrackDT	1.1	SCS215a	20101117.091923	20101117.093031	dt-generate	8	0.013328	60	10	60-180	60	128	GapExp	0	108	2	3	1	target	1	520	740	15239	13.328	13.109	13.546
DTProbeTrack03	11	ProbeTrackDT	1.1	SCS215a	20101117.091923	20101117.093037	dt-generate	8	0.013328	60	10	60-180	60	122	GapExp	0	109	2	6	0	distractor	1	440	780	16019	13.328	13.013	13.644
DTProbeTrack03	11	ProbeTrackDT	1.1	SCS215a	20101117.091923	20101117.093043	dt-generate	8	0.013328	60	10	60-180	60	73	GapExp	0	110	2	45	0	target	0	1067	-1000	15019	13.328	12.923	13.749
DTProbeTrack03	11	ProbeTrackDT	1.1	SCS215a	20101117.091923	20101117.093049	dt-generate	8	0.013328	60	10	60-180	60	156	GapExp	0	111	2	45	1	target	1	760	620	15639	13.328	13.083	13.590
DTProbeTrack03	11	ProbeTrackDT	1.1	SCS215a	20101117.091923	20101117.093056	dt-generate	8	0.013328	60	10	60-180	60	62	GapExp	0	112	2	3	1	target	1	494	753	16392	13.328	13.165	13.494
DTProbeTrack03	11	ProbeTrackDT	1.1	SCS215a	20101117.091923	20101117.093100	dt-generate	8	0.013328	60	10	60-180	60	166	GapExp	0	113	2	3	1	target	1	534	733	17125	13.328	13.095	13.558
DTProbeTrack03	11	ProbeTrackDT	1.1	SCS215a	20101117.091923	20101117.093107	dt-generate	8	0.013328	60	10	60-180	60	61	GapExp	0	114	2	9	0	distractor	1	707	647	17772	13.328	13.097	13.546
DTProbeTrack03	11	ProbeTrackDT	1.1	SCS215a	20101117.091923	20101117.093112	dt-generate	8	0.013328	60	10	60-180	60	90	GapExp	0	115	2	1	0	target	0	680	-1000	16772	13.328	13.049	13.609
DTProbeTrack03	11	ProbeTrackDT	1.1	SCS215a	20101117.091923	20101117.093117	dt-generate	8	0.013328	60	10	60-180	60	99	GapExp	0	116	2	1	1	distractor	0	2306	-1000	15772	13.328	13.291	13.357
DTProbeTrack03	11	ProbeTrackDT	1.1	SCS215a	20101117.091923	20101117.093124	dt-generate	8	0.013328	60	10	60-180	60	154	GapExp	0	117	2	6	0	target	0	5238	-1000	14772	13.328	13.006	13.653
DTProbeTrack03	11	ProbeTrackDT	1.1	SCS215a	20101117.091923	20101117.093135	dt-generate	8	0.013328	60	10	60-180	60	158	GapExp	0	118	2	3	0	target	0	933	-1000	13772	13.328	12.907	13.752
DTProbeTrack03	11	ProbeTrackDT	1.1	SCS215a	20101117.091923	20101117.093141	dt-generate	8	0.013328	60	10	60-180	60	103	GapExp	0	119	2	9	1	target	1	587	707	14479	13.328	12.852	13.806
DTProbeTrack03	11	ProbeTrackDT	1.1	SCS215a	20101117.091923	20101117.093147	dt-generate	8	0.013328	60	10	60-180	60	97	GapExp	0	120	2	6	1	target	1	507	747	15226	13.328	13.012	13.647
DTProbeTrack03	11	ProbeTrackDT	1.1	SCS215a	20101117.091923	20101117.093152	dt-generate	8	0.013328	60	10	60-180	60	154	GapExp	0	121	2	9	1	target	1	600	700	15926	13.328	13.141	13.513
DTProbeTrack03	11	ProbeTrackDT	1.1	SCS215a	20101117.091923	20101117.093158	dt-generate	8	0.013328	60	10	60-180	60	149	GapExp	0	122	2	1	0	target	0	494	-1000	14926	13.328	12.922	13.745
DTProbeTrack03	11	ProbeTrackDT	1.1	SCS215a	20101117.091923	20101117.093204	dt-generate	8	0.013328	60	10	60-180	60	72	GapExp	0	123	2	3	1	target	1	614	693	15619	13.328	13.009	13.647
DTProbeTrack03	11	ProbeTrackDT	1.1	SCS215a	20101117.091923	20101117.093209	dt-generate	8	0.013328	60	10	60-180	60	138	GapExp	0	124	2	1	1	target	1	720	640	16259	13.328	12.923	13.717
DTProbeTrack03	11	ProbeTrackDT	1.1	SCS215a	20101117.091923	20101117.093215	dt-generate	8	0.013328	60	10	60-180	60	101	GapExp	0	125	2	3	1	target	1	427	787	17046	13.328	13.116	13.542
DTProbeTrack03	11	ProbeTrackDT	1.1	SCS215a	20101117.091923	20101117.093221	dt-generate	8	0.013328	60	10	60-180	60	130	GapExp	0	126	2	6	1	distractor	0	733	-1000	16046	13.328	13.004	13.653
DTProbeTrack03	11	ProbeTrackDT	1.1	SCS215a	20101117.091923	20101117.093227	dt-generate	8	0.013328	60	10	60-180	60	96	GapExp	0	127	2	6	0	target	0	720	-1000	15046	13.328	13.308	13.347
DTProbeTrack03	11	ProbeTrackDT	1.1	SCS215a	20101117.091923	20101117.093232	dt-generate	8	0.013328	60	10	60-180	60	61	GapExp	0	128	2	9	1	distractor	0	973	-1000	14046	13.328	12.978	13.673
DTProbeTrack03	11	ProbeTrackDT	1.1	SCS215a	20101117.091923	20101117.093238	dt-generate	8	0.013328	60	10	60-180	60	62	GapExp	0	129	2	1	1	target	1	640	680	14726	13.328	13.309	13.348
DTProbeTrack03	11	ProbeTrackDT	1.1	SCS215a	20101117.091923	20101117.093242	dt-generate	8	0.013328	60	10	60-180	60	178	GapExp	0	130	2	3	1	target	1	454	773	15499	13.328	12.896	13.769
DTProbeTrack03	11	ProbeTrackDT	1.1	SCS215a	20101117.091923	20101117.093249	dt-generate	8	0.013328	60	10	60-180	60	132	GapExp	0	131	2	45	1	target	1	653	674	16173	13.328	12.939	13.720
DTProbeTrack03	11	ProbeTrackDT	1.1	SCS215a	20101117.091923	20101117.093255	dt-generate	8	0.013328	60	10	60-180	60	162	GapExp	0	132	2	3	0	distractor	1	574	713	16886	13.328	13.302	13.347
DTProbeTrack03	11	ProbeTrackDT	1.1	SCS215a	20101117.091923	20101117.093301	dt-generate	8	0.013328	60	10	60-180	60	117	GapExp	0	133	2	1	1	target	1	600	700	17586	13.328	12.835	13.818
DTProbeTrack03	11	ProbeTrackDT	1.1	SCS215a	20101117.091923	20101117.093307	dt-generate	8	0.013328	60	10	60-180	60	95	GapExp	0	134	2	9	1	target	1	1160	420	18006	13.328	13.045	13.623
DTProbeTrack03	11	ProbeTrackDT	1.1	SCS215a	20101117.091923	20101117.093313	dt-generate	8	0.013328	60	10	60-180	60	130	GapExp	0	135	2	3	0	target	0	933	-1000	17006	13.328	13.110	13.550
DTProbeTrack03	11	ProbeTrackDT	1.1	SCS215a	20101117.091923	20101117.093319	dt-generate	8	0.013328	60	10	60-180	60	88	GapExp	0	136	2	6	1	target	1	534	733	17739	13.328	12.908	13.764
DTProbeTrack03	11	ProbeTrackDT	1.1	SCS215a	20101117.091923	20101117.093324	dt-generate	8	0.013328	60	10	60-180	60	136	GapExp	0	137	2	9	0	target	0	1027	-1000	16739	13.328	13.304	13.350
DTProbeTrack03	11	ProbeTrackDT	1.1	SCS215a	20101117.091923	20101117.093331	dt-generate	8	0.013328	60	10	60-180	60	177	GapExp	0	138	2	6	0	distractor	1	640	680	17419	13.328	13.308	13.347
DTProbeTrack03	11	ProbeTrackDT	1.1	SCS215a	20101117.091923	20101117.093337	dt-generate	8	0.013328	60	10	60-180	60	124	GapExp	0	139	2	9	1	target	1	627	687	18106	13.328	12.883	13.785
DTProbeTrack03	11	ProbeTrackDT	1.1	SCS215a	20101117.091923	20101117.093343	dt-generate	8	0.013328	60	10	60-180	60	128	GapExp	0	140	2	1	1	target	1	760	620	18726	13.328	12.957	13.691
DTProbeTrack03	11	ProbeTrackDT	1.1	SCS215a	20101117.091923	20101117.093349	dt-generate	8	0.013328	60	10	60-180	60	83	GapExp	0	141	2	1	0	distractor	1	587	707	19433	13.328	13.048	13.609
DTProbeTrack03	11	ProbeTrackDT	1.1	SCS215a	20101117.091923	20101117.093354	dt-generate	8	0.013328	60	10	60-180	60	146	GapExp	0	142	2	6	0	distractor	1	653	674	20107	13.328	13.090	13.558
DTProbeTrack03	11	ProbeTrackDT	1.1	SCS215a	20101117.091923	20101117.093400	dt-generate	8	0.013328	60	10	60-180	60	71	GapExp	0	143	2	1	0	distractor	1	707	647	20754	13.328	13.034	13.627
DTProbeTrack03	11	ProbeTrackDT	1.1	SCS215a	20101117.091923	20101117.093405	dt-generate	8	0.013328	60	10	60-180	60	97	GapExp	0	144	2	6	1	target	1	653	674	21428	13.328	13.052	13.605
DTProbeTrack03	11	ProbeTrackDT	1.1	SCS215a	20101117.091923	20101117.093411	dt-generate	8	0.013328	60	10	60-180	60	178	GapExp	0	145	2	9	0	distractor	1	587	707	22135	13.328	13.308	13.346
DTProbeTrack03	11	ProbeTrackDT	1.1	SCS215a	20101117.091923	20101117.093417	dt-generate	8	0.013328	60	10	60-180	60	102	GapExp	0	146	2	45	0	distractor	1	987	507	22642	13.328	13.104	13.569
DTProbeTrack03	11	ProbeTrackDT	1.1	SCS215a	20101117.091923	20101117.093424	dt-generate	8	0.013328	60	10	60-180	60	109	GapExp	0	147	2	45	1	target	1	147	927	23569	13.328	12.850	13.817
DTProbeTrack03	11	ProbeTrackDT	1.1	SCS215a	20101117.091923	20101117.093429	dt-generate	8	0.013328	60	10	60-180	60	137	GapExp	0	148	2	1	1	target	1	680	660	24229	13.328	13.104	13.556
DTProbeTrack03	11	ProbeTrackDT	1.1	SCS215a	20101117.091923	20101117.093435	dt-generate	8	0.013328	60	10	60-180	60	136	GapExp	0	149	2	6	0	distractor	1	600	700	24929	13.328	13.294	13.347
DTProbeTrack03	11	ProbeTrackDT	1.1	SCS215a	20101117.091923	20101117.093441	dt-generate	8	0.013328	60	10	60-180	60	97	GapExp	0	150	2	6	0	distractor	1	680	660	25589	13.328	13.163	13.482
DTProbeTrack03	11	ProbeTrackDT	1.1	SCS215a	20101117.091923	20101117.093504	dt-generate	8	0.013328	60	10	60-180	60	147	GapExp	0	151	2	45	0	distractor	1	693	654	26243	13.328	12.860	13.808
DTProbeTrack03	11	ProbeTrackDT	1.1	SCS215a	20101117.091923	20101117.093511	dt-generate	8	0.013328	60	10	60-180	60	154	GapExp	0	152	2	1	1	target	1	747	627	26870	13.328	12.962	13.707
DTProbeTrack03	11	ProbeTrackDT	1.1	SCS215a	20101117.091923	20101117.093517	dt-generate	8	0.013328	60	10	60-180	60	98	GapExp	0	153	2	1	0	distractor	1	760	620	27490	13.328	13.046	13.615
DTProbeTrack03	11	ProbeTrackDT	1.1	SCS215a	20101117.091923	20101117.093523	dt-generate	8	0.013328	60	10	60-180	60	74	GapExp	0	154	2	45	0	distractor	1	507	747	28237	13.328	13.115	13.533
DTProbeTrack03	11	ProbeTrackDT	1.1	SCS215a	20101117.091923	20101117.093528	dt-generate	8	0.013328	60	10	60-180	60	129	GapExp	0	155	2	45	1	target	1	560	720	28957	13.328	13.097	13.558
DTProbeTrack03	11	ProbeTrackDT	1.1	SCS215a	20101117.091923	20101117.093535	dt-generate	8	0.013328	60	10	60-180	60	104	GapExp	0	156	2	1	0	target	0	1506	-1000	27957	13.328	12.928	13.739
DTProbeTrack03	11	ProbeTrackDT	1.1	SCS215a	20101117.091923	20101117.093541	dt-generate	8	0.013328	60	10	60-180	60	86	GapExp	0	157	2	45	1	target	1	653	674	28631	13.328	13.028	13.640
DTProbeTrack03	11	ProbeTrackDT	1.1	SCS215a	20101117.091923	20101117.093547	dt-generate	8	0.013328	60	10	60-180	60	168	GapExp	0	158	2	1	1	target	1	573	714	29345	13.328	13.089	13.567
DTProbeTrack03	11	ProbeTrackDT	1.1	SCS215a	20101117.091923	20101117.093553	dt-generate	8	0.013328	60	10	60-180	60	74	GapExp	0	159	2	45	1	target	1	560	720	30065	13.328	13.308	13.350
DTProbeTrack03	11	ProbeTrackDT	1.1	SCS215a	20101117.091923	20101117.093559	dt-generate	8	0.013328	60	10	60-180	60	77	GapExp	0	160	2	6	1	target	1	507	747	30812	13.328	13.112	13.551
DTProbeTrack03	11	ProbeTrackDT	1.1	SCS215a	20101117.091923	20101117.093604	dt-generate	8	0.013328	60	10	60-180	60	121	GapExp	0	161	2	3	1	target	1	494	753	31565	13.328	12.868	13.782
DTProbeTrack03	11	ProbeTrackDT	1.1	SCS215a	20101117.091923	20101117.093609	dt-generate	8	0.013328	60	10	60-180	60	166	GapExp	0	162	2	45	1	target	1	507	747	32312	13.328	13.097	13.561
DTProbeTrack03	11	ProbeTrackDT	1.1	SCS215a	20101117.091923	20101117.093616	dt-generate	8	0.013328	60	10	60-180	60	157	GapExp	0	163	2	3	1	target	1	773	614	32926	13.328	13.011	13.649
DTProbeTrack03	11	ProbeTrackDT	1.1	SCS215a	20101117.091923	20101117.093622	dt-generate	8	0.013328	60	10	60-180	60	177	GapExp	0	164	2	9	0	distractor	1	787	607	33533	13.328	12.914	13.754
DTProbeTrack03	11	ProbeTrackDT	1.1	SCS215a	20101117.091923	20101117.093629	dt-generate	8	0.013328	60	10	60-180	60	151	GapExp	0	165	2	45	1	distractor	0	627	-1000	32533	13.328	13.117	13.538
DTProbeTrack03	11	ProbeTrackDT	1.1	SCS215a	20101117.091923	20101117.093636	dt-generate	8	0.013328	60	10	60-180	60	87	GapExp	0	166	2	6	0	target	0	707	-1000	31533	13.328	13.093	13.564
DTProbeTrack03	11	ProbeTrackDT	1.1	SCS215a	20101117.091923	20101117.093641	dt-generate	8	0.013328	60	10	60-180	60	146	GapExp	0	167	2	45	1	target	1	560	720	32253	13.328	13.221	13.437
DTProbeTrack03	11	ProbeTrackDT	1.1	SCS215a	20101117.091923	20101117.093647	dt-generate	8	0.013328	60	10	60-180	60	87	GapExp	0	168	2	9	1	target	1	480	760	33013	13.328	13.300	13.347
DTProbeTrack03	11	ProbeTrackDT	1.1	SCS215a	20101117.091923	20101117.093653	dt-generate	8	0.013328	60	10	60-180	60	67	GapExp	0	169	2	9	0	target	0	1080	-1000	32013	13.328	13.310	13.347
DTProbeTrack03	11	ProbeTrackDT	1.1	SCS215a	20101117.091923	20101117.093658	dt-generate	8	0.013328	60	10	60-180	60	172	GapExp	0	170	2	45	0	target	0	707	-1000	31013	13.328	13.164	13.483
DTProbeTrack03	11	ProbeTrackDT	1.1	SCS215a	20101117.091923	20101117.093705	dt-generate	8	0.013328	60	10	60-180	60	171	GapExp	0	171	2	6	0	distractor	1	627	687	31700	13.328	13.101	13.560
DTProbeTrack03	11	ProbeTrackDT	1.1	SCS215a	20101117.091923	20101117.093712	dt-generate	8	0.013328	60	10	60-180	60	144	GapExp	0	172	2	3	0	target	0	627	-1000	30700	13.328	12.898	13.766
DTProbeTrack03	11	ProbeTrackDT	1.1	SCS215a	20101117.091923	20101117.093718	dt-generate	8	0.013328	60	10	60-180	60	78	GapExp	0	173	2	3	0	distractor	1	574	713	31413	13.328	13.095	13.573
DTProbeTrack03	11	ProbeTrackDT	1.1	SCS215a	20101117.091923	20101117.093723	dt-generate	8	0.013328	60	10	60-180	60	137	GapExp	0	174	2	1	0	target	0	933	-1000	30413	13.328	12.963	13.696
DTProbeTrack03	11	ProbeTrackDT	1.1	SCS215a	20101117.091923	20101117.093729	dt-generate	8	0.013328	60	10	60-180	60	132	GapExp	0	175	2	6	0	distractor	1	534	733	31146	13.328	12.916	13.751
DTProbeTrack03	11	ProbeTrackDT	1.1	SCS215a	20101117.091923	20101117.093735	dt-generate	8	0.013328	60	10	60-180	60	149	GapExp	0	176	2	3	0	distractor	1	653	674	31820	13.328	13.305	13.348
DTProbeTrack03	11	ProbeTrackDT	1.1	SCS215a	20101117.091923	20101117.093741	dt-generate	8	0.013328	60	10	60-180	60	173	GapExp	0	177	2	9	0	target	0	1027	-1000	30820	13.328	13.098	13.562
DTProbeTrack03	11	ProbeTrackDT	1.1	SCS215a	20101117.091923	20101117.093748	dt-generate	8	0.013328	60	10	60-180	60	73	GapExp	0	178	2	45	0	target	0	920	-1000	29820	13.328	12.918	13.540
DTProbeTrack03	11	ProbeTrackDT	1.1	SCS215a	20101117.091923	20101117.093754	dt-generate	8	0.013328	60	10	60-180	60	92	GapExp	0	179	2	6	0	distractor	1	667	667	30487	13.328	13.106	13.557
DTProbeTrack03	11	ProbeTrackDT	1.1	SCS215a	20101117.091923	20101117.093759	dt-generate	8	0.013328	60	10	60-180	60	137	GapExp	0	180	2	3	0	distractor	1	400	800	31287	13.328	12.844	13.806
DTProbeTrack03	11	ProbeTrackDT	1.1	SCS215a	20101117.091923	20101117.093805	dt-generate	8	0.013328	60	10	60-180	60	99	GapExp	0	181	2	1	0	target	0	1213	-1000	30287	13.328	12.991	13.678
DTProbeTrack03	11	ProbeTrackDT	1.1	SCS215a	20101117.091923	20101117.093811	dt-generate	8	0.013328	60	10	60-180	60	104	GapExp	0	182	2	9	0	distractor	1	1120	440	30727	13.328	13.308	13.348
DTProbeTrack03	11	ProbeTrackDT	1.1	SCS215a	20101117.091923	20101117.093817	dt-generate	8	0.013328	60	10	60-180	60	153	GapExp	0	183	2	9	1	target	1	653	674	31401	13.328	13.071	13.573
DTProbeTrack03	11	ProbeTrackDT	1.1	SCS215a	20101117.091923	20101117.093823	dt-generate	8	0.013328	60	10	60-180	60	105	GapExp	0	184	2	6	1	distractor	0	547	-1000	30401	13.328	12.993	13.657
DTProbeTrack03	11	ProbeTrackDT	1.1	SCS215a	20101117.091923	20101117.093829	dt-generate	8	0.013328	60	10	60-180	60	105	GapExp	0	185	2	6	1	target	1	267	867	31268	13.328	13.113	13.546
DTProbeTrack03	11	ProbeTrackDT	1.1	SCS215a	20101117.091923	20101117.093834	dt-generate	8	0.013328	60	10	60-180	60	127	GapExp	0	186	2	1	0	target	0	520	-1000	30268	13.328	13.310	13.356
DTProbeTrack03	11	ProbeTrackDT	1.1	SCS215a	20101117.091923	20101117.093839	dt-generate	8	0.013328	60	10	60-180	60	77	GapExp	0	187	2	9	1	target	1	454	773	31041	13.328	13.068	13.594
DTProbeTrack03	11	ProbeTrackDT	1.1	SCS215a	20101117.091923	20101117.093844	dt-generate	8	0.013328	60	10	60-180	60	108	GapExp	0	188	2	9	1	target	1	534	733	31774	13.328	13.306	13.356
DTProbeTrack03	11	ProbeTrackDT	1.1	SCS215a	20101117.091923	20101117.093850	dt-generate	8	0.013328	60	10	60-180	60	151	GapExp	0	189	2	9	1	target	1	613	694	32468	13.328	13.080	13.571
DTProbeTrack03	11	ProbeTrackDT	1.1	SCS215a	20101117.091923	20101117.093856	dt-generate	8	0.013328	60	10	60-180	60	92	GapExp	0	190	2	3	0	distractor	1	613	694	33162	13.328	13.104	13.562
DTProbeTrack03	11	ProbeTrackDT	1.1	SCS215a	20101117.091923	20101117.093901	dt-generate	8	0.013328	60	10	60-180	60	132	GapExp	0	191	2	45	0	distractor	1	534	733	33895	13.328	13.105	13.549
DTProbeTrack03	11	ProbeTrackDT	1.1	SCS215a	20101117.091923	20101117.093908	dt-generate	8	0.013328	60	10	60-180	60	150	GapExp	0	192	2	9	1	target	1	653	674	34569	13.328	13.277	13.360
DTProbeTrack03	11	ProbeTrackDT	1.1	SCS215a	20101117.091923	20101117.093914	dt-generate	8	0.013328	60	10	60-180	60	115	GapExp	0	193	2	3	0	distractor	1	600	700	35269	13.328	12.916	13.748
DTProbeTrack03	11	ProbeTrackDT	1.1	SCS215a	20101117.091923	20101117.093920	dt-generate	8	0.013328	60	10	60-180	60	82	GapExp	0	194	2	9	0	target	0	480	-1000	34269	13.328	12.914	13.753
DTProbeTrack03	11	ProbeTrackDT	1.1	SCS215a	20101117.091923	20101117.093925	dt-generate	8	0.013328	60	10	60-180	60	156	GapExp	0	195	2	6	1	target	1	440	780	35049	13.328	12.960	13.698
DTProbeTrack03	11	ProbeTrackDT	1.1	SCS215a	20101117.091923	20101117.093931	dt-generate	8	0.013328	60	10	60-180	60	141	GapExp	0	196	2	1	0	distractor	1	827	587	35636	13.328	12.916	13.744
DTProbeTrack03	11	ProbeTrackDT	1.1	SCS215a	20101117.091923	20101117.093937	dt-generate	8	0.013328	60	10	60-180	60	101	GapExp	0	197	2	9	0	target	0	547	-1000	34636	13.328	13.117	13.544
DTProbeTrack03	11	ProbeTrackDT	1.1	SCS215a	20101117.091923	20101117.093942	dt-generate	8	0.013328	60	10	60-180	60	114	GapExp	0	198	2	45	0	distractor	1	507	747	35383	13.328	13.026	13.623
DTProbeTrack03	11	ProbeTrackDT	1.1	SCS215a	20101117.091923	20101117.093948	dt-generate	8	0.013328	60	10	60-180	60	110	GapExp	0	199	2	1	0	target	0	853	-1000	34383	13.328	12.954	13.705
DTProbeTrack03	11	ProbeTrackDT	1.1	SCS215a	20101117.091923	20101117.093954	dt-generate	8	0.013328	60	10	60-180	60	123	GapExp	0	200	2	6	1	target	1	454	773	35156	13.328	12.990	13.667
DTProbeTrack03	11	ProbeTrackDT	1.1	SCS215a	20101117.091923	20101117.094006	dt-generate	8	0.013328	60	10	60-180	60	102	GapExp	0	201	2	45	0	distractor	1	600	700	35856	13.328	12.884	13.767
DTProbeTrack03	11	ProbeTrackDT	1.1	SCS215a	20101117.091923	20101117.094012	dt-generate	8	0.013328	60	10	60-180	60	153	GapExp	0	202	2	1	0	distractor	1	720	640	36496	13.328	12.851	13.801
DTProbeTrack03	11	ProbeTrackDT	1.1	SCS215a	20101117.091923	20101117.094018	dt-generate	8	0.013328	60	10	60-180	60	102	GapExp	0	203	2	1	1	distractor	0	667	-1000	35496	13.328	12.854	13.796
DTProbeTrack03	11	ProbeTrackDT	1.1	SCS215a	20101117.091923	20101117.094024	dt-generate	8	0.013328	60	10	60-180	60	72	GapExp	0	204	2	6	0	target	0	560	-1000	34496	13.328	13.296	13.349
DTProbeTrack03	11	ProbeTrackDT	1.1	SCS215a	20101117.091923	20101117.094029	dt-generate	8	0.013328	60	10	60-180	60	102	GapExp	0	205	2	3	1	target	1	640	680	35176	13.328	12.894	13.781
DTProbeTrack03	11	ProbeTrackDT	1.1	SCS215a	20101117.094110	20101117.094118	single-task	8	0.013328	60	10	60-180	60	89	GapPrac	1	1	2	1	1	186	-3	653	-1000	34176	13.328	12.864	13.780
DTProbeTrack03	11	ProbeTrackDT	1.1	SCS215a	20101117.094110	20101117.094123	single-task	8	0.013328	60	10	60-180	60	94	GapPrac	1	2	2	3	0	186	-3	1040	-1000	33176	13.328	13.264	13.405
DTProbeTrack03	11	ProbeTrackDT	1.1	SCS215a	20101117.094110	20101117.094129	single-task	8	0.013328	60	10	60-180	60	157	GapPrac	1	3	2	9	0	186	-3	1133	-1000	32176	13.328	12.930	13.712
DTProbeTrack03	11	ProbeTrackDT	1.1	SCS215a	20101117.094110	20101117.094136	single-task	8	0.013328	60	10	60-180	60	98	GapPrac	1	4	2	6	1	target	1	5838	0	32176	13.328	12.956	13.700
DTProbeTrack03	11	ProbeTrackDT	1.1	SCS215a	20101117.094110	20101117.094147	single-task	8	0.013328	60	10	60-180	60	140	GapPrac	1	5	2	45	1	target	1	520	740	32916	13.328	12.900	13.759
DTProbeTrack03	11	ProbeTrackDT	1.1	SCS215a	20101117.094110	20101117.094153	single-task	8	0.013328	60	10	60-180	60	160	GapPrac	1	6	2	9	1	target	1	400	800	33716	13.328	13.102	13.539
DTProbeTrack03	11	ProbeTrackDT	1.1	SCS215a	20101117.094110	20101117.094159	single-task	8	0.013328	60	10	60-180	60	64	GapPrac	1	7	2	6	1	target	1	494	753	34469	13.328	12.850	13.804
DTProbeTrack03	11	ProbeTrackDT	1.1	SCS215a	20101117.094110	20101117.094204	single-task	8	0.013328	60	10	60-180	60	102	GapPrac	1	8	2	3	1	target	1	467	767	35236	13.328	13.164	13.485
DTProbeTrack03	11	ProbeTrackDT	1.1	SCS215a	20101117.094110	20101117.094209	single-task	8	0.013328	60	10	60-180	60	65	GapPrac	1	9	2	45	0	distractor	1	507	747	35983	13.328	12.887	13.782
DTProbeTrack03	11	ProbeTrackDT	1.1	SCS215a	20101117.094110	20101117.094215	single-task	8	0.013328	60	10	60-180	60	68	GapPrac	1	10	2	9	0	distractor	1	547	727	36710	13.328	13.306	13.358
DTProbeTrack03	11	ProbeTrackDT	1.1	SCS215a	20101117.094110	20101117.094220	single-task	8	0.013328	60	10	60-180	60	133	GapPrac	1	11	2	9	1	distractor	0	547	-1000	35710	13.328	12.934	13.720
DTProbeTrack03	11	ProbeTrackDT	1.1	SCS215a	20101117.094110	20101117.094225	single-task	8	0.013328	60	10	60-180	60	102	GapPrac	1	12	2	1	0	target	0	574	-1000	34710	13.328	13.107	13.555
DTProbeTrack03	11	ProbeTrackDT	1.1	SCS215a	20101117.094110	20101117.094231	single-task	8	0.013328	60	10	60-180	60	146	GapPrac	1	13	2	45	1	target	1	574	713	35423	13.328	12.853	13.826
DTProbeTrack03	11	ProbeTrackDT	1.1	SCS215a	20101117.094110	20101117.094237	single-task	8	0.013328	60	10	60-180	60	125	GapPrac	1	14	2	6	0	target	0	587	-1000	34423	13.328	12.860	13.799
DTProbeTrack03	11	ProbeTrackDT	1.1	SCS215a	20101117.094110	20101117.094243	single-task	8	0.013328	60	10	60-180	60	86	GapPrac	1	15	2	1	1	target	1	587	707	35130	13.328	12.986	13.654
DTProbeTrack03	11	ProbeTrackDT	1.1	SCS215a	20101117.094110	20101117.094248	single-task	8	0.013328	60	10	60-180	60	144	GapPrac	1	16	2	3	1	target	1	574	713	35843	13.328	12.907	13.747
DTProbeTrack03	11	ProbeTrackDT	1.1	SCS215a	20101117.094110	20101117.094254	single-task	8	0.013328	60	10	60-180	60	65	GapPrac	1	17	2	45	0	distractor	1	520	740	36583	13.328	13.073	13.595
DTProbeTrack03	11	ProbeTrackDT	1.1	SCS215a	20101117.094110	20101117.094300	single-task	8	0.013328	60	10	60-180	60	70	GapPrac	1	18	2	1	0	distractor	1	614	693	37276	13.328	13.308	13.345
DTProbeTrack03	11	ProbeTrackDT	1.1	SCS215a	20101117.094110	20101117.094305	single-task	8	0.013328	60	10	60-180	60	132	GapPrac	1	19	2	3	0	distractor	1	707	647	37923	13.328	13.302	13.347
DTProbeTrack03	11	ProbeTrackDT	1.1	SCS215a	20101117.094110	20101117.094311	single-task	8	0.013328	60	10	60-180	60	76	GapPrac	1	20	2	6	0	distractor	1	933	534	38457	13.328	12.885	13.785
DTProbeTrack03	11	ProbeTrackDT	1.1	SCS215a	20101117.094352	20101117.094358	single-task	8	0.013327	60	10	60-180	60	119	GapExp	1	1	2	1	0	target	0	773	-1000	37457	13.328	12.923	13.735
DTProbeTrack03	11	ProbeTrackDT	1.1	SCS215a	20101117.094352	20101117.094404	single-task	8	0.013327	60	10	60-180	60	83	GapExp	1	2	2	45	0	distractor	1	587	707	38164	13.328	13.099	13.549
DTProbeTrack03	11	ProbeTrackDT	1.1	SCS215a	20101117.094352	20101117.094410	single-task	8	0.013327	60	10	60-180	60	143	GapExp	1	3	2	9	0	distractor	1	534	733	38897	13.328	12.858	13.801
DTProbeTrack03	11	ProbeTrackDT	1.1	SCS215a	20101117.094352	20101117.094416	single-task	8	0.013327	60	10	60-180	60	84	GapExp	1	4	2	45	1	target	1	560	720	39617	13.328	13.308	13.348
DTProbeTrack03	11	ProbeTrackDT	1.1	SCS215a	20101117.094352	20101117.094422	single-task	8	0.013327	60	10	60-180	60	158	GapExp	1	5	2	3	1	target	1	574	713	40330	13.328	12.862	13.791
DTProbeTrack03	11	ProbeTrackDT	1.1	SCS215a	20101117.094352	20101117.094428	single-task	8	0.013327	60	10	60-180	60	82	GapExp	0	6	2	1	1	target	1	587	707	41037	13.328	13.308	13.348
DTProbeTrack03	11	ProbeTrackDT	1.1	SCS215a	20101117.094352	20101117.094433	single-task	8	0.013327	60	10	60-180	60	141	GapExp	0	7	2	1	0	distractor	1	640	680	41717	13.328	13.111	13.550
DTProbeTrack03	11	ProbeTrackDT	1.1	SCS215a	20101117.094352	20101117.094439	single-task	8	0.013327	60	10	60-180	60	72	GapExp	0	8	2	45	1	target	1	400	800	42517	13.328	13.079	13.583
DTProbeTrack03	11	ProbeTrackDT	1.1	SCS215a	20101117.094352	20101117.094444	single-task	8	0.013327	60	10	60-180	60	115	GapExp	0	9	2	45	1	distractor	0	494	-1000	41517	13.328	13.306	13.348
DTProbeTrack03	11	ProbeTrackDT	1.1	SCS215a	20101117.094352	20101117.094450	single-task	8	0.013327	60	10	60-180	60	101	GapExp	0	10	2	6	0	distractor	1	587	707	42224	13.328	13.299	13.348
DTProbeTrack03	11	ProbeTrackDT	1.1	SCS215a	20101117.094352	20101117.094456	single-task	8	0.013327	60	10	60-180	60	104	GapExp	0	11	2	3	0	target	0	494	-1000	41224	13.328	13.231	13.433
DTProbeTrack03	11	ProbeTrackDT	1.1	SCS215a	20101117.094352	20101117.094501	single-task	8	0.013327	60	10	60-180	60	84	GapExp	0	12	2	1	1	distractor	0	467	-1000	40224	13.328	13.038	13.626
DTProbeTrack03	11	ProbeTrackDT	1.1	SCS215a	20101117.094352	20101117.094506	single-task	8	0.013327	60	10	60-180	60	143	GapExp	0	13	2	1	0	distractor	1	627	687	40911	13.328	13.087	13.558
DTProbeTrack03	11	ProbeTrackDT	1.1	SCS215a	20101117.094352	20101117.094512	single-task	8	0.013327	60	10	60-180	60	106	GapExp	0	14	2	3	1	target	1	480	760	41671	13.328	13.307	13.350
DTProbeTrack03	11	ProbeTrackDT	1.1	SCS215a	20101117.094352	20101117.094518	single-task	8	0.013327	60	10	60-180	60	157	GapExp	0	15	2	6	1	target	1	454	773	42444	13.328	13.015	13.646
DTProbeTrack03	11	ProbeTrackDT	1.1	SCS215a	20101117.094352	20101117.094524	single-task	8	0.013327	60	10	60-180	60	144	GapExp	0	16	2	1	1	target	1	627	687	43131	13.328	12.877	13.759
DTProbeTrack03	11	ProbeTrackDT	1.1	SCS215a	20101117.094352	20101117.094530	single-task	8	0.013327	60	10	60-180	60	167	GapExp	0	17	2	6	0	distractor	1	587	707	43838	13.328	13.084	13.573
DTProbeTrack03	11	ProbeTrackDT	1.1	SCS215a	20101117.094352	20101117.094536	single-task	8	0.013327	60	10	60-180	60	103	GapExp	0	18	2	1	1	target	1	574	713	44551	13.328	12.911	13.744
DTProbeTrack03	11	ProbeTrackDT	1.1	SCS215a	20101117.094352	20101117.094541	single-task	8	0.013327	60	10	60-180	60	93	GapExp	0	19	2	3	0	distractor	1	547	727	45278	13.328	13.024	13.636
DTProbeTrack03	11	ProbeTrackDT	1.1	SCS215a	20101117.094352	20101117.094547	single-task	8	0.013327	60	10	60-180	60	167	GapExp	0	20	2	1	0	distractor	1	560	720	45998	13.328	12.877	13.783
DTProbeTrack03	11	ProbeTrackDT	1.1	SCS215a	20101117.094352	20101117.094553	single-task	8	0.013327	60	10	60-180	60	115	GapExp	0	21	2	9	1	target	1	507	747	46745	13.328	12.914	13.750
DTProbeTrack03	11	ProbeTrackDT	1.1	SCS215a	20101117.094352	20101117.094559	single-task	8	0.013327	60	10	60-180	60	95	GapExp	0	22	2	1	0	distractor	1	587	707	47452	13.328	13.309	13.348
DTProbeTrack03	11	ProbeTrackDT	1.1	SCS215a	20101117.094352	20101117.094604	single-task	8	0.013327	60	10	60-180	60	155	GapExp	0	23	2	3	0	target	0	640	-1000	46452	13.328	12.841	13.819
DTProbeTrack03	11	ProbeTrackDT	1.1	SCS215a	20101117.094352	20101117.094610	single-task	8	0.013327	60	10	60-180	60	106	GapExp	0	24	2	45	1	distractor	0	427	-1000	45452	13.328	13.092	13.566
DTProbeTrack03	11	ProbeTrackDT	1.1	SCS215a	20101117.094352	20101117.094616	single-task	8	0.013327	60	10	60-180	60	111	GapExp	0	25	2	9	1	target	1	627	687	46139	13.328	12.461	14.203
DTProbeTrack03	11	ProbeTrackDT	1.1	SCS215a	20101117.094352	20101117.094622	single-task	8	0.013327	60	10	60-180	60	164	GapExp	0	26	2	6	0	distractor	1	627	687	46826	13.328	13.308	13.348
DTProbeTrack03	11	ProbeTrackDT	1.1	SCS215a	20101117.094352	20101117.094628	single-task	8	0.013327	60	10	60-180	60	166	GapExp	0	27	2	1	1	target	1	520	740	47566	13.328	12.919	13.729
DTProbeTrack03	11	ProbeTrackDT	1.1	SCS215a	20101117.094352	20101117.094634	single-task	8	0.013327	60	10	60-180	60	166	GapExp	0	28	2	45	1	target	1	667	667	48233	13.328	12.938	13.712
DTProbeTrack03	11	ProbeTrackDT	1.1	SCS215a	20101117.094352	20101117.094641	single-task	8	0.013327	60	10	60-180	60	98	GapExp	0	29	2	1	1	target	1	1000	500	48733	13.328	12.873	13.794
DTProbeTrack03	11	ProbeTrackDT	1.1	SCS215a	20101117.094352	20101117.094647	single-task	8	0.013327	60	10	60-180	60	140	GapExp	0	30	2	1	0	distractor	1	733	634	49367	13.328	13.097	13.568
DTProbeTrack03	11	ProbeTrackDT	1.1	SCS215a	20101117.094352	20101117.094653	single-task	8	0.013327	60	10	60-180	60	132	GapExp	0	31	2	6	1	target	1	613	694	50061	13.328	13.090	13.566
DTProbeTrack03	11	ProbeTrackDT	1.1	SCS215a	20101117.094352	20101117.094659	single-task	8	0.013327	60	10	60-180	60	166	GapExp	0	32	2	45	0	distractor	1	360	820	50881	13.328	13.037	13.619
DTProbeTrack03	11	ProbeTrackDT	1.1	SCS215a	20101117.094352	20101117.094706	single-task	8	0.013327	60	10	60-180	60	173	GapExp	0	33	2	3	0	target	0	627	-1000	49881	13.328	13.106	13.542
DTProbeTrack03	11	ProbeTrackDT	1.1	SCS215a	20101117.094352	20101117.094712	single-task	8	0.013327	60	10	60-180	60	95	GapExp	0	34	2	6	1	target	1	534	733	50614	13.328	13.268	13.399
DTProbeTrack03	11	ProbeTrackDT	1.1	SCS215a	20101117.094352	20101117.094717	single-task	8	0.013327	60	10	60-180	60	174	GapExp	0	35	2	1	1	target	1	600	700	51314	13.328	13.308	13.348
DTProbeTrack03	11	ProbeTrackDT	1.1	SCS215a	20101117.094352	20101117.094724	single-task	8	0.013327	60	10	60-180	60	123	GapExp	0	36	2	9	0	distractor	1	454	773	52087	13.328	13.229	13.441
DTProbeTrack03	11	ProbeTrackDT	1.1	SCS215a	20101117.094352	20101117.094729	single-task	8	0.013327	60	10	60-180	60	87	GapExp	0	37	2	9	0	distractor	1	667	667	52754	13.328	13.091	13.562
DTProbeTrack03	11	ProbeTrackDT	1.1	SCS215a	20101117.094352	20101117.094735	single-task	8	0.013327	60	10	60-180	60	149	GapExp	0	38	2	45	0	distractor	1	360	820	53574	13.414	13.089	26.667
DTProbeTrack03	11	ProbeTrackDT	1.1	SCS215a	20101117.094352	20101117.094741	single-task	8	0.013327	60	10	60-180	60	149	GapExp	0	39	2	3	1	distractor	0	627	-1000	52574	13.328	13.112	13.552
DTProbeTrack03	11	ProbeTrackDT	1.1	SCS215a	20101117.094352	20101117.094747	single-task	8	0.013327	60	10	60-180	60	106	GapExp	0	40	2	6	1	distractor	0	547	-1000	51574	13.328	13.100	13.566
DTProbeTrack03	11	ProbeTrackDT	1.1	SCS215a	20101117.094352	20101117.094753	single-task	8	0.013327	60	10	60-180	60	76	GapExp	0	41	2	1	1	target	1	507	747	52321	13.328	13.306	13.358
DTProbeTrack03	11	ProbeTrackDT	1.1	SCS215a	20101117.094352	20101117.094758	single-task	8	0.013327	60	10	60-180	60	104	GapExp	0	42	2	9	1	target	1	520	740	53061	13.328	12.884	13.775
DTProbeTrack03	11	ProbeTrackDT	1.1	SCS215a	20101117.094352	20101117.094803	single-task	8	0.013327	60	10	60-180	60	96	GapExp	0	43	2	45	1	distractor	0	467	-1000	52061	13.328	12.851	13.812
DTProbeTrack03	11	ProbeTrackDT	1.1	SCS215a	20101117.094352	20101117.094809	single-task	8	0.013327	60	10	60-180	60	123	GapExp	0	44	2	45	0	distractor	1	640	680	52741	13.328	13.117	13.534
DTProbeTrack03	11	ProbeTrackDT	1.1	SCS215a	20101117.094352	20101117.094815	single-task	8	0.013327	60	10	60-180	60	177	GapExp	0	45	2	9	1	target	1	574	713	53454	13.328	13.095	13.563
DTProbeTrack03	11	ProbeTrackDT	1.1	SCS215a	20101117.094352	20101117.094822	single-task	8	0.013327	60	10	60-180	60	88	GapExp	0	46	2	1	0	target	0	587	-1000	52454	13.328	12.849	13.816
DTProbeTrack03	11	ProbeTrackDT	1.1	SCS215a	20101117.094352	20101117.094827	single-task	8	0.013327	60	10	60-180	60	85	GapExp	0	47	2	9	1	target	1	494	753	53207	13.328	13.308	13.349
DTProbeTrack03	11	ProbeTrackDT	1.1	SCS215a	20101117.094352	20101117.094832	single-task	8	0.013327	60	10	60-180	60	126	GapExp	0	48	2	1	1	target	1	494	753	53960	13.328	12.964	13.700
DTProbeTrack03	11	ProbeTrackDT	1.1	SCS215a	20101117.094352	20101117.094838	single-task	8	0.013327	60	10	60-180	60	141	GapExp	0	49	2	45	1	target	1	440	780	54740	13.328	13.307	13.346
DTProbeTrack03	11	ProbeTrackDT	1.1	SCS215a	20101117.094352	20101117.094844	single-task	8	0.013327	60	10	60-180	60	83	GapExp	0	50	2	45	1	target	1	467	767	55507	13.328	13.098	13.571
DTProbeTrack03	11	ProbeTrackDT	1.1	SCS215a	20101117.094352	20101117.094854	single-task	8	0.013327	60	10	60-180	60	109	GapExp	0	51	2	9	0	target	0	427	-1000	54507	13.328	13.306	13.350
DTProbeTrack03	11	ProbeTrackDT	1.1	SCS215a	20101117.094352	20101117.094900	single-task	8	0.013327	60	10	60-180	60	91	GapExp	0	52	2	9	0	distractor	1	507	747	55254	13.329	13.106	13.724
DTProbeTrack03	11	ProbeTrackDT	1.1	SCS215a	20101117.094352	20101117.094905	single-task	8	0.013327	60	10	60-180	60	119	GapExp	0	53	2	3	0	distractor	1	560	720	55974	13.328	12.943	13.730
DTProbeTrack03	11	ProbeTrackDT	1.1	SCS215a	20101117.094352	20101117.094911	single-task	8	0.013327	60	10	60-180	60	142	GapExp	0	54	2	6	0	distractor	1	454	773	56747	13.328	13.308	13.346
DTProbeTrack03	11	ProbeTrackDT	1.1	SCS215a	20101117.094352	20101117.094917	single-task	8	0.013327	60	10	60-180	60	140	GapExp	0	55	2	9	0	distractor	1	27	987	57734	13.328	13.071	13.580
DTProbeTrack03	11	ProbeTrackDT	1.1	SCS215a	20101117.094352	20101117.094922	single-task	8	0.013327	60	10	60-180	60	64	GapExp	0	56	2	3	0	target	0	614	-1000	56734	13.328	13.308	13.348
DTProbeTrack03	11	ProbeTrackDT	1.1	SCS215a	20101117.094352	20101117.094927	single-task	8	0.013327	60	10	60-180	60	169	GapExp	0	57	2	3	0	distractor	1	507	747	57481	13.328	13.015	13.647
DTProbeTrack03	11	ProbeTrackDT	1.1	SCS215a	20101117.094352	20101117.094933	single-task	8	0.013327	60	10	60-180	60	95	GapExp	0	58	2	9	1	target	1	574	713	58194	13.328	13.108	13.562
DTProbeTrack03	11	ProbeTrackDT	1.1	SCS215a	20101117.094352	20101117.094939	single-task	8	0.013327	60	10	60-180	60	167	GapExp	0	59	2	6	0	distractor	1	627	687	58881	13.328	13.100	13.560
DTProbeTrack03	11	ProbeTrackDT	1.1	SCS215a	20101117.094352	20101117.094945	single-task	8	0.013327	60	10	60-180	60	134	GapExp	0	60	2	3	0	distractor	1	547	727	59608	13.328	13.308	13.346
DTProbeTrack03	11	ProbeTrackDT	1.1	SCS215a	20101117.094352	20101117.094951	single-task	8	0.013327	60	10	60-180	60	88	GapExp	0	61	2	9	1	target	1	720	640	60248	13.328	13.304	13.355
DTProbeTrack03	11	ProbeTrackDT	1.1	SCS215a	20101117.094352	20101117.094956	single-task	8	0.013327	60	10	60-180	60	78	GapExp	0	62	2	45	1	distractor	0	387	-1000	59248	13.328	13.310	13.350
DTProbeTrack03	11	ProbeTrackDT	1.1	SCS215a	20101117.094352	20101117.095002	single-task	8	0.013327	60	10	60-180	60	93	GapExp	0	63	2	1	0	target	0	600	-1000	58248	13.328	13.102	13.554
DTProbeTrack03	11	ProbeTrackDT	1.1	SCS215a	20101117.094352	20101117.095007	single-task	8	0.013327	60	10	60-180	60	118	GapExp	0	64	2	9	0	distractor	1	654	673	58921	13.328	12.902	13.747
DTProbeTrack03	11	ProbeTrackDT	1.1	SCS215a	20101117.094352	20101117.095013	single-task	8	0.013327	60	10	60-180	60	129	GapExp	0	65	2	3	0	target	0	760	-1000	57921	13.328	13.304	13.347
DTProbeTrack03	11	ProbeTrackDT	1.1	SCS215a	20101117.094352	20101117.095019	single-task	8	0.013327	60	10	60-180	60	151	GapExp	0	66	2	9	0	distractor	1	574	713	58634	13.328	13.308	13.349
DTProbeTrack03	11	ProbeTrackDT	1.1	SCS215a	20101117.094352	20101117.095025	single-task	8	0.013327	60	10	60-180	60	80	GapExp	0	67	2	45	0	distractor	1	774	613	59247	13.328	12.902	13.738
DTProbeTrack03	11	ProbeTrackDT	1.1	SCS215a	20101117.094352	20101117.095031	single-task	8	0.013327	60	10	60-180	60	131	GapExp	0	68	2	6	0	distractor	1	667	667	59914	13.328	13.089	13.562
DTProbeTrack03	11	ProbeTrackDT	1.1	SCS215a	20101117.094352	20101117.095037	single-task	8	0.013327	60	10	60-180	60	77	GapExp	0	69	2	3	0	distractor	1	574	713	60627	13.328	12.893	13.762
DTProbeTrack03	11	ProbeTrackDT	1.1	SCS215a	20101117.094352	20101117.095042	single-task	8	0.013327	60	10	60-180	60	154	GapExp	0	70	2	45	1	target	1	360	820	61447	13.328	13.089	13.561
DTProbeTrack03	11	ProbeTrackDT	1.1	SCS215a	20101117.094352	20101117.095048	single-task	8	0.013327	60	10	60-180	60	155	GapExp	0	71	2	1	0	distractor	1	547	727	62174	13.328	13.193	13.470
DTProbeTrack03	11	ProbeTrackDT	1.1	SCS215a	20101117.094352	20101117.095054	single-task	8	0.013327	60	10	60-180	60	71	GapExp	0	72	2	45	1	distractor	0	547	-1000	61174	13.328	12.879	13.779
DTProbeTrack03	11	ProbeTrackDT	1.1	SCS215a	20101117.094352	20101117.095100	single-task	8	0.013327	60	10	60-180	60	166	GapExp	0	73	2	9	1	target	1	494	753	61927	13.328	13.305	13.345
DTProbeTrack03	11	ProbeTrackDT	1.1	SCS215a	20101117.094352	20101117.095106	single-task	8	0.013327	60	10	60-180	60	115	GapExp	0	74	2	3	1	distractor	0	534	-1000	60927	13.328	13.093	13.554
DTProbeTrack03	11	ProbeTrackDT	1.1	SCS215a	20101117.094352	20101117.095112	single-task	8	0.013327	60	10	60-180	60	100	GapExp	0	75	2	3	1	target	1	574	713	61640	13.328	13.098	13.546
DTProbeTrack03	11	ProbeTrackDT	1.1	SCS215a	20101117.094352	20101117.095117	single-task	8	0.013327	60	10	60-180	60	98	GapExp	0	76	2	6	1	distractor	0	454	-1000	60640	13.328	13.309	13.348
DTProbeTrack03	11	ProbeTrackDT	1.1	SCS215a	20101117.094352	20101117.095122	single-task	8	0.013327	60	10	60-180	60	100	GapExp	0	77	2	3	0	distractor	1	480	760	61400	13.328	12.882	13.771
DTProbeTrack03	11	ProbeTrackDT	1.1	SCS215a	20101117.094352	20101117.095128	single-task	8	0.013327	60	10	60-180	60	142	GapExp	0	78	2	45	1	target	1	307	847	62247	13.328	12.838	13.803
DTProbeTrack03	11	ProbeTrackDT	1.1	SCS215a	20101117.094352	20101117.095134	single-task	8	0.013327	60	10	60-180	60	99	GapExp	0	79	2	6	0	distractor	1	440	780	63027	13.328	13.098	13.559
DTProbeTrack03	11	ProbeTrackDT	1.1	SCS215a	20101117.094352	20101117.095139	single-task	8	0.013327	60	10	60-180	60	171	GapExp	0	80	2	3	1	target	1	427	787	63814	13.328	12.913	13.756
DTProbeTrack03	11	ProbeTrackDT	1.1	SCS215a	20101117.094352	20101117.095145	single-task	8	0.013327	60	10	60-180	60	66	GapExp	0	81	2	1	1	target	1	547	727	64541	13.328	12.852	13.793
DTProbeTrack03	11	ProbeTrackDT	1.1	SCS215a	20101117.094352	20101117.095150	single-task	8	0.013327	60	10	60-180	60	109	GapExp	0	82	2	45	0	distractor	1	480	760	65301	13.328	13.303	13.356
DTProbeTrack03	11	ProbeTrackDT	1.1	SCS215a	20101117.094352	20101117.095156	single-task	8	0.013327	60	10	60-180	60	161	GapExp	0	83	2	3	0	distractor	1	480	760	66061	13.328	12.907	13.744
DTProbeTrack03	11	ProbeTrackDT	1.1	SCS215a	20101117.094352	20101117.095202	single-task	8	0.013327	60	10	60-180	60	73	GapExp	0	84	2	45	0	distractor	1	387	807	66868	13.328	13.195	13.478
DTProbeTrack03	11	ProbeTrackDT	1.1	SCS215a	20101117.094352	20101117.095208	single-task	8	0.013327	60	10	60-180	60	114	GapExp	0	85	2	1	0	distractor	1	560	720	67588	13.328	13.115	13.549
DTProbeTrack03	11	ProbeTrackDT	1.1	SCS215a	20101117.094352	20101117.095213	single-task	8	0.013327	60	10	60-180	60	127	GapExp	0	86	2	45	0	target	0	414	-1000	66588	13.328	13.100	13.561
DTProbeTrack03	11	ProbeTrackDT	1.1	SCS215a	20101117.094352	20101117.095220	single-task	8	0.013327	60	10	60-180	60	134	GapExp	0	87	2	9	0	distractor	1	574	713	67301	13.328	12.878	13.785
DTProbeTrack03	11	ProbeTrackDT	1.1	SCS215a	20101117.094352	20101117.095225	single-task	8	0.013327	60	10	60-180	60	146	GapExp	0	88	2	9	0	distractor	1	560	720	68021	13.328	12.904	13.745
DTProbeTrack03	11	ProbeTrackDT	1.1	SCS215a	20101117.094352	20101117.095232	single-task	8	0.013327	60	10	60-180	60	106	GapExp	0	89	2	1	0	distractor	1	520	740	68761	13.328	13.308	13.348
DTProbeTrack03	11	ProbeTrackDT	1.1	SCS215a	20101117.094352	20101117.095237	single-task	8	0.013327	60	10	60-180	60	135	GapExp	0	90	2	45	1	distractor	0	440	-1000	67761	13.328	13.114	13.540
DTProbeTrack03	11	ProbeTrackDT	1.1	SCS215a	20101117.094352	20101117.095243	single-task	8	0.013327	60	10	60-180	60	112	GapExp	0	91	2	9	0	target	0	1360	-1000	66761	13.328	12.921	13.727
DTProbeTrack03	11	ProbeTrackDT	1.1	SCS215a	20101117.094352	20101117.095250	single-task	8	0.013327	60	10	60-180	60	113	GapExp	0	92	2	3	1	target	1	560	720	67481	13.328	12.989	13.679
DTProbeTrack03	11	ProbeTrackDT	1.1	SCS215a	20101117.094352	20101117.095255	single-task	8	0.013327	60	10	60-180	60	131	GapExp	0	93	2	45	1	target	1	507	747	68228	13.328	13.105	13.545
DTProbeTrack03	11	ProbeTrackDT	1.1	SCS215a	20101117.094352	20101117.095301	single-task	8	0.013327	60	10	60-180	60	78	GapExp	0	94	2	3	0	target	0	495	-1000	67228	13.328	12.867	13.792
DTProbeTrack03	11	ProbeTrackDT	1.1	SCS215a	20101117.094352	20101117.095306	single-task	8	0.013327	60	10	60-180	60	68	GapExp	0	95	2	3	1	target	1	560	720	67948	13.328	13.297	13.351
DTProbeTrack03	11	ProbeTrackDT	1.1	SCS215a	20101117.094352	20101117.095311	single-task	8	0.013327	60	10	60-180	60	176	GapExp	0	96	2	3	0	distractor	1	640	680	68628	13.328	13.087	13.563
DTProbeTrack03	11	ProbeTrackDT	1.1	SCS215a	20101117.094352	20101117.095318	single-task	8	0.013327	60	10	60-180	60	126	GapExp	0	97	2	6	0	target	0	520	-1000	67628	13.328	12.973	13.686
DTProbeTrack03	11	ProbeTrackDT	1.1	SCS215a	20101117.094352	20101117.095323	single-task	8	0.013327	60	10	60-180	60	113	GapExp	0	98	2	3	1	target	1	507	747	68375	13.328	13.087	13.558
DTProbeTrack03	11	ProbeTrackDT	1.1	SCS215a	20101117.094352	20101117.095329	single-task	8	0.013327	60	10	60-180	60	104	GapExp	0	99	2	1	0	distractor	1	494	753	69128	13.328	13.305	13.346
DTProbeTrack03	11	ProbeTrackDT	1.1	SCS215a	20101117.094352	20101117.095334	single-task	8	0.013327	60	10	60-180	60	100	GapExp	0	100	2	3	1	target	1	400	800	69928	13.328	12.918	13.752
DTProbeTrack03	11	ProbeTrackDT	1.1	SCS215a	20101117.094352	20101117.095344	single-task	8	0.013327	60	10	60-180	60	136	GapExp	0	101	2	1	1	distractor	0	467	-1000	68928	13.328	13.097	13.552
DTProbeTrack03	11	ProbeTrackDT	1.1	SCS215a	20101117.094352	20101117.095350	single-task	8	0.013327	60	10	60-180	60	144	GapExp	0	102	2	9	0	target	0	427	-1000	67928	13.328	13.057	13.592
DTProbeTrack03	11	ProbeTrackDT	1.1	SCS215a	20101117.094352	20101117.095356	single-task	8	0.013327	60	10	60-180	60	162	GapExp	0	103	2	45	0	distractor	1	587	707	68635	13.328	13.074	13.565
DTProbeTrack03	11	ProbeTrackDT	1.1	SCS215a	20101117.094352	20101117.095403	single-task	8	0.013327	60	10	60-180	60	81	GapExp	0	104	2	6	0	distractor	1	494	753	69388	13.328	13.309	13.346
DTProbeTrack03	11	ProbeTrackDT	1.1	SCS215a	20101117.094352	20101117.095408	single-task	8	0.013327	60	10	60-180	60	131	GapExp	0	105	2	6	0	distractor	1	760	620	70008	13.328	13.098	13.552
DTProbeTrack03	11	ProbeTrackDT	1.1	SCS215a	20101117.094352	20101117.095414	single-task	8	0.013327	60	10	60-180	60	79	GapExp	0	106	2	9	0	distractor	1	534	733	70741	13.328	13.307	13.352
DTProbeTrack03	11	ProbeTrackDT	1.1	SCS215a	20101117.094352	20101117.095419	single-task	8	0.013327	60	10	60-180	60	70	GapExp	0	107	2	6	0	distractor	1	494	753	71494	13.328	12.961	13.677
DTProbeTrack03	11	ProbeTrackDT	1.1	SCS215a	20101117.094352	20101117.095424	single-task	8	0.013327	60	10	60-180	60	136	GapExp	0	108	2	6	1	target	1	467	767	72261	13.328	12.916	13.722
DTProbeTrack03	11	ProbeTrackDT	1.1	SCS215a	20101117.094352	20101117.095430	single-task	8	0.013327	60	10	60-180	60	85	GapExp	0	109	2	6	1	distractor	0	627	-1000	71261	13.328	12.856	13.793
DTProbeTrack03	11	ProbeTrackDT	1.1	SCS215a	20101117.094352	20101117.095435	single-task	8	0.013327	60	10	60-180	60	166	GapExp	0	110	2	6	0	distractor	1	587	707	71968	13.328	12.906	13.746
DTProbeTrack03	11	ProbeTrackDT	1.1	SCS215a	20101117.094352	20101117.095441	single-task	8	0.013327	60	10	60-180	60	68	GapExp	0	111	2	45	0	distractor	1	454	773	72741	13.328	12.972	13.686
DTProbeTrack03	11	ProbeTrackDT	1.1	SCS215a	20101117.094352	20101117.095447	single-task	8	0.013327	60	10	60-180	60	113	GapExp	0	112	2	45	0	distractor	1	667	667	73408	13.328	13.105	13.543
DTProbeTrack03	11	ProbeTrackDT	1.1	SCS215a	20101117.094352	20101117.095453	single-task	8	0.013327	60	10	60-180	60	68	GapExp	0	113	2	3	1	target	1	534	733	74141	13.328	13.308	13.343
DTProbeTrack03	11	ProbeTrackDT	1.1	SCS215a	20101117.094352	20101117.095458	single-task	8	0.013327	60	10	60-180	60	65	GapExp	0	114	2	9	1	target	1	467	767	74908	13.328	13.209	13.463
DTProbeTrack03	11	ProbeTrackDT	1.1	SCS215a	20101117.094352	20101117.095503	single-task	8	0.013327	60	10	60-180	60	170	GapExp	0	115	2	9	1	target	1	440	780	75688	13.328	13.089	13.588
DTProbeTrack03	11	ProbeTrackDT	1.1	SCS215a	20101117.094352	20101117.095509	single-task	8	0.013327	60	10	60-180	60	134	GapExp	0	116	2	3	1	target	1	494	753	76441	13.328	12.871	13.780
DTProbeTrack03	11	ProbeTrackDT	1.1	SCS215a	20101117.094352	20101117.095515	single-task	8	0.013327	60	10	60-180	60	135	GapExp	0	117	2	9	1	target	1	334	833	77274	13.328	13.307	13.347
DTProbeTrack03	11	ProbeTrackDT	1.1	SCS215a	20101117.094352	20101117.095520	single-task	8	0.013327	60	10	60-180	60	118	GapExp	0	118	2	45	0	distractor	1	574	713	77987	13.328	13.307	13.358
DTProbeTrack03	11	ProbeTrackDT	1.1	SCS215a	20101117.094352	20101117.095526	single-task	8	0.013327	60	10	60-180	60	144	GapExp	0	119	2	6	1	target	1	560	720	78707	13.328	12.981	13.677
DTProbeTrack03	11	ProbeTrackDT	1.1	SCS215a	20101117.094352	20101117.095532	single-task	8	0.013327	60	10	60-180	60	152	GapExp	0	120	2	6	1	target	1	534	733	79440	13.328	12.922	13.720
DTProbeTrack03	11	ProbeTrackDT	1.1	SCS215a	20101117.094352	20101117.095538	single-task	8	0.013327	60	10	60-180	60	98	GapExp	0	121	2	9	0	distractor	1	574	713	80153	13.328	12.852	13.814
DTProbeTrack03	11	ProbeTrackDT	1.1	SCS215a	20101117.094352	20101117.095544	single-task	8	0.013327	60	10	60-180	60	162	GapExp	0	122	2	1	0	target	0	787	-1000	79153	13.328	12.942	13.716
DTProbeTrack03	11	ProbeTrackDT	1.1	SCS215a	20101117.094352	20101117.095550	single-task	8	0.013327	60	10	60-180	60	75	GapExp	0	123	2	1	1	target	1	480	760	79913	13.328	13.083	13.589
DTProbeTrack03	11	ProbeTrackDT	1.1	SCS215a	20101117.094352	20101117.095555	single-task	8	0.013327	60	10	60-180	60	65	GapExp	0	124	2	3	1	distractor	0	467	-1000	78913	13.328	13.309	13.352
DTProbeTrack03	11	ProbeTrackDT	1.1	SCS215a	20101117.094352	20101117.095600	single-task	8	0.013327	60	10	60-180	60	75	GapExp	0	125	2	9	1	target	1	320	840	79753	13.328	12.934	13.711
DTProbeTrack03	11	ProbeTrackDT	1.1	SCS215a	20101117.094352	20101117.095605	single-task	8	0.013327	60	10	60-180	60	107	GapExp	0	126	2	45	0	distractor	1	507	747	80500	13.424	12.908	26.683
DTProbeTrack03	11	ProbeTrackDT	1.1	SCS215a	20101117.094352	20101117.095611	single-task	8	0.013327	60	10	60-180	60	112	GapExp	0	127	2	6	0	target	0	440	-1000	79500	13.328	13.059	13.594
DTProbeTrack03	11	ProbeTrackDT	1.1	SCS215a	20101117.094352	20101117.095616	single-task	8	0.013327	60	10	60-180	60	109	GapExp	0	128	2	9	0	distractor	1	520	740	80240	13.328	12.953	13.707
DTProbeTrack03	11	ProbeTrackDT	1.1	SCS215a	20101117.094352	20101117.095622	single-task	8	0.013327	60	10	60-180	60	104	GapExp	0	129	2	6	1	target	1	454	773	81013	13.328	13.307	13.349
DTProbeTrack03	11	ProbeTrackDT	1.1	SCS215a	20101117.094352	20101117.095627	single-task	8	0.013327	60	10	60-180	60	159	GapExp	0	130	2	6	1	target	1	387	807	81820	13.328	13.296	13.357
DTProbeTrack03	11	ProbeTrackDT	1.1	SCS215a	20101117.094352	20101117.095633	single-task	8	0.013327	60	10	60-180	60	161	GapExp	0	131	2	6	0	target	0	440	-1000	80820	13.328	13.100	13.542
DTProbeTrack03	11	ProbeTrackDT	1.1	SCS215a	20101117.094352	20101117.095639	single-task	8	0.013327	60	10	60-180	60	162	GapExp	0	132	2	6	1	target	1	534	733	81553	13.328	13.088	13.571
DTProbeTrack03	11	ProbeTrackDT	1.1	SCS215a	20101117.094352	20101117.095645	single-task	8	0.013327	60	10	60-180	60	69	GapExp	0	133	2	1	0	distractor	1	614	693	82246	13.328	12.894	13.754
DTProbeTrack03	11	ProbeTrackDT	1.1	SCS215a	20101117.094352	20101117.095650	single-task	8	0.013327	60	10	60-180	60	136	GapExp	0	134	2	1	0	distractor	1	547	727	82973	13.328	13.308	13.353
DTProbeTrack03	11	ProbeTrackDT	1.1	SCS215a	20101117.094352	20101117.095656	single-task	8	0.013327	60	10	60-180	60	73	GapExp	0	135	2	6	0	distractor	1	600	700	83673	13.328	13.041	13.601
DTProbeTrack03	11	ProbeTrackDT	1.1	SCS215a	20101117.094352	20101117.095701	single-task	8	0.013327	60	10	60-180	60	126	GapExp	0	136	2	3	1	distractor	0	307	-1000	82673	13.328	13.098	13.565
DTProbeTrack03	11	ProbeTrackDT	1.1	SCS215a	20101117.094352	20101117.095707	single-task	8	0.013327	60	10	60-180	60	93	GapExp	0	137	2	9	0	target	0	547	-1000	81673	13.328	12.906	13.752
DTProbeTrack03	11	ProbeTrackDT	1.1	SCS215a	20101117.094352	20101117.095712	single-task	8	0.013327	60	10	60-180	60	155	GapExp	0	138	2	45	1	target	1	454	773	82446	13.328	13.075	13.572
DTProbeTrack03	11	ProbeTrackDT	1.1	SCS215a	20101117.094352	20101117.095719	single-task	8	0.013327	60	10	60-180	60	84	GapExp	0	139	2	3	1	target	1	613	694	83140	13.328	13.252	13.397
DTProbeTrack03	11	ProbeTrackDT	1.1	SCS215a	20101117.094352	20101117.095724	single-task	8	0.013327	60	10	60-180	60	67	GapExp	0	140	2	1	1	target	1	560	720	83860	13.328	12.903	13.764
DTProbeTrack03	11	ProbeTrackDT	1.1	SCS215a	20101117.094352	20101117.095729	single-task	8	0.013327	60	10	60-180	60	145	GapExp	0	141	2	3	0	target	0	480	-1000	82860	13.328	13.308	13.355
DTProbeTrack03	11	ProbeTrackDT	1.1	SCS215a	20101117.094352	20101117.095735	single-task	8	0.013327	60	10	60-180	60	158	GapExp	0	142	2	45	1	distractor	0	334	-1000	81860	13.328	12.846	13.815
DTProbeTrack03	11	ProbeTrackDT	1.1	SCS215a	20101117.094352	20101117.095741	single-task	8	0.013327	60	10	60-180	60	150	GapExp	0	143	2	9	0	distractor	1	613	694	82554	13.328	13.080	13.572
DTProbeTrack03	11	ProbeTrackDT	1.1	SCS215a	20101117.094352	20101117.095747	single-task	8	0.013327	60	10	60-180	60	113	GapExp	0	144	2	9	1	target	1	560	720	83274	13.328	13.188	13.459
DTProbeTrack03	11	ProbeTrackDT	1.1	SCS215a	20101117.094352	20101117.095753	single-task	8	0.013327	60	10	60-180	60	180	GapExp	0	145	2	1	1	target	1	547	727	84001	13.328	13.307	13.346
DTProbeTrack03	11	ProbeTrackDT	1.1	SCS215a	20101117.094352	20101117.095759	single-task	8	0.013327	60	10	60-180	60	170	GapExp	0	146	2	6	1	target	1	467	767	84768	13.328	13.086	13.583
DTProbeTrack03	11	ProbeTrackDT	1.1	SCS215a	20101117.094352	20101117.095805	single-task	8	0.013327	60	10	60-180	60	125	GapExp	0	147	2	3	1	target	1	520	740	85508	13.328	13.308	13.349
DTProbeTrack03	11	ProbeTrackDT	1.1	SCS215a	20101117.094352	20101117.095811	single-task	8	0.013327	60	10	60-180	60	115	GapExp	0	148	2	45	1	target	1	587	707	86215	13.328	12.849	13.797
DTProbeTrack03	11	ProbeTrackDT	1.1	SCS215a	20101117.094352	20101117.095817	single-task	8	0.013327	60	10	60-180	60	173	GapExp	0	149	2	45	0	distractor	1	520	740	86955	13.328	12.965	13.686
DTProbeTrack03	11	ProbeTrackDT	1.1	SCS215a	20101117.094352	20101117.095824	single-task	8	0.013327	60	10	60-180	60	130	GapExp	0	150	2	6	1	target	1	520	740	87695	13.328	13.098	13.558
DTProbeTrack03	11	ProbeTrackDT	1.1	SCS215a	20101117.094352	20101117.095835	single-task	8	0.013327	60	10	60-180	60	94	GapExp	0	151	2	1	0	distractor	1	560	720	88415	13.328	13.308	13.347
DTProbeTrack03	11	ProbeTrackDT	1.1	SCS215a	20101117.094352	20101117.095840	single-task	8	0.013327	60	10	60-180	60	112	GapExp	0	152	2	1	0	distractor	1	494	753	89168	13.328	13.156	13.506
DTProbeTrack03	11	ProbeTrackDT	1.1	SCS215a	20101117.094352	20101117.095845	single-task	8	0.013327	60	10	60-180	60	180	GapExp	0	153	2	3	1	target	1	547	727	89895	13.328	13.051	13.618
DTProbeTrack03	11	ProbeTrackDT	1.1	SCS215a	20101117.094352	20101117.095852	single-task	8	0.013327	60	10	60-180	60	156	GapExp	0	154	2	9	1	target	1	507	747	90642	13.328	12.940	13.711
DTProbeTrack03	11	ProbeTrackDT	1.1	SCS215a	20101117.094352	20101117.095858	single-task	8	0.013327	60	10	60-180	60	93	GapExp	0	155	2	45	1	distractor	0	440	-1000	89642	13.328	13.115	13.537
DTProbeTrack03	11	ProbeTrackDT	1.1	SCS215a	20101117.094352	20101117.095903	single-task	8	0.013327	60	10	60-180	60	146	GapExp	0	156	2	45	0	distractor	1	507	747	90389	13.328	13.008	13.669
DTProbeTrack03	11	ProbeTrackDT	1.1	SCS215a	20101117.094352	20101117.095910	single-task	8	0.013327	60	10	60-180	60	138	GapExp	0	157	2	3	1	target	1	627	687	91076	13.328	12.914	13.744
DTProbeTrack03	11	ProbeTrackDT	1.1	SCS215a	20101117.094352	20101117.095916	single-task	8	0.013327	60	10	60-180	60	176	GapExp	0	158	2	9	1	target	1	494	753	91829	13.328	12.844	13.805
DTProbeTrack03	11	ProbeTrackDT	1.1	SCS215a	20101117.094352	20101117.095922	single-task	8	0.013327	60	10	60-180	60	141	GapExp	0	159	2	1	1	target	1	480	760	92589	13.328	13.015	13.651
DTProbeTrack03	11	ProbeTrackDT	1.1	SCS215a	20101117.094352	20101117.095928	single-task	8	0.013327	60	10	60-180	60	94	GapExp	0	160	2	6	0	distractor	1	494	753	93342	13.328	13.096	13.547
DTProbeTrack03	11	ProbeTrackDT	1.1	SCS215a	20101117.094352	20101117.095933	single-task	8	0.013327	60	10	60-180	60	84	GapExp	0	161	2	9	1	target	1	480	760	94102	13.328	13.306	13.348
DTProbeTrack03	11	ProbeTrackDT	1.1	SCS215a	20101117.094352	20101117.095938	single-task	8	0.013327	60	10	60-180	60	80	GapExp	0	162	2	3	0	target	0	547	-1000	93102	13.328	13.026	13.636
DTProbeTrack03	11	ProbeTrackDT	1.1	SCS215a	20101117.094352	20101117.095943	single-task	8	0.013327	60	10	60-180	60	139	GapExp	0	163	2	6	0	target	0	573	-1000	92102	13.376	13.097	26.653
DTProbeTrack03	11	ProbeTrackDT	1.1	SCS215a	20101117.094352	20101117.095949	single-task	8	0.013327	60	10	60-180	60	118	GapExp	0	164	2	3	0	distractor	1	640	680	92782	13.432	12.853	26.803
DTProbeTrack03	11	ProbeTrackDT	1.1	SCS215a	20101117.094352	20101117.095955	single-task	8	0.013327	60	10	60-180	60	139	GapExp	0	165	2	3	0	distractor	1	613	694	93476	13.328	13.087	13.572
DTProbeTrack03	11	ProbeTrackDT	1.1	SCS215a	20101117.094352	20101117.100001	single-task	8	0.013327	60	10	60-180	60	70	GapExp	0	166	2	6	1	target	1	454	773	94249	13.328	13.306	13.353
DTProbeTrack03	11	ProbeTrackDT	1.1	SCS215a	20101117.094352	20101117.100006	single-task	8	0.013327	60	10	60-180	60	148	GapExp	0	167	2	9	1	distractor	0	414	-1000	93249	13.328	13.308	13.347
DTProbeTrack03	11	ProbeTrackDT	1.1	SCS215a	20101117.094352	20101117.100012	single-task	8	0.013327	60	10	60-180	60	117	GapExp	0	168	2	45	1	target	1	507	747	93996	13.328	12.920	13.723
DTProbeTrack03	11	ProbeTrackDT	1.1	SCS215a	20101117.094352	20101117.100018	single-task	8	0.013327	60	10	60-180	60	150	GapExp	0	169	2	1	1	target	1	507	747	94743	13.328	12.895	13.770
DTProbeTrack03	11	ProbeTrackDT	1.1	SCS215a	20101117.094352	20101117.100024	single-task	8	0.013327	60	10	60-180	60	177	GapExp	0	170	2	45	1	target	1	414	793	95536	13.328	12.865	13.813
DTProbeTrack03	11	ProbeTrackDT	1.1	SCS215a	20101117.094352	20101117.100031	single-task	8	0.013327	60	10	60-180	60	119	GapExp	0	171	2	1	0	distractor	1	787	607	96143	13.328	13.076	13.587
DTProbeTrack03	11	ProbeTrackDT	1.1	SCS215a	20101117.094352	20101117.100037	single-task	8	0.013327	60	10	60-180	60	145	GapExp	0	172	2	3	1	target	1	466	767	96910	13.328	12.934	13.735
DTProbeTrack03	11	ProbeTrackDT	1.1	SCS215a	20101117.094352	20101117.100043	single-task	8	0.013327	60	10	60-180	60	137	GapExp	0	173	2	6	0	distractor	1	307	847	97757	13.328	13.243	13.428
DTProbeTrack03	11	ProbeTrackDT	1.1	SCS215a	20101117.094352	20101117.100048	single-task	8	0.013327	60	10	60-180	60	75	GapExp	0	174	2	3	0	target	0	507	-1000	96757	13.328	13.308	13.348
DTProbeTrack03	11	ProbeTrackDT	1.1	SCS215a	20101117.094352	20101117.100053	single-task	8	0.013327	60	10	60-180	60	125	GapExp	0	175	2	45	0	distractor	1	613	694	97451	13.328	13.308	13.346
DTProbeTrack03	11	ProbeTrackDT	1.1	SCS215a	20101117.094352	20101117.100100	single-task	8	0.013327	60	10	60-180	60	79	GapExp	0	176	2	6	1	target	1	534	733	98184	13.328	12.856	13.810
DTProbeTrack03	11	ProbeTrackDT	1.1	SCS215a	20101117.094352	20101117.100105	single-task	8	0.013327	60	10	60-180	60	147	GapExp	0	177	2	6	0	distractor	1	693	654	98838	13.328	12.862	13.791
DTProbeTrack03	11	ProbeTrackDT	1.1	SCS215a	20101117.094352	20101117.100111	single-task	8	0.013327	60	10	60-180	60	124	GapExp	0	178	2	1	0	distractor	1	427	787	99625	13.328	13.308	13.348
DTProbeTrack03	11	ProbeTrackDT	1.1	SCS215a	20101117.094352	20101117.100116	single-task	8	0.013327	60	10	60-180	60	176	GapExp	0	179	2	9	0	distractor	1	427	787	100412	13.328	12.952	13.705
DTProbeTrack03	11	ProbeTrackDT	1.1	SCS215a	20101117.094352	20101117.100123	single-task	8	0.013327	60	10	60-180	60	104	GapExp	0	180	2	3	1	target	1	587	707	101119	13.328	13.280	13.379
DTProbeTrack03	11	ProbeTrackDT	1.1	SCS215a	20101117.094352	20101117.100128	single-task	8	0.013327	60	10	60-180	60	68	GapExp	0	181	2	45	1	target	1	667	667	101786	13.328	13.092	13.563
DTProbeTrack03	11	ProbeTrackDT	1.1	SCS215a	20101117.094352	20101117.100134	single-task	8	0.013327	60	10	60-180	60	90	GapExp	0	182	2	9	1	target	1	440	780	102566	13.328	12.963	13.684
DTProbeTrack03	11	ProbeTrackDT	1.1	SCS215a	20101117.094352	20101117.100139	single-task	8	0.013327	60	10	60-180	60	103	GapExp	0	183	2	9	0	target	0	494	-1000	101566	13.328	13.307	13.352
DTProbeTrack03	11	ProbeTrackDT	1.1	SCS215a	20101117.094352	20101117.100144	single-task	8	0.013327	60	10	60-180	60	130	GapExp	0	184	2	9	1	target	1	494	753	102319	13.328	12.918	13.751
DTProbeTrack03	11	ProbeTrackDT	1.1	SCS215a	20101117.094352	20101117.100150	single-task	8	0.013327	60	10	60-180	60	93	GapExp	0	185	2	9	0	distractor	1	534	733	103052	13.328	13.110	13.542
DTProbeTrack03	11	ProbeTrackDT	1.1	SCS215a	20101117.094352	20101117.100156	single-task	8	0.013327	60	10	60-180	60	80	GapExp	0	186	2	3	0	target	0	614	-1000	102052	13.328	13.023	13.647
DTProbeTrack03	11	ProbeTrackDT	1.1	SCS215a	20101117.094352	20101117.100201	single-task	8	0.013327	60	10	60-180	60	135	GapExp	0	187	2	9	1	target	1	614	693	102745	13.328	13.113	13.557
DTProbeTrack03	11	ProbeTrackDT	1.1	SCS215a	20101117.094352	20101117.100207	single-task	8	0.013327	60	10	60-180	60	150	GapExp	0	188	2	45	0	distractor	1	560	720	103465	13.328	12.865	13.804
DTProbeTrack03	11	ProbeTrackDT	1.1	SCS215a	20101117.094352	20101117.100213	single-task	8	0.013327	60	10	60-180	60	114	GapExp	0	189	2	6	1	target	1	587	707	104172	13.328	13.075	13.572
DTProbeTrack03	11	ProbeTrackDT	1.1	SCS215a	20101117.094352	20101117.100219	single-task	8	0.013327	60	10	60-180	60	130	GapExp	0	190	2	6	1	target	1	560	720	104892	13.328	13.011	13.648
DTProbeTrack03	11	ProbeTrackDT	1.1	SCS215a	20101117.094352	20101117.100225	single-task	8	0.013327	60	10	60-180	60	84	GapExp	0	191	2	1	1	target	1	613	694	105586	13.328	13.097	13.569
DTProbeTrack03	11	ProbeTrackDT	1.1	SCS215a	20101117.094352	20101117.100230	single-task	8	0.013327	60	10	60-180	60	106	GapExp	0	192	2	1	0	target	0	560	-1000	104586	13.328	12.945	13.726
DTProbeTrack03	11	ProbeTrackDT	1.1	SCS215a	20101117.094352	20101117.100235	single-task	8	0.013327	60	10	60-180	60	165	GapExp	0	193	2	6	1	target	1	494	753	105339	13.328	12.863	13.784
DTProbeTrack03	11	ProbeTrackDT	1.1	SCS215a	20101117.094352	20101117.100241	single-task	8	0.013327	60	10	60-180	60	179	GapExp	0	194	2	45	0	distractor	1	600	700	106039	13.328	12.878	13.769
DTProbeTrack03	11	ProbeTrackDT	1.1	SCS215a	20101117.094352	20101117.100248	single-task	8	0.013327	60	10	60-180	60	136	GapExp	0	195	2	6	0	distractor	1	587	707	106746	13.328	12.922	13.739
DTProbeTrack03	11	ProbeTrackDT	1.1	SCS215a	20101117.094352	20101117.100254	single-task	8	0.013327	60	10	60-180	60	129	GapExp	0	196	2	1	1	distractor	0	307	-1000	105746	13.328	13.302	13.357
DTProbeTrack03	11	ProbeTrackDT	1.1	SCS215a	20101117.094352	20101117.100300	single-task	8	0.013327	60	10	60-180	60	154	GapExp	0	197	2	9	0	distractor	1	613	694	106440	13.328	12.916	13.734
DTProbeTrack03	11	ProbeTrackDT	1.1	SCS215a	20101117.094352	20101117.100306	single-task	8	0.013327	60	10	60-180	60	75	GapExp	0	198	2	45	0	distractor	1	680	660	107100	13.328	13.310	13.350
DTProbeTrack03	11	ProbeTrackDT	1.1	SCS215a	20101117.094352	20101117.100311	single-task	8	0.013327	60	10	60-180	60	147	GapExp	0	199	2	6	1	target	1	880	560	107660	13.328	12.935	13.712
DTProbeTrack03	11	ProbeTrackDT	1.1	SCS215a	20101117.094352	20101117.100318	single-task	8	0.013327	60	10	60-180	60	73	GapExp	0	200	2	1	1	distractor	0	680	-1000	106660	13.328	12.958	13.709
DTProbeTrack03	11	ProbeTrackDT	1.1	SCS215a	20101117.094352	20101117.100329	single-task	8	0.013327	60	10	60-180	60	120	GapExp	0	201	2	1	0	target	0	600	-1000	105660	13.328	13.309	13.346
DTProbeTrack03	11	ProbeTrackDT	1.1	SCS215a	20101117.094352	20101117.100335	single-task	8	0.013327	60	10	60-180	60	85	GapExp	0	202	2	45	0	target	0	347	-1000	104660	13.328	13.115	13.558
DTProbeTrack03	11	ProbeTrackDT	1.1	SCS215a	20101117.094352	20101117.100341	single-task	8	0.013327	60	10	60-180	60	85	GapExp	0	203	2	3	1	target	1	547	727	105387	13.328	12.917	13.732
DTProbeTrack03	11	ProbeTrackDT	1.1	SCS215a	20101117.094352	20101117.100346	single-task	8	0.013327	60	10	60-180	60	111	GapExp	0	204	2	45	0	distractor	1	574	713	106100	13.328	12.860	13.798
DTProbeTrack03	11	ProbeTrackDT	1.1	SCS215a	20101117.094352	20101117.100352	single-task	8	0.013327	60	10	60-180	60	91	GapExp	0	205	2	1	1	target	1	587	707	106807	13.328	13.308	13.347
DTProbeTrack03	11	ProbeTrackDT	1.1	SCS215a	20101117.100437	20101117.100449	dt-shadow	8	0.013328	60	10	60-180	60	61	GapPrac	1	1	2	3	1	target	1	587	707	107514	13.328	12.936	13.721
DTProbeTrack03	11	ProbeTrackDT	1.1	SCS215a	20101117.100437	20101117.100453	dt-shadow	8	0.013328	60	10	60-180	60	108	GapPrac	1	2	2	45	1	distractor	0	254	-1000	106514	13.328	12.995	13.656
DTProbeTrack03	11	ProbeTrackDT	1.1	SCS215a	20101117.100437	20101117.100459	dt-shadow	8	0.013328	60	10	60-180	60	150	GapPrac	1	3	2	1	0	target	0	707	-1000	105514	13.328	13.097	13.551
DTProbeTrack03	11	ProbeTrackDT	1.1	SCS215a	20101117.100437	20101117.100505	dt-shadow	8	0.013328	60	10	60-180	60	65	GapPrac	1	4	2	6	1	target	1	653	674	106188	13.328	12.933	13.754
DTProbeTrack03	11	ProbeTrackDT	1.1	SCS215a	20101117.100437	20101117.100510	dt-shadow	8	0.013328	60	10	60-180	60	167	GapPrac	1	5	2	1	1	target	1	414	793	106981	13.328	13.005	13.656
DTProbeTrack03	11	ProbeTrackDT	1.1	SCS215a	20101117.100437	20101117.100516	dt-shadow	8	0.013328	60	10	60-180	60	105	GapPrac	1	6	2	9	0	distractor	1	480	760	107741	13.328	13.293	13.367
DTProbeTrack03	11	ProbeTrackDT	1.1	SCS215a	20101117.100437	20101117.100522	dt-shadow	8	0.013328	60	10	60-180	60	171	GapPrac	1	7	2	9	0	distractor	1	587	707	108448	13.328	12.894	13.775
DTProbeTrack03	11	ProbeTrackDT	1.1	SCS215a	20101117.100437	20101117.100528	dt-shadow	8	0.013328	60	10	60-180	60	72	GapPrac	1	8	2	3	0	target	0	613	-1000	107448	13.328	12.961	13.697
DTProbeTrack03	11	ProbeTrackDT	1.1	SCS215a	20101117.100437	20101117.100533	dt-shadow	8	0.013328	60	10	60-180	60	77	GapPrac	1	9	2	1	0	distractor	1	587	707	108155	13.328	13.116	13.554
DTProbeTrack03	11	ProbeTrackDT	1.1	SCS215a	20101117.100437	20101117.100538	dt-shadow	8	0.013328	60	10	60-180	60	108	GapPrac	1	10	2	1	1	target	1	467	767	108922	13.328	12.978	13.669
DTProbeTrack03	11	ProbeTrackDT	1.1	SCS215a	20101117.100437	20101117.100543	dt-shadow	8	0.013328	60	10	60-180	60	136	GapPrac	1	11	2	45	1	distractor	0	387	-1000	107922	13.328	13.029	13.633
DTProbeTrack03	11	ProbeTrackDT	1.1	SCS215a	20101117.100437	20101117.100550	dt-shadow	8	0.013328	60	10	60-180	60	177	GapPrac	1	12	2	6	0	target	0	800	-1000	106922	13.328	13.054	13.606
DTProbeTrack03	11	ProbeTrackDT	1.1	SCS215a	20101117.100437	20101117.100556	dt-shadow	8	0.013328	60	10	60-180	60	170	GapPrac	1	13	2	3	1	target	1	747	627	107549	13.328	12.946	13.713
DTProbeTrack03	11	ProbeTrackDT	1.1	SCS215a	20101117.100437	20101117.100603	dt-shadow	8	0.013328	60	10	60-180	60	91	GapPrac	1	14	2	6	1	target	1	454	773	108322	13.328	13.181	13.489
DTProbeTrack03	11	ProbeTrackDT	1.1	SCS215a	20101117.100437	20101117.100608	dt-shadow	8	0.013328	60	10	60-180	60	144	GapPrac	1	15	2	6	0	distractor	1	627	687	109009	13.328	13.050	13.606
DTProbeTrack03	11	ProbeTrackDT	1.1	SCS215a	20101117.100437	20101117.100614	dt-shadow	8	0.013328	60	10	60-180	60	162	GapPrac	1	16	2	45	0	distractor	1	574	713	109722	13.328	13.096	13.569
DTProbeTrack03	11	ProbeTrackDT	1.1	SCS215a	20101117.100437	20101117.100621	dt-shadow	8	0.013328	60	10	60-180	60	100	GapPrac	1	17	2	3	0	distractor	1	507	747	110469	13.328	13.306	13.346
DTProbeTrack03	11	ProbeTrackDT	1.1	SCS215a	20101117.100437	20101117.100626	dt-shadow	8	0.013328	60	10	60-180	60	121	GapPrac	1	18	2	45	0	distractor	1	454	773	111242	13.328	13.293	13.359
DTProbeTrack03	11	ProbeTrackDT	1.1	SCS215a	20101117.100437	20101117.100632	dt-shadow	8	0.013328	60	10	60-180	60	139	GapPrac	1	19	2	9	1	target	1	574	713	111955	13.328	13.074	13.588
DTProbeTrack03	11	ProbeTrackDT	1.1	SCS215a	20101117.100437	20101117.100638	dt-shadow	8	0.013328	60	10	60-180	60	97	GapPrac	1	20	2	9	1	target	1	600	700	112655	13.328	13.307	13.344
DTProbeTrack03	11	ProbeTrackDT	1.1	SCS215a	20101117.100720	20101117.100728	dt-shadow	8	0.013327	60	10	60-180	60	71	GapExp	1	1	2	45	1	target	1	680	660	113315	13.328	13.301	13.347
DTProbeTrack03	11	ProbeTrackDT	1.1	SCS215a	20101117.100720	20101117.100733	dt-shadow	8	0.013327	60	10	60-180	60	109	GapExp	1	2	2	9	1	target	1	600	700	114015	13.328	12.853	13.803
DTProbeTrack03	11	ProbeTrackDT	1.1	SCS215a	20101117.100720	20101117.100739	dt-shadow	8	0.013327	60	10	60-180	60	88	GapExp	1	3	2	1	1	target	1	600	700	114715	13.328	13.089	13.548
DTProbeTrack03	11	ProbeTrackDT	1.1	SCS215a	20101117.100720	20101117.100744	dt-shadow	8	0.013327	60	10	60-180	60	76	GapExp	1	4	2	45	0	distractor	1	347	827	115542	13.328	12.910	13.768
DTProbeTrack03	11	ProbeTrackDT	1.1	SCS215a	20101117.100720	20101117.100749	dt-shadow	8	0.013327	60	10	60-180	60	76	GapExp	1	5	2	9	0	target	0	534	-1000	114542	13.328	12.932	13.716
DTProbeTrack03	11	ProbeTrackDT	1.1	SCS215a	20101117.100720	20101117.100754	dt-shadow	8	0.013327	60	10	60-180	60	115	GapExp	0	6	2	45	0	target	0	627	-1000	113542	13.328	13.008	13.637
DTProbeTrack03	11	ProbeTrackDT	1.1	SCS215a	20101117.100720	20101117.100801	dt-shadow	8	0.013327	60	10	60-180	60	163	GapExp	0	7	2	1	1	target	1	520	740	114282	13.328	13.083	13.555
DTProbeTrack03	11	ProbeTrackDT	1.1	SCS215a	20101117.100720	20101117.100807	dt-shadow	8	0.013327	60	10	60-180	60	137	GapExp	0	8	2	1	0	distractor	1	560	720	115002	13.328	13.011	13.639
DTProbeTrack03	11	ProbeTrackDT	1.1	SCS215a	20101117.100720	20101117.100812	dt-shadow	8	0.013327	60	10	60-180	60	138	GapExp	0	9	2	6	0	distractor	1	547	727	115729	13.328	13.097	13.548
DTProbeTrack03	11	ProbeTrackDT	1.1	SCS215a	20101117.100720	20101117.100818	dt-shadow	8	0.013327	60	10	60-180	60	162	GapExp	0	10	2	1	0	distractor	1	520	740	116469	13.328	13.307	13.349
DTProbeTrack03	11	ProbeTrackDT	1.1	SCS215a	20101117.100720	20101117.100825	dt-shadow	8	0.013327	60	10	60-180	60	97	GapExp	0	11	2	1	1	target	1	574	713	117182	13.328	12.867	13.698
DTProbeTrack03	11	ProbeTrackDT	1.1	SCS215a	20101117.100720	20101117.100830	dt-shadow	8	0.013327	60	10	60-180	60	84	GapExp	0	12	2	9	1	distractor	0	454	-1000	116182	13.328	13.308	13.346
DTProbeTrack03	11	ProbeTrackDT	1.1	SCS215a	20101117.100720	20101117.100835	dt-shadow	8	0.013327	60	10	60-180	60	112	GapExp	0	13	2	9	1	target	1	534	733	116915	13.328	13.309	13.346
DTProbeTrack03	11	ProbeTrackDT	1.1	SCS215a	20101117.100720	20101117.100840	dt-shadow	8	0.013327	60	10	60-180	60	155	GapExp	0	14	2	6	0	distractor	1	693	654	117569	13.328	13.107	13.540
DTProbeTrack03	11	ProbeTrackDT	1.1	SCS215a	20101117.100720	20101117.100847	dt-shadow	8	0.013327	60	10	60-180	60	141	GapExp	0	15	2	9	0	target	0	987	-1000	116569	13.328	12.887	13.763
DTProbeTrack03	11	ProbeTrackDT	1.1	SCS215a	20101117.100720	20101117.100853	dt-shadow	8	0.013327	60	10	60-180	60	77	GapExp	0	16	2	3	0	target	0	960	-1000	115569	13.328	13.051	13.606
DTProbeTrack03	11	ProbeTrackDT	1.1	SCS215a	20101117.100720	20101117.100859	dt-shadow	8	0.013327	60	10	60-180	60	109	GapExp	0	17	2	1	0	distractor	1	813	594	116163	13.328	13.180	13.478
DTProbeTrack03	11	ProbeTrackDT	1.1	SCS215a	20101117.100720	20101117.100904	dt-shadow	8	0.013327	60	10	60-180	60	138	GapExp	0	18	2	6	0	distractor	1	587	707	116870	13.328	13.051	13.609
DTProbeTrack03	11	ProbeTrackDT	1.1	SCS215a	20101117.100720	20101117.100910	dt-shadow	8	0.013327	60	10	60-180	60	116	GapExp	0	19	2	6	1	target	1	707	647	117517	13.328	13.304	13.360
DTProbeTrack03	11	ProbeTrackDT	1.1	SCS215a	20101117.100720	20101117.100916	dt-shadow	8	0.013327	60	10	60-180	60	144	GapExp	0	20	2	1	1	target	1	667	667	118184	13.328	12.975	13.672
DTProbeTrack03	11	ProbeTrackDT	1.1	SCS215a	20101117.100720	20101117.100922	dt-shadow	8	0.013327	60	10	60-180	60	89	GapExp	0	21	2	3	0	target	0	893	-1000	117184	13.328	13.128	13.519
DTProbeTrack03	11	ProbeTrackDT	1.1	SCS215a	20101117.100720	20101117.100928	dt-shadow	8	0.013327	60	10	60-180	60	94	GapExp	0	22	2	9	0	target	0	653	-1000	116184	13.328	13.308	13.346
DTProbeTrack03	11	ProbeTrackDT	1.1	SCS215a	20101117.100720	20101117.100933	dt-shadow	8	0.013327	60	10	60-180	60	161	GapExp	0	23	2	45	0	distractor	1	973	514	116698	13.328	13.263	13.385
DTProbeTrack03	11	ProbeTrackDT	1.1	SCS215a	20101117.100720	20101117.100940	dt-shadow	8	0.013327	60	10	60-180	60	127	GapExp	0	24	2	6	1	target	1	600	700	117398	13.328	13.290	13.368
DTProbeTrack03	11	ProbeTrackDT	1.1	SCS215a	20101117.100720	20101117.100946	dt-shadow	8	0.013327	60	10	60-180	60	100	GapExp	0	25	2	1	1	target	1	667	667	118065	13.328	12.973	13.702
DTProbeTrack03	11	ProbeTrackDT	1.1	SCS215a	20101117.100720	20101117.100951	dt-shadow	8	0.013327	60	10	60-180	60	72	GapExp	0	26	2	9	1	target	1	1346	327	118392	13.328	13.005	13.663
DTProbeTrack03	11	ProbeTrackDT	1.1	SCS215a	20101117.100720	20101117.100957	dt-shadow	8	0.013327	60	10	60-180	60	130	GapExp	0	27	2	6	1	target	1	427	787	119179	13.328	13.096	13.561
DTProbeTrack03	11	ProbeTrackDT	1.1	SCS215a	20101117.100720	20101117.101003	dt-shadow	8	0.013327	60	10	60-180	60	167	GapExp	0	28	2	6	1	target	1	454	773	119952	13.328	13.307	13.346
DTProbeTrack03	11	ProbeTrackDT	1.1	SCS215a	20101117.100720	20101117.101009	dt-shadow	8	0.013327	60	10	60-180	60	78	GapExp	0	29	2	6	0	target	0	467	-1000	118952	13.328	12.999	13.660
DTProbeTrack03	11	ProbeTrackDT	1.1	SCS215a	20101117.100720	20101117.101014	dt-shadow	8	0.013327	60	10	60-180	60	77	GapExp	0	30	2	1	1	target	1	627	687	119639	13.328	13.107	13.548
DTProbeTrack03	11	ProbeTrackDT	1.1	SCS215a	20101117.100720	20101117.101019	dt-shadow	8	0.013327	60	10	60-180	60	180	GapExp	0	31	2	6	0	distractor	1	720	640	120279	13.328	13.053	13.615
DTProbeTrack03	11	ProbeTrackDT	1.1	SCS215a	20101117.100720	20101117.101026	dt-shadow	8	0.013327	60	10	60-180	60	141	GapExp	0	32	2	3	1	target	1	627	687	120966	13.328	13.016	13.641
DTProbeTrack03	11	ProbeTrackDT	1.1	SCS215a	20101117.100720	20101117.101032	dt-shadow	8	0.013327	60	10	60-180	60	100	GapExp	0	33	2	1	0	distractor	1	507	747	121713	13.328	13.310	13.347
DTProbeTrack03	11	ProbeTrackDT	1.1	SCS215a	20101117.100720	20101117.101037	dt-shadow	8	0.013327	60	10	60-180	60	96	GapExp	0	34	2	45	0	target	0	560	-1000	120713	13.328	12.935	13.732
DTProbeTrack03	11	ProbeTrackDT	1.1	SCS215a	20101117.100720	20101117.101043	dt-shadow	8	0.013327	60	10	60-180	60	92	GapExp	0	35	2	45	0	distractor	1	773	614	121327	13.471	12.891	40.345
DTProbeTrack03	11	ProbeTrackDT	1.1	SCS215a	20101117.100720	20101117.101049	dt-shadow	8	0.013327	60	10	60-180	60	112	GapExp	0	36	2	45	0	target	0	587	-1000	120327	13.328	12.892	13.778
DTProbeTrack03	11	ProbeTrackDT	1.1	SCS215a	20101117.100720	20101117.101055	dt-shadow	8	0.013327	60	10	60-180	60	163	GapExp	0	37	2	45	1	distractor	0	587	-1000	119327	13.328	12.924	13.734
DTProbeTrack03	11	ProbeTrackDT	1.1	SCS215a	20101117.100720	20101117.101102	dt-shadow	8	0.013327	60	10	60-180	60	102	GapExp	0	38	2	6	1	target	1	640	680	120007	13.328	12.833	13.814
