exp	sub	code	rev	comp	runtime	trialtime	stdt	nstim	refreshdur	cuedur	gapdur	gapOnsetRange	durPostProbe	gapOnsetTime	blocktype	prac	trial	ntargets	soa	probeTarget	resp	acc	rt	pts	tpts	meanFrameDur	minFrameDur	maxFrameDur
DTProbeTrack03	2	ProbeTrackDT	1.1	SCS215a	20101029.090344	20101029.090401	single-task	8	0.013343	60	0	60-180	60	110	NoGap	1	1	2	1	0	target	0	1453	-1000	-1000	13.328	13.122	13.568
DTProbeTrack03	2	ProbeTrackDT	1.1	SCS215a	20101029.090344	20101029.090407	single-task	8	0.013343	60	0	60-180	60	82	NoGap	1	2	2	1	1	distractor	0	1107	-1000	-2000	13.328	13.134	13.554
DTProbeTrack03	2	ProbeTrackDT	1.1	SCS215a	20101029.090344	20101029.090413	single-task	8	0.013343	60	0	60-180	60	61	NoGap	1	3	2	9	0	distractor	1	1040	480	-1520	13.328	13.145	13.510
DTProbeTrack03	2	ProbeTrackDT	1.1	SCS215a	20101029.090344	20101029.090418	single-task	8	0.013343	60	0	60-180	60	166	NoGap	1	4	2	3	1	target	1	747	627	-893	13.328	13.064	13.626
DTProbeTrack03	2	ProbeTrackDT	1.1	SCS215a	20101029.090344	20101029.090425	single-task	8	0.013343	60	0	60-180	60	158	NoGap	1	5	2	45	1	target	1	853	574	-319	13.328	13.293	13.364
DTProbeTrack03	2	ProbeTrackDT	1.1	SCS215a	20101029.090344	20101029.090432	single-task	8	0.013343	60	0	60-180	60	166	NoGap	1	6	2	9	0	distractor	1	920	540	221	13.328	13.293	13.364
DTProbeTrack03	2	ProbeTrackDT	1.1	SCS215a	20101029.090344	20101029.090439	single-task	8	0.013343	60	0	60-180	60	154	NoGap	1	7	2	9	1	distractor	0	827	-1000	-779	13.328	13.281	13.363
DTProbeTrack03	2	ProbeTrackDT	1.1	SCS215a	20101029.090344	20101029.090445	single-task	8	0.013343	60	0	60-180	60	153	NoGap	1	8	2	3	0	distractor	1	987	507	-272	13.328	13.293	13.363
DTProbeTrack03	2	ProbeTrackDT	1.1	SCS215a	20101029.090344	20101029.090452	single-task	8	0.013343	60	0	60-180	60	84	NoGap	1	9	2	6	0	distractor	1	853	574	302	13.328	13.292	13.364
DTProbeTrack03	2	ProbeTrackDT	1.1	SCS215a	20101029.090344	20101029.090457	single-task	8	0.013343	60	0	60-180	60	119	NoGap	1	10	2	3	1	target	1	427	787	1089	13.328	13.292	13.363
DTProbeTrack03	2	ProbeTrackDT	1.1	SCS215a	20101029.090344	20101029.090503	single-task	8	0.013343	60	0	60-180	60	65	NoGap	1	11	2	3	0	distractor	1	813	594	1683	13.328	13.239	13.381
DTProbeTrack03	2	ProbeTrackDT	1.1	SCS215a	20101029.090344	20101029.090508	single-task	8	0.013343	60	0	60-180	60	139	NoGap	1	12	2	1	0	distractor	1	653	674	2357	13.328	13.293	13.364
DTProbeTrack03	2	ProbeTrackDT	1.1	SCS215a	20101029.090344	20101029.090514	single-task	8	0.013343	60	0	60-180	60	148	NoGap	1	13	2	3	0	distractor	1	547	727	3084	13.328	13.173	13.517
DTProbeTrack03	2	ProbeTrackDT	1.1	SCS215a	20101029.090344	20101029.090520	single-task	8	0.013343	60	0	60-180	60	115	NoGap	1	14	2	9	1	distractor	0	733	-1000	2084	13.328	13.292	13.363
DTProbeTrack03	2	ProbeTrackDT	1.1	SCS215a	20101029.090344	20101029.090526	single-task	8	0.013343	60	0	60-180	60	147	NoGap	1	15	2	6	0	distractor	1	1000	500	2584	13.328	13.289	13.368
DTProbeTrack03	2	ProbeTrackDT	1.1	SCS215a	20101029.090344	20101029.090533	single-task	8	0.013343	60	0	60-180	60	131	NoGap	1	16	2	1	0	distractor	1	1013	494	3078	13.328	13.292	13.363
DTProbeTrack03	2	ProbeTrackDT	1.1	SCS215a	20101029.090344	20101029.090539	single-task	8	0.013343	60	0	60-180	60	142	NoGap	1	17	2	6	1	target	1	600	700	3778	13.328	13.288	13.379
DTProbeTrack03	2	ProbeTrackDT	1.1	SCS215a	20101029.090344	20101029.090545	single-task	8	0.013343	60	0	60-180	60	63	NoGap	1	18	2	3	0	distractor	1	773	614	4392	13.328	13.292	13.363
DTProbeTrack03	2	ProbeTrackDT	1.1	SCS215a	20101029.090344	20101029.090550	single-task	8	0.013343	60	0	60-180	60	79	NoGap	1	19	2	9	0	distractor	1	813	594	4986	13.328	13.145	13.511
DTProbeTrack03	2	ProbeTrackDT	1.1	SCS215a	20101029.090344	20101029.090555	single-task	8	0.013343	60	0	60-180	60	76	NoGap	1	20	2	3	1	target	1	1067	467	5453	13.328	13.291	13.396
DTProbeTrack03	2	ProbeTrackDT	1.1	SCS215a	20101029.090344	20101029.090601	single-task	8	0.013343	60	0	60-180	60	162	NoGap	1	21	2	9	1	target	1	867	567	6020	13.328	13.276	13.379
DTProbeTrack03	2	ProbeTrackDT	1.1	SCS215a	20101029.090344	20101029.090608	single-task	8	0.013343	60	0	60-180	60	149	NoGap	1	22	2	1	1	target	1	722	639	6659	13.328	13.204	13.452
DTProbeTrack03	2	ProbeTrackDT	1.1	SCS215a	20101029.090344	20101029.090614	single-task	8	0.013343	60	0	60-180	60	100	NoGap	1	23	2	45	1	target	1	600	700	7359	13.378	13.292	26.687
DTProbeTrack03	2	ProbeTrackDT	1.1	SCS215a	20101029.090344	20101029.090620	single-task	8	0.013343	60	0	60-180	60	81	NoGap	1	24	2	1	1	target	1	467	767	8126	13.465	13.254	26.692
DTProbeTrack03	2	ProbeTrackDT	1.1	SCS215a	20101029.090344	20101029.090625	single-task	8	0.013343	60	0	60-180	60	104	NoGap	1	25	2	3	1	target	1	600	700	8826	13.328	13.280	13.375
DTProbeTrack03	2	ProbeTrackDT	1.1	SCS215a	20101029.090344	20101029.090631	single-task	8	0.013343	60	0	60-180	60	109	NoGap	1	26	2	6	1	target	1	520	740	9566	13.328	13.292	13.363
DTProbeTrack03	2	ProbeTrackDT	1.1	SCS215a	20101029.090344	20101029.090636	single-task	8	0.013343	60	0	60-180	60	80	NoGap	1	27	2	9	1	target	1	507	747	10313	13.328	13.293	13.363
DTProbeTrack03	2	ProbeTrackDT	1.1	SCS215a	20101029.090344	20101029.090641	single-task	8	0.013343	60	0	60-180	60	89	NoGap	1	28	2	45	0	distractor	1	467	767	11080	13.328	13.257	13.399
DTProbeTrack03	2	ProbeTrackDT	1.1	SCS215a	20101029.090344	20101029.090647	single-task	8	0.013343	60	0	60-180	60	169	NoGap	1	29	2	1	0	distractor	1	787	607	11687	13.328	13.292	13.363
DTProbeTrack03	2	ProbeTrackDT	1.1	SCS215a	20101029.090344	20101029.090654	single-task	8	0.013343	60	0	60-180	60	110	NoGap	1	30	2	6	1	target	1	640	680	12367	13.328	13.227	13.395
DTProbeTrack03	2	ProbeTrackDT	1.1	SCS215a	20101029.090344	20101029.090659	single-task	8	0.013343	60	0	60-180	60	134	NoGap	1	31	2	6	1	target	1	614	693	13060	13.328	13.293	13.363
DTProbeTrack03	2	ProbeTrackDT	1.1	SCS215a	20101029.090344	20101029.090705	single-task	8	0.013343	60	0	60-180	60	180	NoGap	1	32	2	45	0	distractor	1	627	687	13747	13.328	13.184	13.471
DTProbeTrack03	2	ProbeTrackDT	1.1	SCS215a	20101029.090344	20101029.090712	single-task	8	0.013343	60	0	60-180	60	141	NoGap	1	33	2	9	0	distractor	1	1027	487	14234	13.328	13.142	13.528
DTProbeTrack03	2	ProbeTrackDT	1.1	SCS215a	20101029.090344	20101029.090719	single-task	8	0.013343	60	0	60-180	60	135	NoGap	1	34	2	6	0	distractor	1	787	607	14841	13.328	13.292	13.364
DTProbeTrack03	2	ProbeTrackDT	1.1	SCS215a	20101029.090344	20101029.090725	single-task	8	0.013343	60	0	60-180	60	131	NoGap	1	35	2	45	1	target	1	587	707	15548	13.328	13.293	13.363
DTProbeTrack03	2	ProbeTrackDT	1.1	SCS215a	20101029.090344	20101029.090731	single-task	8	0.013343	60	0	60-180	60	179	NoGap	1	36	2	45	1	target	1	840	580	16128	13.328	13.072	13.549
DTProbeTrack03	2	ProbeTrackDT	1.1	SCS215a	20101029.090344	20101029.090738	single-task	8	0.013343	60	0	60-180	60	166	NoGap	1	37	2	1	1	target	1	574	713	16841	13.328	13.292	13.378
DTProbeTrack03	2	ProbeTrackDT	1.1	SCS215a	20101029.090344	20101029.090745	single-task	8	0.013343	60	0	60-180	60	123	NoGap	1	38	2	45	0	distractor	1	773	614	17455	13.328	13.293	13.363
DTProbeTrack03	2	ProbeTrackDT	1.1	SCS215a	20101029.090344	20101029.090751	single-task	8	0.013343	60	0	60-180	60	171	NoGap	1	39	2	6	0	distractor	1	840	580	18035	13.328	13.069	13.571
DTProbeTrack03	2	ProbeTrackDT	1.1	SCS215a	20101029.090344	20101029.090758	single-task	8	0.013343	60	0	60-180	60	73	NoGap	1	40	2	45	0	distractor	1	680	660	18695	13.328	13.272	13.415
DTProbeTrack03	2	ProbeTrackDT	1.1	SCS215a	20101029.090936	20101029.090943	single-task	8	0.013327	60	10	60-180	60	140	GapPrac	1	1	2	6	1	target	1	1160	420	19115	13.328	13.022	13.647
DTProbeTrack03	2	ProbeTrackDT	1.1	SCS215a	20101029.090936	20101029.090949	single-task	8	0.013327	60	10	60-180	60	111	GapPrac	1	2	2	6	0	distractor	1	973	514	19629	13.328	12.868	13.802
DTProbeTrack03	2	ProbeTrackDT	1.1	SCS215a	20101029.090936	20101029.090955	single-task	8	0.013327	60	10	60-180	60	145	GapPrac	1	3	2	45	0	distractor	1	507	747	20376	13.328	12.854	13.801
DTProbeTrack03	2	ProbeTrackDT	1.1	SCS215a	20101029.090936	20101029.091002	single-task	8	0.013327	60	10	60-180	60	62	GapPrac	1	4	2	3	0	distractor	1	773	614	20990	13.328	12.944	13.750
DTProbeTrack03	2	ProbeTrackDT	1.1	SCS215a	20101029.090936	20101029.091007	single-task	8	0.013327	60	10	60-180	60	172	GapPrac	1	5	2	45	1	distractor	0	280	-1000	19990	13.328	12.895	13.773
DTProbeTrack03	2	ProbeTrackDT	1.1	SCS215a	20101029.090936	20101029.091014	single-task	8	0.013327	60	10	60-180	60	106	GapPrac	1	6	2	1	0	distractor	1	1053	474	20464	13.328	13.108	13.554
DTProbeTrack03	2	ProbeTrackDT	1.1	SCS215a	20101029.090936	20101029.091020	single-task	8	0.013327	60	10	60-180	60	66	GapPrac	1	7	2	6	1	distractor	0	1000	-1000	19464	13.328	13.093	13.564
DTProbeTrack03	2	ProbeTrackDT	1.1	SCS215a	20101029.090936	20101029.091025	single-task	8	0.013327	60	10	60-180	60	151	GapPrac	1	8	2	6	0	target	0	933	-1000	18464	13.328	12.875	13.780
DTProbeTrack03	2	ProbeTrackDT	1.1	SCS215a	20101029.090936	20101029.091032	single-task	8	0.013327	60	10	60-180	60	165	GapPrac	1	9	2	3	1	target	1	907	547	19011	13.328	13.308	13.362
DTProbeTrack03	2	ProbeTrackDT	1.1	SCS215a	20101029.090936	20101029.091039	single-task	8	0.013327	60	10	60-180	60	90	GapPrac	1	10	2	45	0	distractor	1	1013	494	19505	13.328	13.092	13.551
DTProbeTrack03	2	ProbeTrackDT	1.1	SCS215a	20101029.090936	20101029.091045	single-task	8	0.013327	60	10	60-180	60	97	GapPrac	1	11	2	45	1	target	1	747	627	20132	13.328	13.307	13.348
DTProbeTrack03	2	ProbeTrackDT	1.1	SCS215a	20101029.090936	20101029.091051	single-task	8	0.013327	60	10	60-180	60	137	GapPrac	1	12	2	3	0	target	0	627	-1000	19132	13.328	12.988	13.798
DTProbeTrack03	2	ProbeTrackDT	1.1	SCS215a	20101029.090936	20101029.091057	single-task	8	0.013327	60	10	60-180	60	108	GapPrac	1	13	2	1	1	target	1	813	594	19726	13.328	13.126	13.537
DTProbeTrack03	2	ProbeTrackDT	1.1	SCS215a	20101029.090936	20101029.091103	single-task	8	0.013327	60	10	60-180	60	166	GapPrac	1	14	2	9	0	distractor	1	760	620	20346	13.328	12.899	13.761
DTProbeTrack03	2	ProbeTrackDT	1.1	SCS215a	20101029.090936	20101029.091110	single-task	8	0.013327	60	10	60-180	60	120	GapPrac	1	15	2	9	1	target	1	693	654	21000	13.328	12.897	13.769
DTProbeTrack03	2	ProbeTrackDT	1.1	SCS215a	20101029.090936	20101029.091116	single-task	8	0.013327	60	10	60-180	60	67	GapPrac	1	16	2	9	1	target	1	720	640	21640	13.328	13.107	13.550
DTProbeTrack03	2	ProbeTrackDT	1.1	SCS215a	20101029.090936	20101029.091121	single-task	8	0.013327	60	10	60-180	60	144	GapPrac	1	17	2	9	0	target	0	653	-1000	20640	13.328	12.929	13.730
DTProbeTrack03	2	ProbeTrackDT	1.1	SCS215a	20101029.090936	20101029.091127	single-task	8	0.013327	60	10	60-180	60	121	GapPrac	1	18	2	3	1	target	1	667	667	21307	13.328	12.907	13.749
DTProbeTrack03	2	ProbeTrackDT	1.1	SCS215a	20101029.090936	20101029.091133	single-task	8	0.013327	60	10	60-180	60	68	GapPrac	1	19	2	1	0	target	0	680	-1000	20307	13.328	12.874	13.785
DTProbeTrack03	2	ProbeTrackDT	1.1	SCS215a	20101029.090936	20101029.091138	single-task	8	0.013327	60	10	60-180	60	130	GapPrac	1	20	2	1	1	target	1	813	594	20901	13.328	12.739	13.875
DTProbeTrack03	2	ProbeTrackDT	1.1	SCS215a	20101029.091219	20101029.091224	single-task	8	0.013328	60	10	60-180	60	168	GapExp	1	1	2	45	0	distractor	1	1080	460	21361	13.328	12.976	13.756
DTProbeTrack03	2	ProbeTrackDT	1.1	SCS215a	20101029.091219	20101029.091232	single-task	8	0.013328	60	10	60-180	60	84	GapExp	1	2	2	1	1	target	1	693	654	22015	13.328	12.861	13.820
DTProbeTrack03	2	ProbeTrackDT	1.1	SCS215a	20101029.091219	20101029.091237	single-task	8	0.013328	60	10	60-180	60	87	GapExp	1	3	2	9	1	target	1	627	687	22702	13.328	12.946	13.706
DTProbeTrack03	2	ProbeTrackDT	1.1	SCS215a	20101029.091219	20101029.091242	single-task	8	0.013328	60	10	60-180	60	98	GapExp	1	4	2	45	1	target	1	653	674	23376	13.471	13.060	40.437
DTProbeTrack03	2	ProbeTrackDT	1.1	SCS215a	20101029.091219	20101029.091249	single-task	8	0.013328	60	10	60-180	60	92	GapExp	1	5	2	6	0	target	0	813	-1000	22376	13.328	12.924	13.743
DTProbeTrack03	2	ProbeTrackDT	1.1	SCS215a	20101029.091219	20101029.091254	single-task	8	0.013328	60	10	60-180	60	90	GapExp	0	6	2	1	1	target	1	733	634	23010	13.328	12.852	13.804
DTProbeTrack03	2	ProbeTrackDT	1.1	SCS215a	20101029.091219	20101029.091300	single-task	8	0.013328	60	10	60-180	60	104	GapExp	0	7	2	9	0	target	0	653	-1000	22010	13.326	12.853	13.810
DTProbeTrack03	2	ProbeTrackDT	1.1	SCS215a	20101029.091219	20101029.091305	single-task	8	0.013328	60	10	60-180	60	69	GapExp	0	8	2	6	1	target	1	707	647	22657	13.328	12.914	13.749
DTProbeTrack03	2	ProbeTrackDT	1.1	SCS215a	20101029.091219	20101029.091310	single-task	8	0.013328	60	10	60-180	60	110	GapExp	0	9	2	3	0	target	0	907	-1000	21657	13.328	12.849	13.808
DTProbeTrack03	2	ProbeTrackDT	1.1	SCS215a	20101029.091219	20101029.091316	single-task	8	0.013328	60	10	60-180	60	154	GapExp	0	10	2	3	0	distractor	1	760	620	22277	13.328	13.284	13.365
DTProbeTrack03	2	ProbeTrackDT	1.1	SCS215a	20101029.091219	20101029.091323	single-task	8	0.013328	60	10	60-180	60	79	GapExp	0	11	2	45	0	distractor	1	1080	460	22737	13.328	13.107	13.548
DTProbeTrack03	2	ProbeTrackDT	1.1	SCS215a	20101029.091219	20101029.091329	single-task	8	0.013328	60	10	60-180	60	96	GapExp	0	12	2	45	0	target	0	933	-1000	21737	13.328	12.895	13.783
DTProbeTrack03	2	ProbeTrackDT	1.1	SCS215a	20101029.091219	20101029.091335	single-task	8	0.013328	60	10	60-180	60	137	GapExp	0	13	2	6	0	distractor	1	827	587	22324	13.327	13.092	13.562
DTProbeTrack03	2	ProbeTrackDT	1.1	SCS215a	20101029.091219	20101029.091342	single-task	8	0.013328	60	10	60-180	60	165	GapExp	0	14	2	45	0	distractor	1	867	567	22891	13.328	12.922	13.721
DTProbeTrack03	2	ProbeTrackDT	1.1	SCS215a	20101029.091219	20101029.091349	single-task	8	0.013328	60	10	60-180	60	179	GapExp	0	15	2	6	1	target	1	747	627	23518	13.328	12.937	13.721
DTProbeTrack03	2	ProbeTrackDT	1.1	SCS215a	20101029.091219	20101029.091356	single-task	8	0.013328	60	10	60-180	60	85	GapExp	0	16	2	45	1	target	1	680	660	24178	13.328	13.310	13.347
DTProbeTrack03	2	ProbeTrackDT	1.1	SCS215a	20101029.091219	20101029.091401	single-task	8	0.013328	60	10	60-180	60	121	GapExp	0	17	2	45	1	target	1	680	660	24838	13.328	13.291	13.348
DTProbeTrack03	2	ProbeTrackDT	1.1	SCS215a	20101029.091219	20101029.091408	single-task	8	0.013328	60	10	60-180	60	137	GapExp	0	18	2	45	0	distractor	1	693	654	25492	13.328	12.871	13.782
DTProbeTrack03	2	ProbeTrackDT	1.1	SCS215a	20101029.091219	20101029.091414	single-task	8	0.013328	60	10	60-180	60	131	GapExp	0	19	2	3	1	target	1	707	647	26139	13.328	12.897	13.760
DTProbeTrack03	2	ProbeTrackDT	1.1	SCS215a	20101029.091219	20101029.091420	single-task	8	0.013328	60	10	60-180	60	130	GapExp	0	20	2	6	1	target	1	574	713	26852	13.328	12.973	13.683
DTProbeTrack03	2	ProbeTrackDT	1.1	SCS215a	20101029.091219	20101029.091426	single-task	8	0.013328	60	10	60-180	60	163	GapExp	0	21	2	9	1	target	1	600	700	27552	13.328	12.897	13.761
DTProbeTrack03	2	ProbeTrackDT	1.1	SCS215a	20101029.091219	20101029.091433	single-task	8	0.013328	60	10	60-180	60	83	GapExp	0	22	2	1	1	target	1	601	700	28252	13.328	12.852	13.802
DTProbeTrack03	2	ProbeTrackDT	1.1	SCS215a	20101029.091219	20101029.091438	single-task	8	0.013328	60	10	60-180	60	92	GapExp	0	23	2	1	0	distractor	1	760	620	28872	13.328	13.302	13.346
DTProbeTrack03	2	ProbeTrackDT	1.1	SCS215a	20101029.091219	20101029.091443	single-task	8	0.013328	60	10	60-180	60	116	GapExp	0	24	2	3	1	target	1	720	640	29512	13.328	13.307	13.349
DTProbeTrack03	2	ProbeTrackDT	1.1	SCS215a	20101029.091219	20101029.091449	single-task	8	0.013328	60	10	60-180	60	138	GapExp	0	25	2	45	1	target	1	773	614	30126	13.328	13.038	13.626
DTProbeTrack03	2	ProbeTrackDT	1.1	SCS215a	20101029.091219	20101029.091456	single-task	8	0.013328	60	10	60-180	60	172	GapExp	0	26	2	45	1	target	1	600	700	30826	13.328	13.278	13.384
DTProbeTrack03	2	ProbeTrackDT	1.1	SCS215a	20101029.091219	20101029.091503	single-task	8	0.013328	60	10	60-180	60	174	GapExp	0	27	2	6	0	distractor	1	760	620	31446	13.328	13.085	13.572
DTProbeTrack03	2	ProbeTrackDT	1.1	SCS215a	20101029.091219	20101029.091510	single-task	8	0.013328	60	10	60-180	60	148	GapExp	0	28	2	9	1	distractor	0	613	-1000	30446	13.328	13.299	13.349
DTProbeTrack03	2	ProbeTrackDT	1.1	SCS215a	20101029.091219	20101029.091516	single-task	8	0.013328	60	10	60-180	60	173	GapExp	0	29	2	45	1	target	1	680	660	31106	13.328	13.098	13.573
DTProbeTrack03	2	ProbeTrackDT	1.1	SCS215a	20101029.091219	20101029.091523	single-task	8	0.013328	60	10	60-180	60	143	GapExp	0	30	2	1	1	target	1	547	727	31833	13.328	13.094	13.549
DTProbeTrack03	2	ProbeTrackDT	1.1	SCS215a	20101029.091219	20101029.091529	single-task	8	0.013328	60	10	60-180	60	80	GapExp	0	31	2	3	0	distractor	1	893	554	32387	13.328	12.844	13.806
DTProbeTrack03	2	ProbeTrackDT	1.1	SCS215a	20101029.091219	20101029.091534	single-task	8	0.013328	60	10	60-180	60	149	GapExp	0	32	2	3	1	target	1	747	627	33014	13.328	12.859	13.791
DTProbeTrack03	2	ProbeTrackDT	1.1	SCS215a	20101029.091219	20101029.091541	single-task	8	0.013328	60	10	60-180	60	119	GapExp	0	33	2	3	0	distractor	1	933	534	33548	13.328	13.069	13.575
DTProbeTrack03	2	ProbeTrackDT	1.1	SCS215a	20101029.091219	20101029.091547	single-task	8	0.013328	60	10	60-180	60	167	GapExp	0	34	2	9	1	target	1	787	607	34155	13.328	12.850	13.799
DTProbeTrack03	2	ProbeTrackDT	1.1	SCS215a	20101029.091219	20101029.091553	single-task	8	0.013328	60	10	60-180	60	115	GapExp	0	35	2	6	0	distractor	1	773	614	34769	13.328	12.851	13.808
DTProbeTrack03	2	ProbeTrackDT	1.1	SCS215a	20101029.091219	20101029.091559	single-task	8	0.013328	60	10	60-180	60	141	GapExp	0	36	2	3	1	target	1	694	653	35422	13.328	12.850	13.792
DTProbeTrack03	2	ProbeTrackDT	1.1	SCS215a	20101029.091219	20101029.091605	single-task	8	0.013328	60	10	60-180	60	65	GapExp	0	37	2	1	1	target	1	1027	487	35909	13.328	13.071	13.571
DTProbeTrack03	2	ProbeTrackDT	1.1	SCS215a	20101029.091219	20101029.091611	single-task	8	0.013328	60	10	60-180	60	149	GapExp	0	38	2	1	1	target	1	680	660	36569	13.328	13.052	13.595
DTProbeTrack03	2	ProbeTrackDT	1.1	SCS215a	20101029.091219	20101029.091617	single-task	8	0.013328	60	10	60-180	60	116	GapExp	0	39	2	6	0	distractor	1	947	527	37096	13.328	13.104	13.549
DTProbeTrack03	2	ProbeTrackDT	1.1	SCS215a	20101029.091219	20101029.091623	single-task	8	0.013328	60	10	60-180	60	147	GapExp	0	40	2	3	0	distractor	1	787	607	37703	13.328	13.113	13.550
DTProbeTrack03	2	ProbeTrackDT	1.1	SCS215a	20101029.091219	20101029.091629	single-task	8	0.013328	60	10	60-180	60	62	GapExp	0	41	2	1	0	distractor	1	827	587	38290	13.328	13.310	13.346
DTProbeTrack03	2	ProbeTrackDT	1.1	SCS215a	20101029.091219	20101029.091634	single-task	8	0.013328	60	10	60-180	60	84	GapExp	0	42	2	6	1	target	1	680	660	38950	13.328	13.296	13.365
DTProbeTrack03	2	ProbeTrackDT	1.1	SCS215a	20101029.091219	20101029.091640	single-task	8	0.013328	60	10	60-180	60	155	GapExp	0	43	2	6	0	target	0	680	-1000	37950	13.328	12.853	13.810
DTProbeTrack03	2	ProbeTrackDT	1.1	SCS215a	20101029.091219	20101029.091646	single-task	8	0.013328	60	10	60-180	60	96	GapExp	0	44	2	6	0	distractor	1	707	647	38597	13.328	13.085	13.558
DTProbeTrack03	2	ProbeTrackDT	1.1	SCS215a	20101029.091219	20101029.091652	single-task	8	0.013328	60	10	60-180	60	70	GapExp	0	45	2	3	0	distractor	1	760	620	39217	13.328	13.040	13.604
DTProbeTrack03	2	ProbeTrackDT	1.1	SCS215a	20101029.091219	20101029.091657	single-task	8	0.013328	60	10	60-180	60	63	GapExp	0	46	2	9	0	distractor	1	853	574	39791	13.328	13.298	13.354
DTProbeTrack03	2	ProbeTrackDT	1.1	SCS215a	20101029.091219	20101029.091702	single-task	8	0.013328	60	10	60-180	60	72	GapExp	0	47	2	9	0	distractor	1	654	673	40464	13.389	13.022	27.060
DTProbeTrack03	2	ProbeTrackDT	1.1	SCS215a	20101029.091219	20101029.091707	single-task	8	0.013328	60	10	60-180	60	94	GapExp	0	48	2	1	1	target	1	987	507	40971	13.328	13.125	13.533
DTProbeTrack03	2	ProbeTrackDT	1.1	SCS215a	20101029.091219	20101029.091713	single-task	8	0.013328	60	10	60-180	60	162	GapExp	0	49	2	45	1	target	1	840	580	41551	13.328	12.938	13.707
DTProbeTrack03	2	ProbeTrackDT	1.1	SCS215a	20101029.091219	20101029.091720	single-task	8	0.013328	60	10	60-180	60	92	GapExp	0	50	2	9	1	target	1	560	720	42271	13.328	12.858	13.784
DTProbeTrack03	2	ProbeTrackDT	1.1	SCS215a	20101029.091219	20101029.091746	single-task	8	0.013328	60	10	60-180	60	92	GapExp	0	51	2	6	0	distractor	1	1013	494	42765	13.328	13.307	13.344
DTProbeTrack03	2	ProbeTrackDT	1.1	SCS215a	20101029.091219	20101029.091752	single-task	8	0.013328	60	10	60-180	60	173	GapExp	0	52	2	9	0	distractor	1	720	640	43405	13.328	12.947	13.716
DTProbeTrack03	2	ProbeTrackDT	1.1	SCS215a	20101029.091219	20101029.091759	single-task	8	0.013328	60	10	60-180	60	72	GapExp	0	53	2	1	0	distractor	1	813	594	43999	13.328	13.175	13.477
DTProbeTrack03	2	ProbeTrackDT	1.1	SCS215a	20101029.091219	20101029.091804	single-task	8	0.013328	60	10	60-180	60	147	GapExp	0	54	2	45	1	distractor	0	827	-1000	42999	13.328	12.877	13.780
DTProbeTrack03	2	ProbeTrackDT	1.1	SCS215a	20101029.091219	20101029.091811	single-task	8	0.013328	60	10	60-180	60	84	GapExp	0	55	2	3	1	186	-3	613	-1000	41999	13.328	12.891	13.551
DTProbeTrack03	2	ProbeTrackDT	1.1	SCS215a	20101029.091219	20101029.091816	single-task	8	0.013328	60	10	60-180	60	130	GapExp	0	56	2	3	1	distractor	0	1426	-1000	40999	13.328	13.054	13.596
DTProbeTrack03	2	ProbeTrackDT	1.1	SCS215a	20101029.091219	20101029.091823	single-task	8	0.013328	60	10	60-180	60	74	GapExp	0	57	2	6	1	target	1	787	607	41606	13.328	13.095	13.569
DTProbeTrack03	2	ProbeTrackDT	1.1	SCS215a	20101029.091219	20101029.091828	single-task	8	0.013328	60	10	60-180	60	108	GapExp	0	58	2	1	1	target	1	600	700	42306	13.328	13.304	13.346
DTProbeTrack03	2	ProbeTrackDT	1.1	SCS215a	20101029.091219	20101029.091834	single-task	8	0.013328	60	10	60-180	60	87	GapExp	0	59	2	6	0	distractor	1	787	607	42913	13.328	13.309	13.346
DTProbeTrack03	2	ProbeTrackDT	1.1	SCS215a	20101029.091219	20101029.091839	single-task	8	0.013328	60	10	60-180	60	104	GapExp	0	60	2	1	0	target	0	867	-1000	41913	13.328	12.941	13.704
DTProbeTrack03	2	ProbeTrackDT	1.1	SCS215a	20101029.091219	20101029.091845	single-task	8	0.013328	60	10	60-180	60	122	GapExp	0	61	2	3	0	target	0	627	-1000	40913	13.328	12.934	13.592
DTProbeTrack03	2	ProbeTrackDT	1.1	SCS215a	20101029.091219	20101029.091851	single-task	8	0.013328	60	10	60-180	60	85	GapExp	0	62	2	9	1	target	1	787	607	41520	13.328	13.101	13.550
DTProbeTrack03	2	ProbeTrackDT	1.1	SCS215a	20101029.091219	20101029.091856	single-task	8	0.013328	60	10	60-180	60	168	GapExp	0	63	2	6	0	target	0	893	-1000	40520	13.328	13.091	13.551
DTProbeTrack03	2	ProbeTrackDT	1.1	SCS215a	20101029.091219	20101029.091903	single-task	8	0.013328	60	10	60-180	60	83	GapExp	0	64	2	1	1	target	1	747	627	41147	13.328	13.071	13.585
DTProbeTrack03	2	ProbeTrackDT	1.1	SCS215a	20101029.091219	20101029.091908	single-task	8	0.013328	60	10	60-180	60	152	GapExp	0	65	2	1	1	target	1	707	647	41794	13.328	13.014	13.649
DTProbeTrack03	2	ProbeTrackDT	1.1	SCS215a	20101029.091219	20101029.091915	single-task	8	0.013328	60	10	60-180	60	85	GapExp	0	66	2	6	1	target	1	760	620	42414	13.328	12.993	13.662
DTProbeTrack03	2	ProbeTrackDT	1.1	SCS215a	20101029.091219	20101029.091920	single-task	8	0.013328	60	10	60-180	60	72	GapExp	0	67	2	3	0	distractor	1	760	620	43034	13.328	13.306	13.352
DTProbeTrack03	2	ProbeTrackDT	1.1	SCS215a	20101029.091219	20101029.091925	single-task	8	0.013328	60	10	60-180	60	173	GapExp	0	68	2	9	1	target	1	614	693	43727	13.328	12.888	13.771
DTProbeTrack03	2	ProbeTrackDT	1.1	SCS215a	20101029.091219	20101029.091932	single-task	8	0.013328	60	10	60-180	60	103	GapExp	0	69	2	1	0	distractor	1	773	614	44341	13.328	12.983	13.674
DTProbeTrack03	2	ProbeTrackDT	1.1	SCS215a	20101029.091219	20101029.091938	single-task	8	0.013328	60	10	60-180	60	94	GapExp	0	70	2	9	0	target	0	987	-1000	43341	13.328	13.307	13.344
DTProbeTrack03	2	ProbeTrackDT	1.1	SCS215a	20101029.091219	20101029.091943	single-task	8	0.013328	60	10	60-180	60	109	GapExp	0	71	2	45	0	target	0	1067	-1000	42341	13.328	13.303	13.350
DTProbeTrack03	2	ProbeTrackDT	1.1	SCS215a	20101029.091219	20101029.091950	single-task	8	0.013328	60	10	60-180	60	161	GapExp	0	72	2	9	1	target	1	813	594	42935	13.328	13.228	13.434
DTProbeTrack03	2	ProbeTrackDT	1.1	SCS215a	20101029.091219	20101029.091957	single-task	8	0.013328	60	10	60-180	60	172	GapExp	0	73	2	45	0	distractor	1	747	627	43562	13.402	12.894	39.970
DTProbeTrack03	2	ProbeTrackDT	1.1	SCS215a	20101029.091219	20101029.092004	single-task	8	0.013328	60	10	60-180	60	172	GapExp	0	74	2	9	0	distractor	1	867	567	44129	13.328	13.309	13.347
DTProbeTrack03	2	ProbeTrackDT	1.1	SCS215a	20101029.091219	20101029.092011	single-task	8	0.013328	60	10	60-180	60	118	GapExp	0	75	2	45	0	distractor	1	800	600	44729	13.328	12.850	13.806
DTProbeTrack03	2	ProbeTrackDT	1.1	SCS215a	20101029.091219	20101029.092017	single-task	8	0.013328	60	10	60-180	60	73	GapExp	0	76	2	3	0	target	0	880	-1000	43729	13.328	13.089	13.559
DTProbeTrack03	2	ProbeTrackDT	1.1	SCS215a	20101029.091219	20101029.092022	single-task	8	0.013328	60	10	60-180	60	73	GapExp	0	77	2	6	1	target	1	667	667	44396	13.328	13.085	13.564
DTProbeTrack03	2	ProbeTrackDT	1.1	SCS215a	20101029.091219	20101029.092028	single-task	8	0.013328	60	10	60-180	60	153	GapExp	0	78	2	6	0	distractor	1	787	607	45003	13.328	12.890	13.766
DTProbeTrack03	2	ProbeTrackDT	1.1	SCS215a	20101029.091219	20101029.092034	single-task	8	0.013328	60	10	60-180	60	162	GapExp	0	79	2	1	0	distractor	1	1040	480	45483	13.328	13.010	13.637
DTProbeTrack03	2	ProbeTrackDT	1.1	SCS215a	20101029.091219	20101029.092041	single-task	8	0.013328	60	10	60-180	60	73	GapExp	0	80	2	6	0	distractor	1	987	507	45990	13.328	12.998	13.787
DTProbeTrack03	2	ProbeTrackDT	1.1	SCS215a	20101029.091219	20101029.092046	single-task	8	0.013328	60	10	60-180	60	97	GapExp	0	81	2	45	0	distractor	1	787	607	46597	13.328	13.305	13.354
DTProbeTrack03	2	ProbeTrackDT	1.1	SCS215a	20101029.091219	20101029.092052	single-task	8	0.013328	60	10	60-180	60	159	GapExp	0	82	2	1	1	target	1	680	660	47257	13.328	12.896	13.760
DTProbeTrack03	2	ProbeTrackDT	1.1	SCS215a	20101029.091219	20101029.092059	single-task	8	0.013328	60	10	60-180	60	171	GapExp	0	83	2	3	0	distractor	1	693	654	47911	13.328	12.945	13.710
DTProbeTrack03	2	ProbeTrackDT	1.1	SCS215a	20101029.091219	20101029.092105	single-task	8	0.013328	60	10	60-180	60	165	GapExp	0	84	2	6	0	distractor	1	760	620	48531	13.328	12.975	13.680
DTProbeTrack03	2	ProbeTrackDT	1.1	SCS215a	20101029.091219	20101029.092112	single-task	8	0.013328	60	10	60-180	60	121	GapExp	0	85	2	6	1	target	1	747	627	49158	13.328	13.111	13.551
DTProbeTrack03	2	ProbeTrackDT	1.1	SCS215a	20101029.091219	20101029.092118	single-task	8	0.013328	60	10	60-180	60	144	GapExp	0	86	2	9	1	target	1	587	707	49865	13.328	12.987	13.673
DTProbeTrack03	2	ProbeTrackDT	1.1	SCS215a	20101029.091219	20101029.092124	single-task	8	0.013328	60	10	60-180	60	77	GapExp	0	87	2	45	0	distractor	1	947	527	50392	13.328	12.966	13.696
DTProbeTrack03	2	ProbeTrackDT	1.1	SCS215a	20101029.091219	20101029.092130	single-task	8	0.013328	60	10	60-180	60	128	GapExp	0	88	2	1	0	distractor	1	1053	474	50866	13.328	12.887	13.769
DTProbeTrack03	2	ProbeTrackDT	1.1	SCS215a	20101029.091219	20101029.092136	single-task	8	0.013328	60	10	60-180	60	166	GapExp	0	89	2	6	1	target	1	867	567	51433	13.328	13.063	13.579
DTProbeTrack03	2	ProbeTrackDT	1.1	SCS215a	20101029.091219	20101029.092143	single-task	8	0.013328	60	10	60-180	60	77	GapExp	0	90	2	45	1	target	1	773	614	52047	13.328	12.994	13.673
DTProbeTrack03	2	ProbeTrackDT	1.1	SCS215a	20101029.091219	20101029.092149	single-task	8	0.013328	60	10	60-180	60	107	GapExp	0	91	2	1	1	target	1	653	674	52721	13.437	13.305	39.985
DTProbeTrack03	2	ProbeTrackDT	1.1	SCS215a	20101029.091219	20101029.092154	single-task	8	0.013328	60	10	60-180	60	112	GapExp	0	92	2	3	1	target	1	627	687	53408	13.328	13.099	13.559
DTProbeTrack03	2	ProbeTrackDT	1.1	SCS215a	20101029.091219	20101029.092200	single-task	8	0.013328	60	10	60-180	60	145	GapExp	0	93	2	3	0	target	0	494	-1000	52408	13.328	13.101	13.542
DTProbeTrack03	2	ProbeTrackDT	1.1	SCS215a	20101029.091219	20101029.092206	single-task	8	0.013328	60	10	60-180	60	118	GapExp	0	94	2	3	1	target	1	560	720	53128	13.328	13.303	13.358
DTProbeTrack03	2	ProbeTrackDT	1.1	SCS215a	20101029.091219	20101029.092212	single-task	8	0.013328	60	10	60-180	60	74	GapExp	0	95	2	6	1	target	1	707	647	53775	13.328	13.023	13.618
DTProbeTrack03	2	ProbeTrackDT	1.1	SCS215a	20101029.091219	20101029.092217	single-task	8	0.013328	60	10	60-180	60	84	GapExp	0	96	2	3	1	target	1	574	713	54488	13.328	13.305	13.345
DTProbeTrack03	2	ProbeTrackDT	1.1	SCS215a	20101029.091219	20101029.092222	single-task	8	0.013328	60	10	60-180	60	145	GapExp	0	97	2	45	0	distractor	1	667	667	55155	13.328	13.099	13.557
DTProbeTrack03	2	ProbeTrackDT	1.1	SCS215a	20101029.091219	20101029.092229	single-task	8	0.013328	60	10	60-180	60	176	GapExp	0	98	2	6	1	target	1	467	767	55922	13.328	12.876	13.784
DTProbeTrack03	2	ProbeTrackDT	1.1	SCS215a	20101029.091219	20101029.092235	single-task	8	0.013328	60	10	60-180	60	132	GapExp	0	99	2	45	1	distractor	0	893	-1000	54922	13.328	12.866	13.799
DTProbeTrack03	2	ProbeTrackDT	1.1	SCS215a	20101029.091219	20101029.092242	single-task	8	0.013328	60	10	60-180	60	164	GapExp	0	100	2	6	0	distractor	1	707	647	55569	13.328	13.189	13.461
DTProbeTrack03	2	ProbeTrackDT	1.1	SCS215a	20101029.091219	20101029.092332	single-task	8	0.013328	60	10	60-180	60	103	GapExp	0	101	2	6	1	distractor	0	893	-1000	54569	13.328	12.882	13.758
DTProbeTrack03	2	ProbeTrackDT	1.1	SCS215a	20101029.091219	20101029.092338	single-task	8	0.013328	60	10	60-180	60	72	GapExp	0	102	2	1	1	target	1	587	707	55276	13.328	12.898	13.768
DTProbeTrack03	2	ProbeTrackDT	1.1	SCS215a	20101029.091219	20101029.092343	single-task	8	0.013328	60	10	60-180	60	78	GapExp	0	103	2	45	0	target	0	773	-1000	54276	13.328	13.143	13.520
DTProbeTrack03	2	ProbeTrackDT	1.1	SCS215a	20101029.091219	20101029.092349	single-task	8	0.013328	60	10	60-180	60	130	GapExp	0	104	2	6	1	target	1	587	707	54983	13.328	12.922	13.726
DTProbeTrack03	2	ProbeTrackDT	1.1	SCS215a	20101029.091219	20101029.092355	single-task	8	0.013328	60	10	60-180	60	61	GapExp	0	105	2	9	0	distractor	1	707	647	55630	13.328	13.308	13.353
DTProbeTrack03	2	ProbeTrackDT	1.1	SCS215a	20101029.091219	20101029.092400	single-task	8	0.013328	60	10	60-180	60	107	GapExp	0	106	2	9	0	distractor	1	813	594	56224	13.328	13.099	13.557
DTProbeTrack03	2	ProbeTrackDT	1.1	SCS215a	20101029.091219	20101029.092406	single-task	8	0.013328	60	10	60-180	60	133	GapExp	0	107	2	9	0	distractor	1	654	673	56897	13.328	13.023	13.630
DTProbeTrack03	2	ProbeTrackDT	1.1	SCS215a	20101029.091219	20101029.092412	single-task	8	0.013328	60	10	60-180	60	175	GapExp	0	108	2	3	0	target	0	640	-1000	55897	13.328	13.004	13.640
DTProbeTrack03	2	ProbeTrackDT	1.1	SCS215a	20101029.091219	20101029.092418	single-task	8	0.013328	60	10	60-180	60	176	GapExp	0	109	2	45	1	target	1	733	634	56531	13.328	13.052	13.598
DTProbeTrack03	2	ProbeTrackDT	1.1	SCS215a	20101029.091219	20101029.092425	single-task	8	0.013328	60	10	60-180	60	74	GapExp	0	110	2	45	0	distractor	1	987	507	57038	13.631	13.074	93.283
DTProbeTrack03	2	ProbeTrackDT	1.1	SCS215a	20101029.091219	20101029.092432	single-task	8	0.013328	60	10	60-180	60	76	GapExp	0	111	2	45	1	target	1	840	580	57618	13.328	12.975	13.681
DTProbeTrack03	2	ProbeTrackDT	1.1	SCS215a	20101029.091219	20101029.092438	single-task	8	0.013328	60	10	60-180	60	158	GapExp	0	112	2	6	0	distractor	1	707	647	58265	13.328	12.957	13.695
DTProbeTrack03	2	ProbeTrackDT	1.1	SCS215a	20101029.091219	20101029.092444	single-task	8	0.013328	60	10	60-180	60	139	GapExp	0	113	2	6	1	target	1	560	720	58985	13.328	12.906	13.755
DTProbeTrack03	2	ProbeTrackDT	1.1	SCS215a	20101029.091219	20101029.092450	single-task	8	0.013328	60	10	60-180	60	77	GapExp	0	114	2	1	1	target	1	627	687	59672	13.328	13.077	13.590
DTProbeTrack03	2	ProbeTrackDT	1.1	SCS215a	20101029.091219	20101029.092455	single-task	8	0.013328	60	10	60-180	60	120	GapExp	0	115	2	9	1	target	1	680	660	60332	13.328	12.849	13.811
DTProbeTrack03	2	ProbeTrackDT	1.1	SCS215a	20101029.091219	20101029.092501	single-task	8	0.013328	60	10	60-180	60	110	GapExp	0	116	2	3	0	distractor	1	547	727	61059	13.328	13.013	13.631
DTProbeTrack03	2	ProbeTrackDT	1.1	SCS215a	20101029.091219	20101029.092507	single-task	8	0.013328	60	10	60-180	60	111	GapExp	0	117	2	3	0	distractor	1	587	707	61766	13.328	12.906	13.761
DTProbeTrack03	2	ProbeTrackDT	1.1	SCS215a	20101029.091219	20101029.092512	single-task	8	0.013328	60	10	60-180	60	111	GapExp	0	118	2	3	0	distractor	1	787	607	62373	13.328	12.850	13.797
DTProbeTrack03	2	ProbeTrackDT	1.1	SCS215a	20101029.091219	20101029.092518	single-task	8	0.013328	60	10	60-180	60	62	GapExp	0	119	2	45	1	target	1	720	640	63013	13.328	12.942	13.726
DTProbeTrack03	2	ProbeTrackDT	1.1	SCS215a	20101029.091219	20101029.092524	single-task	8	0.013328	60	10	60-180	60	107	GapExp	0	120	2	3	1	target	1	520	740	63753	13.328	13.032	13.618
DTProbeTrack03	2	ProbeTrackDT	1.1	SCS215a	20101029.091219	20101029.092529	single-task	8	0.013328	60	10	60-180	60	76	GapExp	0	121	2	45	0	target	0	653	-1000	62753	13.328	13.093	13.548
DTProbeTrack03	2	ProbeTrackDT	1.1	SCS215a	20101029.091219	20101029.092535	single-task	8	0.013328	60	10	60-180	60	63	GapExp	0	122	2	45	1	distractor	0	973	-1000	61753	13.328	13.309	13.353
DTProbeTrack03	2	ProbeTrackDT	1.1	SCS215a	20101029.091219	20101029.092541	single-task	8	0.013328	60	10	60-180	60	121	GapExp	0	123	2	1	1	target	1	653	674	62427	13.328	12.839	13.810
DTProbeTrack03	2	ProbeTrackDT	1.1	SCS215a	20101029.091219	20101029.092547	single-task	8	0.013328	60	10	60-180	60	61	GapExp	0	124	2	1	0	distractor	1	800	600	63027	13.328	13.309	13.345
DTProbeTrack03	2	ProbeTrackDT	1.1	SCS215a	20101029.091219	20101029.092552	single-task	8	0.013328	60	10	60-180	60	129	GapExp	0	125	2	3	1	target	1	574	713	63740	13.328	13.083	13.551
DTProbeTrack03	2	ProbeTrackDT	1.1	SCS215a	20101029.091219	20101029.092558	single-task	8	0.013328	60	10	60-180	60	115	GapExp	0	126	2	3	1	target	1	680	660	64400	13.328	12.872	13.793
DTProbeTrack03	2	ProbeTrackDT	1.1	SCS215a	20101029.091219	20101029.092603	single-task	8	0.013328	60	10	60-180	60	100	GapExp	0	127	2	9	1	target	1	560	720	65120	13.328	12.866	13.793
DTProbeTrack03	2	ProbeTrackDT	1.1	SCS215a	20101029.091219	20101029.092609	single-task	8	0.013328	60	10	60-180	60	72	GapExp	0	128	2	45	1	target	1	587	707	65827	13.328	12.836	13.807
DTProbeTrack03	2	ProbeTrackDT	1.1	SCS215a	20101029.091219	20101029.092614	single-task	8	0.013328	60	10	60-180	60	73	GapExp	0	129	2	1	1	target	1	840	580	66407	13.328	12.905	13.743
DTProbeTrack03	2	ProbeTrackDT	1.1	SCS215a	20101029.091219	20101029.092620	single-task	8	0.013328	60	10	60-180	60	176	GapExp	0	130	2	45	0	distractor	1	667	667	67074	13.328	12.888	13.756
DTProbeTrack03	2	ProbeTrackDT	1.1	SCS215a	20101029.091219	20101029.092627	single-task	8	0.013328	60	10	60-180	60	144	GapExp	0	131	2	9	1	target	1	627	687	67761	13.328	13.099	13.558
DTProbeTrack03	2	ProbeTrackDT	1.1	SCS215a	20101029.091219	20101029.092633	single-task	8	0.013328	60	10	60-180	60	75	GapExp	0	132	2	9	0	distractor	1	987	507	68268	13.328	12.840	13.815
DTProbeTrack03	2	ProbeTrackDT	1.1	SCS215a	20101029.091219	20101029.092639	single-task	8	0.013328	60	10	60-180	60	158	GapExp	0	133	2	3	0	target	0	880	-1000	67268	13.328	12.864	13.788
DTProbeTrack03	2	ProbeTrackDT	1.1	SCS215a	20101029.091219	20101029.092645	single-task	8	0.013328	60	10	60-180	60	76	GapExp	0	134	2	3	1	target	1	694	653	67921	13.328	12.918	13.741
DTProbeTrack03	2	ProbeTrackDT	1.1	SCS215a	20101029.091219	20101029.092650	single-task	8	0.013328	60	10	60-180	60	118	GapExp	0	135	2	3	1	target	1	600	700	68621	13.328	12.962	13.691
DTProbeTrack03	2	ProbeTrackDT	1.1	SCS215a	20101029.091219	20101029.092656	single-task	8	0.013328	60	10	60-180	60	141	GapExp	0	136	2	3	1	target	1	800	600	69221	13.328	12.876	13.779
DTProbeTrack03	2	ProbeTrackDT	1.1	SCS215a	20101029.091219	20101029.092702	single-task	8	0.013328	60	10	60-180	60	131	GapExp	0	137	2	1	0	distractor	1	813	594	69815	13.328	13.096	13.560
DTProbeTrack03	2	ProbeTrackDT	1.1	SCS215a	20101029.091219	20101029.092708	single-task	8	0.013328	60	10	60-180	60	140	GapExp	0	138	2	9	0	distractor	1	1053	474	70289	13.328	12.996	13.673
DTProbeTrack03	2	ProbeTrackDT	1.1	SCS215a	20101029.091219	20101029.092715	single-task	8	0.013328	60	10	60-180	60	73	GapExp	0	139	2	9	0	distractor	1	867	567	70856	13.328	12.887	13.785
DTProbeTrack03	2	ProbeTrackDT	1.1	SCS215a	20101029.091219	20101029.092720	single-task	8	0.013328	60	10	60-180	60	147	GapExp	0	140	2	3	1	target	1	653	674	71530	13.328	13.306	13.348
DTProbeTrack03	2	ProbeTrackDT	1.1	SCS215a	20101029.091219	20101029.092726	single-task	8	0.013328	60	10	60-180	60	126	GapExp	0	141	2	3	0	distractor	1	680	660	72190	13.328	13.086	13.582
DTProbeTrack03	2	ProbeTrackDT	1.1	SCS215a	20101029.091219	20101029.092732	single-task	8	0.013328	60	10	60-180	60	86	GapExp	0	142	2	6	1	target	1	574	713	72903	13.328	12.930	13.721
DTProbeTrack03	2	ProbeTrackDT	1.1	SCS215a	20101029.091219	20101029.092738	single-task	8	0.013328	60	10	60-180	60	154	GapExp	0	143	2	6	1	target	1	560	720	73623	13.328	12.935	13.711
DTProbeTrack03	2	ProbeTrackDT	1.1	SCS215a	20101029.091219	20101029.092744	single-task	8	0.013328	60	10	60-180	60	143	GapExp	0	144	2	1	0	distractor	1	720	640	74263	13.328	13.099	13.572
DTProbeTrack03	2	ProbeTrackDT	1.1	SCS215a	20101029.091219	20101029.092750	single-task	8	0.013328	60	10	60-180	60	62	GapExp	0	145	2	6	0	target	0	800	-1000	73263	13.328	12.998	13.663
DTProbeTrack03	2	ProbeTrackDT	1.1	SCS215a	20101029.091219	20101029.092755	single-task	8	0.013328	60	10	60-180	60	162	GapExp	0	146	2	45	0	target	0	827	-1000	72263	13.328	12.893	13.778
DTProbeTrack03	2	ProbeTrackDT	1.1	SCS215a	20101029.091219	20101029.092802	single-task	8	0.013328	60	10	60-180	60	166	GapExp	0	147	2	6	0	distractor	1	720	640	72903	13.328	13.039	13.627
DTProbeTrack03	2	ProbeTrackDT	1.1	SCS215a	20101029.091219	20101029.092809	single-task	8	0.013328	60	10	60-180	60	94	GapExp	0	148	2	1	0	distractor	1	614	693	73596	13.328	12.898	13.760
DTProbeTrack03	2	ProbeTrackDT	1.1	SCS215a	20101029.091219	20101029.092814	single-task	8	0.013328	60	10	60-180	60	99	GapExp	0	149	2	45	1	target	1	800	600	74196	13.328	12.896	13.768
DTProbeTrack03	2	ProbeTrackDT	1.1	SCS215a	20101029.091219	20101029.092820	single-task	8	0.013328	60	10	60-180	60	180	GapExp	0	150	2	1	0	distractor	1	933	534	74730	13.328	13.309	13.345
DTProbeTrack03	2	ProbeTrackDT	1.1	SCS215a	20101029.091219	20101029.092917	single-task	8	0.013328	60	10	60-180	60	91	GapExp	0	151	2	6	0	distractor	1	867	567	75297	13.328	13.277	13.370
DTProbeTrack03	2	ProbeTrackDT	1.1	SCS215a	20101029.091219	20101029.092923	single-task	8	0.013328	60	10	60-180	60	64	GapExp	0	152	2	3	0	distractor	1	867	567	75864	13.328	12.862	13.790
DTProbeTrack03	2	ProbeTrackDT	1.1	SCS215a	20101029.091219	20101029.092928	single-task	8	0.013328	60	10	60-180	60	178	GapExp	0	153	2	9	0	distractor	1	560	720	76584	13.328	13.101	13.551
DTProbeTrack03	2	ProbeTrackDT	1.1	SCS215a	20101029.091219	20101029.092935	single-task	8	0.013328	60	10	60-180	60	104	GapExp	0	154	2	9	0	target	0	787	-1000	75584	13.328	13.029	13.628
DTProbeTrack03	2	ProbeTrackDT	1.1	SCS215a	20101029.091219	20101029.092940	single-task	8	0.013328	60	10	60-180	60	71	GapExp	0	155	2	1	0	target	0	867	-1000	74584	13.328	13.307	13.347
DTProbeTrack03	2	ProbeTrackDT	1.1	SCS215a	20101029.091219	20101029.092946	single-task	8	0.013328	60	10	60-180	60	115	GapExp	0	156	2	9	1	target	1	653	674	75258	13.328	12.871	13.780
DTProbeTrack03	2	ProbeTrackDT	1.1	SCS215a	20101029.091219	20101029.092951	single-task	8	0.013328	60	10	60-180	60	149	GapExp	0	157	2	6	0	distractor	1	654	673	75931	13.328	12.883	13.773
DTProbeTrack03	2	ProbeTrackDT	1.1	SCS215a	20101029.091219	20101029.092958	single-task	8	0.013328	60	10	60-180	60	106	GapExp	0	158	2	9	1	target	1	680	660	76591	13.328	12.931	13.726
DTProbeTrack03	2	ProbeTrackDT	1.1	SCS215a	20101029.091219	20101029.093003	single-task	8	0.013328	60	10	60-180	60	69	GapExp	0	159	2	9	1	target	1	720	640	77231	13.328	12.847	13.808
DTProbeTrack03	2	ProbeTrackDT	1.1	SCS215a	20101029.091219	20101029.093009	single-task	8	0.013328	60	10	60-180	60	72	GapExp	0	160	2	9	1	target	1	600	700	77931	13.328	13.299	13.346
DTProbeTrack03	2	ProbeTrackDT	1.1	SCS215a	20101029.091219	20101029.093014	single-task	8	0.013328	60	10	60-180	60	98	GapExp	0	161	2	3	1	target	1	534	733	78664	13.328	13.305	13.360
DTProbeTrack03	2	ProbeTrackDT	1.1	SCS215a	20101029.091219	20101029.093019	single-task	8	0.013328	60	10	60-180	60	157	GapExp	0	162	2	45	1	distractor	0	987	-1000	77664	13.328	13.113	13.552
DTProbeTrack03	2	ProbeTrackDT	1.1	SCS215a	20101029.091219	20101029.093026	single-task	8	0.013328	60	10	60-180	60	128	GapExp	0	163	2	1	0	target	0	667	-1000	76664	13.328	13.144	13.506
DTProbeTrack03	2	ProbeTrackDT	1.1	SCS215a	20101029.091219	20101029.093032	single-task	8	0.013328	60	10	60-180	60	113	GapExp	0	164	2	6	0	distractor	1	773	614	77278	13.328	13.104	13.553
DTProbeTrack03	2	ProbeTrackDT	1.1	SCS215a	20101029.091219	20101029.093038	single-task	8	0.013328	60	10	60-180	60	110	GapExp	0	165	2	1	1	target	1	693	654	77932	13.328	13.099	13.558
DTProbeTrack03	2	ProbeTrackDT	1.1	SCS215a	20101029.091219	20101029.093044	single-task	8	0.013328	60	10	60-180	60	113	GapExp	0	166	2	9	1	target	1	467	767	78699	13.328	12.917	13.746
DTProbeTrack03	2	ProbeTrackDT	1.1	SCS215a	20101029.091219	20101029.093049	single-task	8	0.013328	60	10	60-180	60	136	GapExp	0	167	2	6	1	target	1	587	707	79406	13.328	13.223	13.421
DTProbeTrack03	2	ProbeTrackDT	1.1	SCS215a	20101029.091219	20101029.093055	single-task	8	0.013328	60	10	60-180	60	103	GapExp	0	168	2	1	0	distractor	1	773	614	80020	13.328	13.059	13.604
DTProbeTrack03	2	ProbeTrackDT	1.1	SCS215a	20101029.091219	20101029.093101	single-task	8	0.013328	60	10	60-180	60	157	GapExp	0	169	2	6	1	target	1	707	647	80667	13.328	12.920	13.707
DTProbeTrack03	2	ProbeTrackDT	1.1	SCS215a	20101029.091219	20101029.093107	single-task	8	0.013328	60	10	60-180	60	137	GapExp	0	170	2	1	1	target	1	613	694	81361	13.329	13.100	13.553
DTProbeTrack03	2	ProbeTrackDT	1.1	SCS215a	20101029.091219	20101029.093113	single-task	8	0.013328	60	10	60-180	60	174	GapExp	0	171	2	9	0	distractor	1	614	693	82054	13.328	13.092	13.558
DTProbeTrack03	2	ProbeTrackDT	1.1	SCS215a	20101029.091219	20101029.093120	single-task	8	0.013328	60	10	60-180	60	168	GapExp	0	172	2	1	0	distractor	1	747	627	82681	13.328	13.092	13.557
DTProbeTrack03	2	ProbeTrackDT	1.1	SCS215a	20101029.091219	20101029.093126	single-task	8	0.013328	60	10	60-180	60	131	GapExp	0	173	2	9	1	target	1	627	687	83368	13.328	13.049	13.589
DTProbeTrack03	2	ProbeTrackDT	1.1	SCS215a	20101029.091219	20101029.093132	single-task	8	0.013328	60	10	60-180	60	64	GapExp	0	174	2	6	0	target	0	693	-1000	82368	13.391	12.951	27.019
DTProbeTrack03	2	ProbeTrackDT	1.1	SCS215a	20101029.091219	20101029.093138	single-task	8	0.013328	60	10	60-180	60	97	GapExp	0	175	2	6	1	target	1	654	673	83041	13.328	12.851	13.791
DTProbeTrack03	2	ProbeTrackDT	1.1	SCS215a	20101029.091219	20101029.093143	single-task	8	0.013328	60	10	60-180	60	168	GapExp	0	176	2	1	0	distractor	1	693	654	83695	13.328	12.955	13.714
DTProbeTrack03	2	ProbeTrackDT	1.1	SCS215a	20101029.091219	20101029.093149	single-task	8	0.013328	60	10	60-180	60	79	GapExp	0	177	2	45	1	target	1	720	640	84335	13.328	13.114	13.557
DTProbeTrack03	2	ProbeTrackDT	1.1	SCS215a	20101029.091219	20101029.093155	single-task	8	0.013328	60	10	60-180	60	142	GapExp	0	178	2	45	0	distractor	1	693	654	84989	13.328	13.093	13.569
DTProbeTrack03	2	ProbeTrackDT	1.1	SCS215a	20101029.091219	20101029.093202	single-task	8	0.013328	60	10	60-180	60	120	GapExp	0	179	2	3	1	target	1	560	720	85709	13.328	13.108	13.548
DTProbeTrack03	2	ProbeTrackDT	1.1	SCS215a	20101029.091219	20101029.093208	single-task	8	0.013328	60	10	60-180	60	99	GapExp	0	180	2	9	0	distractor	1	587	707	86416	13.328	12.856	13.799
DTProbeTrack03	2	ProbeTrackDT	1.1	SCS215a	20101029.091219	20101029.093213	single-task	8	0.013328	60	10	60-180	60	67	GapExp	0	181	2	1	0	distractor	1	720	640	87056	13.328	12.972	13.689
DTProbeTrack03	2	ProbeTrackDT	1.1	SCS215a	20101029.091219	20101029.093218	single-task	8	0.013328	60	10	60-180	60	121	GapExp	0	182	2	1	1	target	1	787	607	87663	13.328	12.909	13.729
DTProbeTrack03	2	ProbeTrackDT	1.1	SCS215a	20101029.091219	20101029.093224	single-task	8	0.013328	60	10	60-180	60	87	GapExp	0	183	2	45	0	target	0	1053	-1000	86663	13.328	12.917	13.735
DTProbeTrack03	2	ProbeTrackDT	1.1	SCS215a	20101029.091219	20101029.093230	single-task	8	0.013328	60	10	60-180	60	88	GapExp	0	184	2	9	1	distractor	0	693	-1000	85663	13.328	13.103	13.550
DTProbeTrack03	2	ProbeTrackDT	1.1	SCS215a	20101029.091219	20101029.093236	single-task	8	0.013328	60	10	60-180	60	177	GapExp	0	185	2	9	1	target	1	733	634	86297	13.328	13.303	13.353
DTProbeTrack03	2	ProbeTrackDT	1.1	SCS215a	20101029.091219	20101029.093243	single-task	8	0.013328	60	10	60-180	60	128	GapExp	0	186	2	45	1	target	1	480	760	87057	13.328	12.840	13.808
DTProbeTrack03	2	ProbeTrackDT	1.1	SCS215a	20101029.091219	20101029.093249	single-task	8	0.013328	60	10	60-180	60	63	GapExp	0	187	2	1	1	target	1	614	693	87750	13.328	12.923	13.726
DTProbeTrack03	2	ProbeTrackDT	1.1	SCS215a	20101029.091219	20101029.093254	single-task	8	0.013328	60	10	60-180	60	136	GapExp	0	188	2	45	0	distractor	1	813	594	88344	13.328	13.080	13.560
DTProbeTrack03	2	ProbeTrackDT	1.1	SCS215a	20101029.091219	20101029.093301	single-task	8	0.013328	60	10	60-180	60	61	GapExp	0	189	2	3	0	distractor	1	867	567	88911	13.328	13.034	13.626
DTProbeTrack03	2	ProbeTrackDT	1.1	SCS215a	20101029.091219	20101029.093306	single-task	8	0.013328	60	10	60-180	60	120	GapExp	0	190	2	1	0	distractor	1	880	560	89471	13.328	12.871	13.789
DTProbeTrack03	2	ProbeTrackDT	1.1	SCS215a	20101029.091219	20101029.093312	single-task	8	0.013328	60	10	60-180	60	117	GapExp	0	191	2	6	1	target	1	627	687	90158	13.328	13.309	13.351
DTProbeTrack03	2	ProbeTrackDT	1.1	SCS215a	20101029.091219	20101029.093317	single-task	8	0.013328	60	10	60-180	60	64	GapExp	0	192	2	45	1	target	1	627	687	90845	13.328	13.148	13.497
DTProbeTrack03	2	ProbeTrackDT	1.1	SCS215a	20101029.091219	20101029.093323	single-task	8	0.013328	60	10	60-180	60	84	GapExp	0	193	2	45	0	distractor	1	627	687	91532	13.328	13.306	13.348
DTProbeTrack03	2	ProbeTrackDT	1.1	SCS215a	20101029.091219	20101029.093329	single-task	8	0.013328	60	10	60-180	60	83	GapExp	0	194	2	1	0	distractor	1	880	560	92092	13.328	12.856	13.806
DTProbeTrack03	2	ProbeTrackDT	1.1	SCS215a	20101029.091219	20101029.093334	single-task	8	0.013328	60	10	60-180	60	141	GapExp	0	195	2	9	1	distractor	0	933	-1000	91092	13.328	12.987	13.668
DTProbeTrack03	2	ProbeTrackDT	1.1	SCS215a	20101029.091219	20101029.093341	single-task	8	0.013328	60	10	60-180	60	92	GapExp	0	196	2	9	0	distractor	1	853	574	91666	13.328	12.849	13.813
DTProbeTrack03	2	ProbeTrackDT	1.1	SCS215a	20101029.091219	20101029.093346	single-task	8	0.013328	60	10	60-180	60	152	GapExp	0	197	2	3	1	target	1	547	727	92393	13.328	13.308	13.352
DTProbeTrack03	2	ProbeTrackDT	1.1	SCS215a	20101029.091219	20101029.093352	single-task	8	0.013328	60	10	60-180	60	104	GapExp	0	198	2	3	1	target	1	574	713	93106	13.328	12.898	13.754
DTProbeTrack03	2	ProbeTrackDT	1.1	SCS215a	20101029.091219	20101029.093358	single-task	8	0.013328	60	10	60-180	60	84	GapExp	0	199	2	3	0	target	0	667	-1000	92106	13.328	13.309	13.347
DTProbeTrack03	2	ProbeTrackDT	1.1	SCS215a	20101029.091219	20101029.093403	single-task	8	0.013328	60	10	60-180	60	71	GapExp	0	200	2	1	1	target	1	627	687	92793	13.328	12.890	13.753
DTProbeTrack03	2	ProbeTrackDT	1.1	SCS215a	20101029.091219	20101029.093514	single-task	8	0.013328	60	10	60-180	60	180	GapExp	0	201	2	9	0	distractor	1	574	713	93506	13.328	12.853	13.812
DTProbeTrack03	2	ProbeTrackDT	1.1	SCS215a	20101029.091219	20101029.093521	single-task	8	0.013328	60	10	60-180	60	162	GapExp	0	202	2	9	0	distractor	1	1040	480	93986	13.328	13.001	13.666
DTProbeTrack03	2	ProbeTrackDT	1.1	SCS215a	20101029.091219	20101029.093528	single-task	8	0.013328	60	10	60-180	60	77	GapExp	0	203	2	45	0	distractor	1	693	654	94640	13.328	12.929	13.715
DTProbeTrack03	2	ProbeTrackDT	1.1	SCS215a	20101029.091219	20101029.093533	single-task	8	0.013328	60	10	60-180	60	177	GapExp	0	204	2	9	0	distractor	1	640	680	95320	13.328	13.010	13.647
DTProbeTrack03	2	ProbeTrackDT	1.1	SCS215a	20101029.091219	20101029.093540	single-task	8	0.013328	60	10	60-180	60	161	GapExp	0	205	2	45	1	distractor	0	494	-1000	94320	13.328	13.057	13.593
DTProbeTrack03	2	ProbeTrackDT	1.1	SCS215a	20101029.093912	20101029.093919	dt-generate	8	0.013328	60	10	60-180	60	62	GapPrac	1	1	2	45	1	target	1	667	667	94987	13.328	12.982	13.672
DTProbeTrack03	2	ProbeTrackDT	1.1	SCS215a	20101029.093912	20101029.093924	dt-generate	8	0.013328	60	10	60-180	60	88	GapPrac	1	2	2	3	1	target	1	574	713	95700	13.328	12.892	13.759
DTProbeTrack03	2	ProbeTrackDT	1.1	SCS215a	20101029.093912	20101029.093930	dt-generate	8	0.013328	60	10	60-180	60	97	GapPrac	1	3	2	45	0	distractor	1	1386	307	96007	13.328	12.916	13.747
DTProbeTrack03	2	ProbeTrackDT	1.1	SCS215a	20101029.093912	20101029.093937	dt-generate	8	0.013328	60	10	60-180	60	113	GapPrac	1	4	2	45	0	distractor	1	893	554	96561	13.328	12.872	13.783
DTProbeTrack03	2	ProbeTrackDT	1.1	SCS215a	20101029.093912	20101029.093943	dt-generate	8	0.013328	60	10	60-180	60	90	GapPrac	1	5	2	1	0	distractor	1	1040	480	97041	13.329	13.018	13.621
DTProbeTrack03	2	ProbeTrackDT	1.1	SCS215a	20101029.093912	20101029.093949	dt-generate	8	0.013328	60	10	60-180	60	135	GapPrac	1	6	2	9	0	target	0	693	-1000	96041	13.328	13.014	13.661
DTProbeTrack03	2	ProbeTrackDT	1.1	SCS215a	20101029.093912	20101029.093955	dt-generate	8	0.013328	60	10	60-180	60	85	GapPrac	1	7	2	45	1	distractor	0	894	-1000	95041	13.328	12.850	13.794
DTProbeTrack03	2	ProbeTrackDT	1.1	SCS215a	20101029.093912	20101029.094001	dt-generate	8	0.013328	60	10	60-180	60	71	GapPrac	1	8	2	1	1	target	1	667	667	95708	13.328	13.052	13.601
DTProbeTrack03	2	ProbeTrackDT	1.1	SCS215a	20101029.093912	20101029.094006	dt-generate	8	0.013328	60	10	60-180	60	102	GapPrac	1	9	2	3	0	distractor	1	587	707	96415	13.328	13.058	13.597
DTProbeTrack03	2	ProbeTrackDT	1.1	SCS215a	20101029.093912	20101029.094012	dt-generate	8	0.013328	60	10	60-180	60	116	GapPrac	1	10	2	9	1	target	1	693	654	97069	13.328	12.901	13.748
DTProbeTrack03	2	ProbeTrackDT	1.1	SCS215a	20101029.093912	20101029.094018	dt-generate	8	0.013328	60	10	60-180	60	114	GapPrac	1	11	2	6	0	target	0	1000	-1000	96069	13.328	12.832	13.831
DTProbeTrack03	2	ProbeTrackDT	1.1	SCS215a	20101029.093912	20101029.094024	dt-generate	8	0.013328	60	10	60-180	60	162	GapPrac	1	12	2	6	1	distractor	0	587	-1000	95069	13.328	12.929	13.728
DTProbeTrack03	2	ProbeTrackDT	1.1	SCS215a	20101029.093912	20101029.094030	dt-generate	8	0.013328	60	10	60-180	60	75	GapPrac	1	13	2	6	0	target	0	1266	-1000	94069	13.328	13.296	13.372
DTProbeTrack03	2	ProbeTrackDT	1.1	SCS215a	20101029.093912	20101029.094036	dt-generate	8	0.013328	60	10	60-180	60	175	GapPrac	1	14	2	1	1	target	1	747	627	94696	13.328	13.305	13.350
DTProbeTrack03	2	ProbeTrackDT	1.1	SCS215a	20101029.093912	20101029.094042	dt-generate	8	0.013328	60	10	60-180	60	138	GapPrac	1	15	2	9	0	target	0	920	-1000	93696	13.328	13.219	13.429
DTProbeTrack03	2	ProbeTrackDT	1.1	SCS215a	20101029.093912	20101029.094049	dt-generate	8	0.013328	60	10	60-180	60	139	GapPrac	1	16	2	3	0	distractor	1	547	727	94423	13.328	13.104	13.569
DTProbeTrack03	2	ProbeTrackDT	1.1	SCS215a	20101029.093912	20101029.094055	dt-generate	8	0.013328	60	10	60-180	60	140	GapPrac	1	17	2	1	0	distractor	1	867	567	94990	13.328	12.984	13.663
DTProbeTrack03	2	ProbeTrackDT	1.1	SCS215a	20101029.093912	20101029.094101	dt-generate	8	0.013328	60	10	60-180	60	163	GapPrac	1	18	2	3	1	target	1	947	527	95517	13.328	13.105	13.566
DTProbeTrack03	2	ProbeTrackDT	1.1	SCS215a	20101029.093912	20101029.094108	dt-generate	8	0.013328	60	10	60-180	60	61	GapPrac	1	19	2	9	1	target	1	627	687	96204	13.328	12.860	13.801
DTProbeTrack03	2	ProbeTrackDT	1.1	SCS215a	20101029.093912	20101029.094113	dt-generate	8	0.013328	60	10	60-180	60	65	GapPrac	1	20	2	6	1	target	1	800	600	96804	13.328	13.302	13.359
DTProbeTrack03	2	ProbeTrackDT	1.1	SCS215a	20101029.094156	20101029.094201	dt-generate	8	0.013328	60	10	60-180	60	125	GapExp	1	1	2	45	1	target	1	813	594	97398	13.328	13.300	13.365
DTProbeTrack03	2	ProbeTrackDT	1.1	SCS215a	20101029.094156	20101029.094208	dt-generate	8	0.013328	60	10	60-180	60	108	GapExp	1	2	2	1	0	distractor	1	734	633	98031	13.328	12.991	13.680
DTProbeTrack03	2	ProbeTrackDT	1.1	SCS215a	20101029.094156	20101029.094214	dt-generate	8	0.013328	60	10	60-180	60	174	GapExp	1	3	2	3	0	distractor	1	600	700	98731	13.328	13.025	13.638
DTProbeTrack03	2	ProbeTrackDT	1.1	SCS215a	20101029.094156	20101029.094220	dt-generate	8	0.013328	60	10	60-180	60	175	GapExp	1	4	2	1	1	target	1	653	674	99405	13.328	12.949	13.701
DTProbeTrack03	2	ProbeTrackDT	1.1	SCS215a	20101029.094156	20101029.094227	dt-generate	8	0.013328	60	10	60-180	60	63	GapExp	1	5	2	45	0	distractor	1	987	507	99912	13.328	13.100	13.543
DTProbeTrack03	2	ProbeTrackDT	1.1	SCS215a	20101029.094156	20101029.094232	dt-generate	8	0.013328	60	10	60-180	60	135	GapExp	0	6	2	1	1	target	1	560	720	100632	13.328	13.114	13.545
DTProbeTrack03	2	ProbeTrackDT	1.1	SCS215a	20101029.094156	20101029.094238	dt-generate	8	0.013328	60	10	60-180	60	140	GapExp	0	7	2	9	1	target	1	520	740	101372	13.328	12.911	13.754
DTProbeTrack03	2	ProbeTrackDT	1.1	SCS215a	20101029.094156	20101029.094244	dt-generate	8	0.013328	60	10	60-180	60	180	GapExp	0	8	2	3	1	target	1	680	660	102032	13.328	13.107	13.564
DTProbeTrack03	2	ProbeTrackDT	1.1	SCS215a	20101029.094156	20101029.094251	dt-generate	8	0.013328	60	10	60-180	60	163	GapExp	0	9	2	6	0	distractor	1	854	573	102605	13.328	13.050	13.620
DTProbeTrack03	2	ProbeTrackDT	1.1	SCS215a	20101029.094156	20101029.094258	dt-generate	8	0.013328	60	10	60-180	60	70	GapExp	0	10	2	6	0	target	0	947	-1000	101605	13.750	12.857	39.592
DTProbeTrack03	2	ProbeTrackDT	1.1	SCS215a	20101029.094156	20101029.094303	dt-generate	8	0.013328	60	10	60-180	60	68	GapExp	0	11	2	45	0	distractor	1	1147	427	102032	13.328	12.894	13.768
DTProbeTrack03	2	ProbeTrackDT	1.1	SCS215a	20101029.094156	20101029.094309	dt-generate	8	0.013328	60	10	60-180	60	89	GapExp	0	12	2	3	0	target	0	1040	-1000	101032	13.327	13.086	13.347
DTProbeTrack03	2	ProbeTrackDT	1.1	SCS215a	20101029.094156	20101029.094315	dt-generate	8	0.013328	60	10	60-180	60	152	GapExp	0	13	2	6	1	target	1	547	727	101759	13.328	12.988	13.653
DTProbeTrack03	2	ProbeTrackDT	1.1	SCS215a	20101029.094156	20101029.094321	dt-generate	8	0.013328	60	10	60-180	60	87	GapExp	0	14	2	9	0	distractor	1	747	627	102386	13.328	13.107	13.544
DTProbeTrack03	2	ProbeTrackDT	1.1	SCS215a	20101029.094156	20101029.094327	dt-generate	8	0.013328	60	10	60-180	60	178	GapExp	0	15	2	6	1	target	1	547	727	103113	13.328	13.113	13.545
DTProbeTrack03	2	ProbeTrackDT	1.1	SCS215a	20101029.094156	20101029.094333	dt-generate	8	0.013328	60	10	60-180	60	68	GapExp	0	16	2	45	1	target	1	534	733	103846	13.328	12.968	13.689
DTProbeTrack03	2	ProbeTrackDT	1.1	SCS215a	20101029.094156	20101029.094339	dt-generate	8	0.013328	60	10	60-180	60	169	GapExp	0	17	2	6	1	target	1	1253	374	104220	13.328	12.861	13.802
DTProbeTrack03	2	ProbeTrackDT	1.1	SCS215a	20101029.094156	20101029.094346	dt-generate	8	0.013328	60	10	60-180	60	149	GapExp	0	18	2	6	0	distractor	1	653	674	104894	13.328	13.305	13.356
DTProbeTrack03	2	ProbeTrackDT	1.1	SCS215a	20101029.094156	20101029.094352	dt-generate	8	0.013328	60	10	60-180	60	151	GapExp	0	19	2	1	0	distractor	1	1067	467	105361	13.328	13.203	13.449
DTProbeTrack03	2	ProbeTrackDT	1.1	SCS215a	20101029.094156	20101029.094358	dt-generate	8	0.013328	60	10	60-180	60	84	GapExp	0	20	2	1	0	distractor	1	760	620	105981	13.328	12.869	13.800
DTProbeTrack03	2	ProbeTrackDT	1.1	SCS215a	20101029.094156	20101029.094404	dt-generate	8	0.013328	60	10	60-180	60	119	GapExp	0	21	2	6	1	target	1	507	747	106728	13.328	13.083	13.581
DTProbeTrack03	2	ProbeTrackDT	1.1	SCS215a	20101029.094156	20101029.094409	dt-generate	8	0.013328	60	10	60-180	60	167	GapExp	0	22	2	1	0	distractor	1	1280	360	107088	13.328	12.867	13.563
DTProbeTrack03	2	ProbeTrackDT	1.1	SCS215a	20101029.094156	20101029.094417	dt-generate	8	0.013328	60	10	60-180	60	88	GapExp	0	23	2	1	1	target	1	707	647	107735	13.328	13.308	13.345
DTProbeTrack03	2	ProbeTrackDT	1.1	SCS215a	20101029.094156	20101029.094422	dt-generate	8	0.013328	60	10	60-180	60	178	GapExp	0	24	2	9	0	distractor	1	1400	300	108035	13.328	12.983	13.686
DTProbeTrack03	2	ProbeTrackDT	1.1	SCS215a	20101029.094156	20101029.094429	dt-generate	8	0.013328	60	10	60-180	60	179	GapExp	0	25	2	6	1	target	1	667	667	108702	13.328	13.107	13.556
DTProbeTrack03	2	ProbeTrackDT	1.1	SCS215a	20101029.094156	20101029.094436	dt-generate	8	0.013328	60	10	60-180	60	143	GapExp	0	26	2	45	1	target	1	560	720	109422	13.328	13.305	13.356
DTProbeTrack03	2	ProbeTrackDT	1.1	SCS215a	20101029.094156	20101029.094443	dt-generate	8	0.013328	60	10	60-180	60	110	GapExp	0	27	2	3	1	target	1	800	600	110022	13.328	13.311	13.348
DTProbeTrack03	2	ProbeTrackDT	1.1	SCS215a	20101029.094156	20101029.094448	dt-generate	8	0.013328	60	10	60-180	60	105	GapExp	0	28	2	45	0	distractor	1	693	654	110676	13.328	12.996	13.663
DTProbeTrack03	2	ProbeTrackDT	1.1	SCS215a	20101029.094156	20101029.094455	dt-generate	8	0.013328	60	10	60-180	60	144	GapExp	0	29	2	45	0	distractor	1	733	634	111310	13.328	12.909	13.740
DTProbeTrack03	2	ProbeTrackDT	1.1	SCS215a	20101029.094156	20101029.094501	dt-generate	8	0.013328	60	10	60-180	60	116	GapExp	0	30	2	9	0	distractor	1	747	627	111937	13.378	12.894	27.066
DTProbeTrack03	2	ProbeTrackDT	1.1	SCS215a	20101029.094156	20101029.094507	dt-generate	8	0.013328	60	10	60-180	60	141	GapExp	0	31	2	6	0	distractor	1	3799	0	111937	13.328	13.029	13.637
DTProbeTrack03	2	ProbeTrackDT	1.1	SCS215a	20101029.094156	20101029.094516	dt-generate	8	0.013328	60	10	60-180	60	122	GapExp	0	32	2	1	1	target	1	600	700	112637	13.328	12.895	13.772
DTProbeTrack03	2	ProbeTrackDT	1.1	SCS215a	20101029.094156	20101029.094522	dt-generate	8	0.013328	60	10	60-180	60	154	GapExp	0	33	2	9	0	distractor	1	827	587	113224	13.414	12.856	27.137
DTProbeTrack03	2	ProbeTrackDT	1.1	SCS215a	20101029.094156	20101029.094529	dt-generate	8	0.013328	60	10	60-180	60	145	GapExp	0	34	2	1	0	distractor	1	840	580	113804	13.328	12.819	13.828
DTProbeTrack03	2	ProbeTrackDT	1.1	SCS215a	20101029.094156	20101029.094535	dt-generate	8	0.013328	60	10	60-180	60	93	GapExp	0	35	2	9	1	target	1	600	700	114504	13.328	12.966	13.670
DTProbeTrack03	2	ProbeTrackDT	1.1	SCS215a	20101029.094156	20101029.094540	dt-generate	8	0.013328	60	10	60-180	60	147	GapExp	0	36	2	1	1	distractor	0	1240	-1000	113504	13.328	12.924	13.726
DTProbeTrack03	2	ProbeTrackDT	1.1	SCS215a	20101029.094156	20101029.094547	dt-generate	8	0.013328	60	10	60-180	60	169	GapExp	0	37	2	3	0	target	0	693	-1000	112504	13.328	12.830	13.813
DTProbeTrack03	2	ProbeTrackDT	1.1	SCS215a	20101029.094156	20101029.094554	dt-generate	8	0.013328	60	10	60-180	60	120	GapExp	0	38	2	3	0	target	0	680	-1000	111504	13.328	12.886	13.775
DTProbeTrack03	2	ProbeTrackDT	1.1	SCS215a	20101029.094156	20101029.094559	dt-generate	8	0.013328	60	10	60-180	60	137	GapExp	0	39	2	6	0	distractor	1	733	634	112138	13.328	12.879	13.775
DTProbeTrack03	2	ProbeTrackDT	1.1	SCS215a	20101029.094156	20101029.094606	dt-generate	8	0.013328	60	10	60-180	60	65	GapExp	0	40	2	45	1	distractor	0	853	-1000	111138	13.328	13.213	13.460
DTProbeTrack03	2	ProbeTrackDT	1.1	SCS215a	20101029.094156	20101029.094611	dt-generate	8	0.013328	60	10	60-180	60	159	GapExp	0	41	2	3	1	target	1	520	740	111878	13.328	13.307	13.356
DTProbeTrack03	2	ProbeTrackDT	1.1	SCS215a	20101029.094156	20101029.094618	dt-generate	8	0.013328	60	10	60-180	60	67	GapExp	0	42	2	9	0	distractor	1	813	594	112472	13.328	13.036	13.626
DTProbeTrack03	2	ProbeTrackDT	1.1	SCS215a	20101029.094156	20101029.094623	dt-generate	8	0.013328	60	10	60-180	60	130	GapExp	0	43	2	6	1	target	1	1027	487	112959	13.328	12.905	13.739
DTProbeTrack03	2	ProbeTrackDT	1.1	SCS215a	20101029.094156	20101029.094629	dt-generate	8	0.013328	60	10	60-180	60	167	GapExp	0	44	2	9	0	distractor	1	787	607	113566	13.328	12.871	13.786
DTProbeTrack03	2	ProbeTrackDT	1.1	SCS215a	20101029.094156	20101029.094636	dt-generate	8	0.013328	60	10	60-180	60	82	GapExp	0	45	2	3	0	distractor	1	840	580	114146	13.328	12.906	13.751
DTProbeTrack03	2	ProbeTrackDT	1.1	SCS215a	20101029.094156	20101029.094641	dt-generate	8	0.013328	60	10	60-180	60	177	GapExp	0	46	2	1	1	distractor	0	813	-1000	113146	13.328	12.890	13.778
DTProbeTrack03	2	ProbeTrackDT	1.1	SCS215a	20101029.094156	20101029.094648	dt-generate	8	0.013328	60	10	60-180	60	180	GapExp	0	47	2	3	0	distractor	1	733	634	113780	13.328	13.309	13.347
DTProbeTrack03	2	ProbeTrackDT	1.1	SCS215a	20101029.094156	20101029.094655	dt-generate	8	0.013328	60	10	60-180	60	108	GapExp	0	48	2	6	0	target	0	693	-1000	112780	13.328	12.838	13.822
DTProbeTrack03	2	ProbeTrackDT	1.1	SCS215a	20101029.094156	20101029.094700	dt-generate	8	0.013328	60	10	60-180	60	131	GapExp	0	49	2	3	0	distractor	1	787	607	113387	13.328	13.308	13.346
DTProbeTrack03	2	ProbeTrackDT	1.1	SCS215a	20101029.094156	20101029.094706	dt-generate	8	0.013328	60	10	60-180	60	73	GapExp	0	50	2	1	0	target	0	1040	-1000	112387	13.328	12.956	13.715
DTProbeTrack03	2	ProbeTrackDT	1.1	SCS215a	20101029.094156	20101029.094746	dt-generate	8	0.013328	60	10	60-180	60	113	GapExp	0	51	2	45	0	distractor	1	1013	494	112881	13.328	13.107	13.544
DTProbeTrack03	2	ProbeTrackDT	1.1	SCS215a	20101029.094156	20101029.094752	dt-generate	8	0.013328	60	10	60-180	60	147	GapExp	0	52	2	1	0	distractor	1	827	587	113468	13.328	13.106	13.545
DTProbeTrack03	2	ProbeTrackDT	1.1	SCS215a	20101029.094156	20101029.094759	dt-generate	8	0.013328	60	10	60-180	60	88	GapExp	0	53	2	9	0	distractor	1	560	720	114188	13.328	12.956	13.707
DTProbeTrack03	2	ProbeTrackDT	1.1	SCS215a	20101029.094156	20101029.094804	dt-generate	8	0.013328	60	10	60-180	60	167	GapExp	0	54	2	45	1	distractor	0	813	-1000	113188	13.328	13.307	13.348
DTProbeTrack03	2	ProbeTrackDT	1.1	SCS215a	20101029.094156	20101029.094811	dt-generate	8	0.013328	60	10	60-180	60	146	GapExp	0	55	2	3	1	target	1	733	634	113822	13.328	13.032	13.608
DTProbeTrack03	2	ProbeTrackDT	1.1	SCS215a	20101029.094156	20101029.094817	dt-generate	8	0.013328	60	10	60-180	60	165	GapExp	0	56	2	45	0	target	0	880	-1000	112822	13.328	13.198	13.464
DTProbeTrack03	2	ProbeTrackDT	1.1	SCS215a	20101029.094156	20101029.094825	dt-generate	8	0.013328	60	10	60-180	60	87	GapExp	0	57	2	6	0	distractor	1	787	607	113429	13.328	12.870	13.774
DTProbeTrack03	2	ProbeTrackDT	1.1	SCS215a	20101029.094156	20101029.094830	dt-generate	8	0.013328	60	10	60-180	60	91	GapExp	0	58	2	1	0	target	0	813	-1000	112429	13.328	12.980	13.669
DTProbeTrack03	2	ProbeTrackDT	1.1	SCS215a	20101029.094156	20101029.094836	dt-generate	8	0.013328	60	10	60-180	60	82	GapExp	0	59	2	1	1	distractor	0	680	-1000	111429	13.328	12.945	13.707
DTProbeTrack03	2	ProbeTrackDT	1.1	SCS215a	20101029.094156	20101029.094841	dt-generate	8	0.013328	60	10	60-180	60	82	GapExp	0	60	2	9	1	target	1	2213	0	111429	13.328	12.856	13.785
DTProbeTrack03	2	ProbeTrackDT	1.1	SCS215a	20101029.094156	20101029.094848	dt-generate	8	0.013328	60	10	60-180	60	68	GapExp	0	61	2	6	0	target	0	9730	-1000	110429	13.328	13.309	13.349
DTProbeTrack03	2	ProbeTrackDT	1.1	SCS215a	20101029.094156	20101029.094902	dt-generate	8	0.013328	60	10	60-180	60	119	GapExp	0	62	2	45	0	target	0	1053	-1000	109429	13.328	12.863	13.781
DTProbeTrack03	2	ProbeTrackDT	1.1	SCS215a	20101029.094156	20101029.094909	dt-generate	8	0.013328	60	10	60-180	60	180	GapExp	0	63	2	1	1	target	1	574	713	110142	13.328	12.856	13.790
DTProbeTrack03	2	ProbeTrackDT	1.1	SCS215a	20101029.094156	20101029.094915	dt-generate	8	0.013328	60	10	60-180	60	75	GapExp	0	64	2	1	0	target	0	1040	-1000	109142	13.328	13.305	13.351
DTProbeTrack03	2	ProbeTrackDT	1.1	SCS215a	20101029.094156	20101029.094921	dt-generate	8	0.013328	60	10	60-180	60	137	GapExp	0	65	2	3	1	target	1	574	713	109855	13.328	12.879	13.778
DTProbeTrack03	2	ProbeTrackDT	1.1	SCS215a	20101029.094156	20101029.094927	dt-generate	8	0.013328	60	10	60-180	60	113	GapExp	0	66	2	45	1	target	1	720	640	110495	13.328	12.903	13.755
DTProbeTrack03	2	ProbeTrackDT	1.1	SCS215a	20101029.094156	20101029.094933	dt-generate	8	0.013328	60	10	60-180	60	102	GapExp	0	67	2	45	1	target	1	613	694	111189	13.328	12.898	13.763
DTProbeTrack03	2	ProbeTrackDT	1.1	SCS215a	20101029.094156	20101029.094939	dt-generate	8	0.013328	60	10	60-180	60	124	GapExp	0	68	2	6	0	distractor	1	760	620	111809	13.328	12.891	13.778
DTProbeTrack03	2	ProbeTrackDT	1.1	SCS215a	20101029.094156	20101029.094945	dt-generate	8	0.013328	60	10	60-180	60	128	GapExp	0	69	2	3	0	distractor	1	853	574	112383	13.328	12.985	13.665
DTProbeTrack03	2	ProbeTrackDT	1.1	SCS215a	20101029.094156	20101029.094951	dt-generate	8	0.013328	60	10	60-180	60	161	GapExp	0	70	2	9	1	target	1	760	620	113003	13.328	13.308	13.347
DTProbeTrack03	2	ProbeTrackDT	1.1	SCS215a	20101029.094156	20101029.094958	dt-generate	8	0.013328	60	10	60-180	60	177	GapExp	0	71	2	6	1	target	1	720	640	113643	13.328	13.021	13.626
DTProbeTrack03	2	ProbeTrackDT	1.1	SCS215a	20101029.094156	20101029.095004	dt-generate	8	0.013328	60	10	60-180	60	99	GapExp	0	72	2	1	0	target	0	1013	-1000	112643	13.328	13.309	13.349
DTProbeTrack03	2	ProbeTrackDT	1.1	SCS215a	20101029.094156	20101029.095010	dt-generate	8	0.013328	60	10	60-180	60	69	GapExp	0	73	2	45	1	target	1	614	693	113336	13.328	13.101	13.556
DTProbeTrack03	2	ProbeTrackDT	1.1	SCS215a	20101029.094156	20101029.095016	dt-generate	8	0.013328	60	10	60-180	60	123	GapExp	0	74	2	9	0	target	0	893	-1000	112336	13.328	12.988	13.680
DTProbeTrack03	2	ProbeTrackDT	1.1	SCS215a	20101029.094156	20101029.095022	dt-generate	8	0.013328	60	10	60-180	60	110	GapExp	0	75	2	9	1	target	1	547	727	113063	13.328	13.306	13.348
DTProbeTrack03	2	ProbeTrackDT	1.1	SCS215a	20101029.094156	20101029.095027	dt-generate	8	0.013328	60	10	60-180	60	164	GapExp	0	76	2	6	1	target	1	693	654	113717	13.328	13.092	13.557
DTProbeTrack03	2	ProbeTrackDT	1.1	SCS215a	20101029.094156	20101029.095034	dt-generate	8	0.013328	60	10	60-180	60	138	GapExp	0	77	2	1	0	target	0	840	-1000	112717	13.328	13.311	13.344
DTProbeTrack03	2	ProbeTrackDT	1.1	SCS215a	20101029.094156	20101029.095040	dt-generate	8	0.013328	60	10	60-180	60	144	GapExp	0	78	2	9	0	distractor	1	507	747	113464	13.328	12.848	13.817
DTProbeTrack03	2	ProbeTrackDT	1.1	SCS215a	20101029.094156	20101029.095046	dt-generate	8	0.013328	60	10	60-180	60	175	GapExp	0	79	2	1	1	target	1	614	693	114157	13.328	13.309	13.350
DTProbeTrack03	2	ProbeTrackDT	1.1	SCS215a	20101029.094156	20101029.095053	dt-generate	8	0.013328	60	10	60-180	60	106	GapExp	0	80	2	45	1	target	1	627	687	114844	13.328	12.977	13.692
DTProbeTrack03	2	ProbeTrackDT	1.1	SCS215a	20101029.094156	20101029.095059	dt-generate	8	0.013328	60	10	60-180	60	77	GapExp	0	81	2	3	0	distractor	1	827	587	115431	13.328	13.305	13.347
DTProbeTrack03	2	ProbeTrackDT	1.1	SCS215a	20101029.094156	20101029.095104	dt-generate	8	0.013328	60	10	60-180	60	137	GapExp	0	82	2	45	0	distractor	1	720	640	116071	13.328	12.890	13.783
DTProbeTrack03	2	ProbeTrackDT	1.1	SCS215a	20101029.094156	20101029.095111	dt-generate	8	0.013328	60	10	60-180	60	162	GapExp	0	83	2	3	0	distractor	1	680	660	116731	13.328	12.871	13.786
DTProbeTrack03	2	ProbeTrackDT	1.1	SCS215a	20101029.094156	20101029.095117	dt-generate	8	0.013328	60	10	60-180	60	82	GapExp	0	84	2	9	0	distractor	1	1160	420	117151	13.328	12.950	13.708
DTProbeTrack03	2	ProbeTrackDT	1.1	SCS215a	20101029.094156	20101029.095123	dt-generate	8	0.013328	60	10	60-180	60	143	GapExp	0	85	2	3	1	distractor	0	987	-1000	116151	13.328	12.917	13.742
DTProbeTrack03	2	ProbeTrackDT	1.1	SCS215a	20101029.094156	20101029.095129	dt-generate	8	0.013328	60	10	60-180	60	122	GapExp	0	86	2	45	0	target	0	653	-1000	115151	13.328	13.309	13.345
DTProbeTrack03	2	ProbeTrackDT	1.1	SCS215a	20101029.094156	20101029.095136	dt-generate	8	0.013328	60	10	60-180	60	112	GapExp	0	87	2	6	1	distractor	0	614	-1000	114151	13.328	12.996	13.683
DTProbeTrack03	2	ProbeTrackDT	1.1	SCS215a	20101029.094156	20101029.095142	dt-generate	8	0.013328	60	10	60-180	60	130	GapExp	0	88	2	3	0	target	0	840	-1000	113151	13.328	13.308	13.347
DTProbeTrack03	2	ProbeTrackDT	1.1	SCS215a	20101029.094156	20101029.095148	dt-generate	8	0.013328	60	10	60-180	60	172	GapExp	0	89	2	3	1	distractor	0	707	-1000	112151	13.328	12.954	13.710
DTProbeTrack03	2	ProbeTrackDT	1.1	SCS215a	20101029.094156	20101029.095154	dt-generate	8	0.013328	60	10	60-180	60	159	GapExp	0	90	2	3	0	target	0	2039	-1000	111151	13.328	12.880	13.766
DTProbeTrack03	2	ProbeTrackDT	1.1	SCS215a	20101029.094156	20101029.095202	dt-generate	8	0.013328	60	10	60-180	60	153	GapExp	0	91	2	6	1	target	1	560	720	111871	13.328	12.918	13.727
DTProbeTrack03	2	ProbeTrackDT	1.1	SCS215a	20101029.094156	20101029.095208	dt-generate	8	0.013328	60	10	60-180	60	81	GapExp	0	92	2	9	1	target	1	574	713	112584	13.328	12.851	13.800
DTProbeTrack03	2	ProbeTrackDT	1.1	SCS215a	20101029.094156	20101029.095213	dt-generate	8	0.013328	60	10	60-180	60	136	GapExp	0	93	2	45	0	target	0	773	-1000	111584	13.328	13.102	13.549
DTProbeTrack03	2	ProbeTrackDT	1.1	SCS215a	20101029.094156	20101029.095220	dt-generate	8	0.013328	60	10	60-180	60	107	GapExp	0	94	2	45	0	distractor	1	1000	500	112084	13.328	13.051	13.606
DTProbeTrack03	2	ProbeTrackDT	1.1	SCS215a	20101029.094156	20101029.095226	dt-generate	8	0.013328	60	10	60-180	60	117	GapExp	0	95	2	6	0	distractor	1	667	667	112751	13.328	12.900	13.757
DTProbeTrack03	2	ProbeTrackDT	1.1	SCS215a	20101029.094156	20101029.095232	dt-generate	8	0.013328	60	10	60-180	60	149	GapExp	0	96	2	3	1	target	1	800	600	113351	13.328	13.310	13.347
DTProbeTrack03	2	ProbeTrackDT	1.1	SCS215a	20101029.094156	20101029.095239	dt-generate	8	0.013328	60	10	60-180	60	80	GapExp	0	97	2	3	1	target	1	640	680	114031	13.328	12.963	13.688
DTProbeTrack03	2	ProbeTrackDT	1.1	SCS215a	20101029.094156	20101029.095244	dt-generate	8	0.013328	60	10	60-180	60	145	GapExp	0	98	2	9	1	target	1	1173	414	114445	13.328	13.109	13.542
DTProbeTrack03	2	ProbeTrackDT	1.1	SCS215a	20101029.094156	20101029.095250	dt-generate	8	0.013328	60	10	60-180	60	121	GapExp	0	99	2	9	0	distractor	1	867	567	115012	13.328	12.966	13.677
DTProbeTrack03	2	ProbeTrackDT	1.1	SCS215a	20101029.094156	20101029.095257	dt-generate	8	0.013328	60	10	60-180	60	145	GapExp	0	100	2	6	1	target	1	653	674	115686	13.328	13.098	13.565
DTProbeTrack03	2	ProbeTrackDT	1.1	SCS215a	20101029.094156	20101029.095357	dt-generate	8	0.013328	60	10	60-180	60	120	GapExp	0	101	2	6	1	target	1	627	687	116373	13.328	13.015	13.633
DTProbeTrack03	2	ProbeTrackDT	1.1	SCS215a	20101029.094156	20101029.095403	dt-generate	8	0.013328	60	10	60-180	60	135	GapExp	0	102	2	1	1	target	1	520	740	117113	13.328	12.993	13.681
DTProbeTrack03	2	ProbeTrackDT	1.1	SCS215a	20101029.094156	20101029.095409	dt-generate	8	0.013328	60	10	60-180	60	159	GapExp	0	103	2	3	1	target	1	613	694	117807	13.328	13.309	13.345
DTProbeTrack03	2	ProbeTrackDT	1.1	SCS215a	20101029.094156	20101029.095415	dt-generate	8	0.013328	60	10	60-180	60	86	GapExp	0	104	2	9	0	distractor	1	640	680	118487	13.328	13.001	13.655
DTProbeTrack03	2	ProbeTrackDT	1.1	SCS215a	20101029.094156	20101029.095421	dt-generate	8	0.013328	60	10	60-180	60	100	GapExp	0	105	2	6	1	target	1	547	727	119214	13.328	13.107	13.564
DTProbeTrack03	2	ProbeTrackDT	1.1	SCS215a	20101029.094156	20101029.095426	dt-generate	8	0.013328	60	10	60-180	60	107	GapExp	0	106	2	3	1	target	1	667	667	119881	13.328	12.852	13.795
DTProbeTrack03	2	ProbeTrackDT	1.1	SCS215a	20101029.094156	20101029.095432	dt-generate	8	0.013328	60	10	60-180	60	142	GapExp	0	107	2	45	1	distractor	0	760	-1000	118881	13.328	13.305	13.558
DTProbeTrack03	2	ProbeTrackDT	1.1	SCS215a	20101029.094156	20101029.095439	dt-generate	8	0.013328	60	10	60-180	60	113	GapExp	0	108	2	6	0	distractor	1	973	514	119395	13.328	12.906	13.750
DTProbeTrack03	2	ProbeTrackDT	1.1	SCS215a	20101029.094156	20101029.095445	dt-generate	8	0.013328	60	10	60-180	60	175	GapExp	0	109	2	6	1	target	1	587	707	120102	13.328	13.305	13.359
DTProbeTrack03	2	ProbeTrackDT	1.1	SCS215a	20101029.094156	20101029.095451	dt-generate	8	0.013328	60	10	60-180	60	85	GapExp	0	110	2	1	1	target	1	1120	440	120542	13.328	13.308	13.347
DTProbeTrack03	2	ProbeTrackDT	1.1	SCS215a	20101029.094156	20101029.095457	dt-generate	8	0.013328	60	10	60-180	60	130	GapExp	0	111	2	9	1	target	1	1306	347	120889	13.328	12.850	13.814
DTProbeTrack03	2	ProbeTrackDT	1.1	SCS215a	20101029.094156	20101029.095504	dt-generate	8	0.013328	60	10	60-180	60	62	GapExp	0	112	2	3	0	distractor	1	827	587	121476	13.328	13.002	13.656
DTProbeTrack03	2	ProbeTrackDT	1.1	SCS215a	20101029.094156	20101029.095509	dt-generate	8	0.013328	60	10	60-180	60	104	GapExp	0	113	2	45	1	target	1	880	560	122036	13.328	13.102	13.563
DTProbeTrack03	2	ProbeTrackDT	1.1	SCS215a	20101029.094156	20101029.095515	dt-generate	8	0.013328	60	10	60-180	60	150	GapExp	0	114	2	6	1	target	1	574	713	122749	13.328	13.108	13.549
DTProbeTrack03	2	ProbeTrackDT	1.1	SCS215a	20101029.094156	20101029.095521	dt-generate	8	0.013328	60	10	60-180	60	172	GapExp	0	115	2	1	0	distractor	1	893	554	123303	13.328	12.937	13.720
DTProbeTrack03	2	ProbeTrackDT	1.1	SCS215a	20101029.094156	20101029.095528	dt-generate	8	0.013328	60	10	60-180	60	174	GapExp	0	116	2	9	0	distractor	1	574	713	124016	13.328	13.307	13.348
DTProbeTrack03	2	ProbeTrackDT	1.1	SCS215a	20101029.094156	20101029.095534	dt-generate	8	0.013328	60	10	60-180	60	173	GapExp	0	117	2	9	0	distractor	1	600	700	124716	13.328	13.297	13.347
DTProbeTrack03	2	ProbeTrackDT	1.1	SCS215a	20101029.094156	20101029.095541	dt-generate	8	0.013328	60	10	60-180	60	82	GapExp	0	118	2	9	1	target	1	720	640	125356	13.328	13.011	13.745
DTProbeTrack03	2	ProbeTrackDT	1.1	SCS215a	20101029.094156	20101029.095546	dt-generate	8	0.013328	60	10	60-180	60	100	GapExp	0	119	2	3	0	target	0	907	-1000	124356	13.328	13.110	13.545
DTProbeTrack03	2	ProbeTrackDT	1.1	SCS215a	20101029.094156	20101029.095552	dt-generate	8	0.013328	60	10	60-180	60	114	GapExp	0	120	2	1	1	distractor	0	774	-1000	123356	13.328	12.870	13.779
DTProbeTrack03	2	ProbeTrackDT	1.1	SCS215a	20101029.094156	20101029.095558	dt-generate	8	0.013328	60	10	60-180	60	87	GapExp	0	121	2	3	1	distractor	0	987	-1000	122356	13.328	12.939	13.709
DTProbeTrack03	2	ProbeTrackDT	1.1	SCS215a	20101029.094156	20101029.095604	dt-generate	8	0.013328	60	10	60-180	60	110	GapExp	0	122	2	1	1	target	1	560	720	123076	13.328	13.154	13.504
DTProbeTrack03	2	ProbeTrackDT	1.1	SCS215a	20101029.094156	20101029.095609	dt-generate	8	0.013328	60	10	60-180	60	117	GapExp	0	123	2	1	1	target	1	547	727	123803	13.328	12.868	13.794
DTProbeTrack03	2	ProbeTrackDT	1.1	SCS215a	20101029.094156	20101029.095615	dt-generate	8	0.013328	60	10	60-180	60	163	GapExp	0	124	2	45	0	distractor	1	640	680	124483	13.328	13.257	13.397
DTProbeTrack03	2	ProbeTrackDT	1.1	SCS215a	20101029.094156	20101029.095622	dt-generate	8	0.013328	60	10	60-180	60	109	GapExp	0	125	2	6	0	distractor	1	893	554	125037	13.328	13.309	13.345
DTProbeTrack03	2	ProbeTrackDT	1.1	SCS215a	20101029.094156	20101029.095628	dt-generate	8	0.013328	60	10	60-180	60	62	GapExp	0	126	2	6	0	distractor	1	813	594	125631	13.328	13.095	13.559
DTProbeTrack03	2	ProbeTrackDT	1.1	SCS215a	20101029.094156	20101029.095633	dt-generate	8	0.013328	60	10	60-180	60	99	GapExp	0	127	2	6	0	distractor	1	880	560	126191	13.328	13.084	13.572
DTProbeTrack03	2	ProbeTrackDT	1.1	SCS215a	20101029.094156	20101029.095639	dt-generate	8	0.013328	60	10	60-180	60	93	GapExp	0	128	2	45	1	target	1	734	633	126824	13.328	13.100	13.559
DTProbeTrack03	2	ProbeTrackDT	1.1	SCS215a	20101029.094156	20101029.095645	dt-generate	8	0.013328	60	10	60-180	60	120	GapExp	0	129	2	1	0	distractor	1	587	707	127531	13.328	12.992	13.664
DTProbeTrack03	2	ProbeTrackDT	1.1	SCS215a	20101029.094156	20101029.095651	dt-generate	8	0.013328	60	10	60-180	60	131	GapExp	0	130	2	45	0	distractor	1	454	773	128304	13.328	12.848	13.805
DTProbeTrack03	2	ProbeTrackDT	1.1	SCS215a	20101029.094156	20101029.095657	dt-generate	8	0.013328	60	10	60-180	60	98	GapExp	0	131	2	3	0	target	0	1493	-1000	127304	13.328	13.036	13.612
DTProbeTrack03	2	ProbeTrackDT	1.1	SCS215a	20101029.094156	20101029.095703	dt-generate	8	0.013328	60	10	60-180	60	107	GapExp	0	132	2	9	1	distractor	0	1186	-1000	126304	13.328	12.980	13.679
DTProbeTrack03	2	ProbeTrackDT	1.1	SCS215a	20101029.094156	20101029.095709	dt-generate	8	0.013328	60	10	60-180	60	134	GapExp	0	133	2	9	0	distractor	1	840	580	126884	13.328	13.107	13.563
DTProbeTrack03	2	ProbeTrackDT	1.1	SCS215a	20101029.094156	20101029.095716	dt-generate	8	0.013328	60	10	60-180	60	84	GapExp	0	134	2	3	0	distractor	1	693	654	127538	13.328	13.093	13.556
DTProbeTrack03	2	ProbeTrackDT	1.1	SCS215a	20101029.094156	20101029.095721	dt-generate	8	0.013328	60	10	60-180	60	132	GapExp	0	135	2	9	1	target	1	614	693	128231	13.328	12.937	13.722
DTProbeTrack03	2	ProbeTrackDT	1.1	SCS215a	20101029.094156	20101029.095727	dt-generate	8	0.013328	60	10	60-180	60	62	GapExp	0	136	2	45	0	distractor	1	813	594	128825	13.328	13.282	13.363
DTProbeTrack03	2	ProbeTrackDT	1.1	SCS215a	20101029.094156	20101029.095733	dt-generate	8	0.013328	60	10	60-180	60	103	GapExp	0	137	2	45	1	target	1	520	740	129565	13.328	12.868	13.793
DTProbeTrack03	2	ProbeTrackDT	1.1	SCS215a	20101029.094156	20101029.095739	dt-generate	8	0.013328	60	10	60-180	60	76	GapExp	0	138	2	1	1	target	1	720	640	130205	13.511	12.872	27.096
DTProbeTrack03	2	ProbeTrackDT	1.1	SCS215a	20101029.094156	20101029.095744	dt-generate	8	0.013328	60	10	60-180	60	118	GapExp	0	139	2	3	1	target	1	560	720	130925	13.328	13.102	13.557
DTProbeTrack03	2	ProbeTrackDT	1.1	SCS215a	20101029.094156	20101029.095750	dt-generate	8	0.013328	60	10	60-180	60	121	GapExp	0	140	2	9	1	target	1	560	720	131645	13.328	13.093	13.570
DTProbeTrack03	2	ProbeTrackDT	1.1	SCS215a	20101029.094156	20101029.095755	dt-generate	8	0.013328	60	10	60-180	60	138	GapExp	0	141	2	6	1	target	1	440	780	132425	13.328	12.941	13.723
DTProbeTrack03	2	ProbeTrackDT	1.1	SCS215a	20101029.094156	20101029.095801	dt-generate	8	0.013328	60	10	60-180	60	134	GapExp	0	142	2	1	1	target	1	600	700	133125	13.328	13.308	13.346
DTProbeTrack03	2	ProbeTrackDT	1.1	SCS215a	20101029.094156	20101029.095807	dt-generate	8	0.013328	60	10	60-180	60	89	GapExp	0	143	2	45	0	distractor	1	773	614	133739	13.328	13.308	13.351
DTProbeTrack03	2	ProbeTrackDT	1.1	SCS215a	20101029.094156	20101029.095813	dt-generate	8	0.013328	60	10	60-180	60	125	GapExp	0	144	2	1	0	distractor	1	1453	274	134013	13.328	12.899	13.761
DTProbeTrack03	2	ProbeTrackDT	1.1	SCS215a	20101029.094156	20101029.095820	dt-generate	8	0.013328	60	10	60-180	60	151	GapExp	0	145	2	3	0	distractor	1	1027	487	134500	13.328	12.984	13.671
DTProbeTrack03	2	ProbeTrackDT	1.1	SCS215a	20101029.094156	20101029.095826	dt-generate	8	0.013328	60	10	60-180	60	163	GapExp	0	146	2	1	0	distractor	1	813	594	135094	13.328	13.099	13.552
DTProbeTrack03	2	ProbeTrackDT	1.1	SCS215a	20101029.094156	20101029.095833	dt-generate	8	0.013328	60	10	60-180	60	136	GapExp	0	147	2	9	1	distractor	0	827	-1000	134094	13.328	12.980	13.677
DTProbeTrack03	2	ProbeTrackDT	1.1	SCS215a	20101029.094156	20101029.095839	dt-generate	8	0.013328	60	10	60-180	60	167	GapExp	0	148	2	9	0	distractor	1	1187	407	134501	13.328	12.945	13.717
DTProbeTrack03	2	ProbeTrackDT	1.1	SCS215a	20101029.094156	20101029.095846	dt-generate	8	0.013328	60	10	60-180	60	153	GapExp	0	149	2	3	1	target	1	1373	314	134815	13.328	12.972	13.671
DTProbeTrack03	2	ProbeTrackDT	1.1	SCS215a	20101029.094156	20101029.095853	dt-generate	8	0.013328	60	10	60-180	60	133	GapExp	0	150	2	9	1	target	1	560	720	135535	13.328	13.100	13.552
DTProbeTrack03	2	ProbeTrackDT	1.1	SCS215a	20101029.094156	20101029.095940	dt-generate	8	0.013328	60	10	60-180	60	175	GapExp	0	151	2	45	1	target	1	653	674	136209	13.328	13.054	13.613
DTProbeTrack03	2	ProbeTrackDT	1.1	SCS215a	20101029.094156	20101029.095947	dt-generate	8	0.013328	60	10	60-180	60	137	GapExp	0	152	2	9	0	distractor	1	653	674	136883	13.328	13.227	13.421
DTProbeTrack03	2	ProbeTrackDT	1.1	SCS215a	20101029.094156	20101029.095953	dt-generate	8	0.013328	60	10	60-180	60	138	GapExp	0	153	2	45	0	distractor	1	840	580	137463	13.328	13.302	13.348
DTProbeTrack03	2	ProbeTrackDT	1.1	SCS215a	20101029.094156	20101029.100000	dt-generate	8	0.013328	60	10	60-180	60	106	GapExp	0	154	2	9	1	target	1	853	574	138037	13.328	12.894	13.760
DTProbeTrack03	2	ProbeTrackDT	1.1	SCS215a	20101029.094156	20101029.100006	dt-generate	8	0.013328	60	10	60-180	60	170	GapExp	0	155	2	3	0	distractor	1	867	567	138604	13.328	13.299	13.355
DTProbeTrack03	2	ProbeTrackDT	1.1	SCS215a	20101029.094156	20101029.100012	dt-generate	8	0.013328	60	10	60-180	60	137	GapExp	0	156	2	45	0	target	0	720	-1000	137604	13.327	13.041	13.613
DTProbeTrack03	2	ProbeTrackDT	1.1	SCS215a	20101029.094156	20101029.100019	dt-generate	8	0.013328	60	10	60-180	60	176	GapExp	0	157	2	3	1	target	1	947	527	138131	13.328	12.860	13.790
DTProbeTrack03	2	ProbeTrackDT	1.1	SCS215a	20101029.094156	20101029.100026	dt-generate	8	0.013328	60	10	60-180	60	94	GapExp	0	158	2	6	1	distractor	0	960	-1000	137131	13.328	12.964	13.697
DTProbeTrack03	2	ProbeTrackDT	1.1	SCS215a	20101029.094156	20101029.100031	dt-generate	8	0.013328	60	10	60-180	60	125	GapExp	0	159	2	45	1	target	1	880	560	137691	13.328	13.108	13.537
DTProbeTrack03	2	ProbeTrackDT	1.1	SCS215a	20101029.094156	20101029.100038	dt-generate	8	0.013328	60	10	60-180	60	71	GapExp	0	160	2	6	0	distractor	1	773	614	138305	13.388	12.881	26.584
DTProbeTrack03	2	ProbeTrackDT	1.1	SCS215a	20101029.094156	20101029.100043	dt-generate	8	0.013328	60	10	60-180	60	138	GapExp	0	161	2	3	1	target	1	480	760	139065	13.328	13.112	13.546
DTProbeTrack03	2	ProbeTrackDT	1.1	SCS215a	20101029.094156	20101029.100049	dt-generate	8	0.013328	60	10	60-180	60	70	GapExp	0	162	2	9	0	distractor	1	853	574	139639	13.328	12.878	13.764
DTProbeTrack03	2	ProbeTrackDT	1.1	SCS215a	20101029.094156	20101029.100055	dt-generate	8	0.013328	60	10	60-180	60	172	GapExp	0	163	2	1	0	distractor	1	1013	494	140133	13.328	12.952	13.702
DTProbeTrack03	2	ProbeTrackDT	1.1	SCS215a	20101029.094156	20101029.100101	dt-generate	8	0.013328	60	10	60-180	60	116	GapExp	0	164	2	1	1	target	1	640	680	140813	13.328	12.850	13.807
DTProbeTrack03	2	ProbeTrackDT	1.1	SCS215a	20101029.094156	20101029.100107	dt-generate	8	0.013328	60	10	60-180	60	119	GapExp	0	165	2	9	1	target	1	600	700	141513	13.328	12.852	13.806
DTProbeTrack03	2	ProbeTrackDT	1.1	SCS215a	20101029.094156	20101029.100113	dt-generate	8	0.013328	60	10	60-180	60	75	GapExp	0	166	2	1	1	target	1	1147	427	141940	13.328	13.114	13.551
DTProbeTrack03	2	ProbeTrackDT	1.1	SCS215a	20101029.094156	20101029.100119	dt-generate	8	0.013328	60	10	60-180	60	168	GapExp	0	167	2	1	0	target	0	907	-1000	140940	13.370	12.929	26.987
DTProbeTrack03	2	ProbeTrackDT	1.1	SCS215a	20101029.094156	20101029.100125	dt-generate	8	0.013328	60	10	60-180	60	153	GapExp	0	168	2	3	0	distractor	1	640	680	141620	13.465	12.870	39.469
DTProbeTrack03	2	ProbeTrackDT	1.1	SCS215a	20101029.094156	20101029.100132	dt-generate	8	0.013328	60	10	60-180	60	167	GapExp	0	169	2	45	1	target	1	667	667	142287	13.328	12.932	13.725
DTProbeTrack03	2	ProbeTrackDT	1.1	SCS215a	20101029.094156	20101029.100139	dt-generate	8	0.013328	60	10	60-180	60	157	GapExp	0	170	2	1	1	target	1	613	694	142981	13.328	13.308	13.345
DTProbeTrack03	2	ProbeTrackDT	1.1	SCS215a	20101029.094156	20101029.100145	dt-generate	8	0.013328	60	10	60-180	60	84	GapExp	0	171	2	9	1	target	1	654	673	143654	13.328	13.080	13.564
DTProbeTrack03	2	ProbeTrackDT	1.1	SCS215a	20101029.094156	20101029.100150	dt-generate	8	0.013328	60	10	60-180	60	141	GapExp	0	172	2	6	1	target	1	667	667	144321	13.328	12.871	13.785
DTProbeTrack03	2	ProbeTrackDT	1.1	SCS215a	20101029.094156	20101029.100156	dt-generate	8	0.013328	60	10	60-180	60	79	GapExp	0	173	2	3	0	distractor	1	760	620	144941	13.328	12.959	13.700
DTProbeTrack03	2	ProbeTrackDT	1.1	SCS215a	20101029.094156	20101029.100202	dt-generate	8	0.013328	60	10	60-180	60	133	GapExp	0	174	2	9	1	distractor	0	640	-1000	143941	13.328	12.907	13.755
DTProbeTrack03	2	ProbeTrackDT	1.1	SCS215a	20101029.094156	20101029.100208	dt-generate	8	0.013328	60	10	60-180	60	109	GapExp	0	175	2	1	1	target	1	760	620	144561	13.328	13.309	13.357
DTProbeTrack03	2	ProbeTrackDT	1.1	SCS215a	20101029.094156	20101029.100213	dt-generate	8	0.013328	60	10	60-180	60	156	GapExp	0	176	2	45	0	distractor	1	760	620	145181	13.328	12.989	13.666
DTProbeTrack03	2	ProbeTrackDT	1.1	SCS215a	20101029.094156	20101029.100220	dt-generate	8	0.013328	60	10	60-180	60	111	GapExp	0	177	2	3	1	target	1	614	693	145874	13.328	12.981	13.675
DTProbeTrack03	2	ProbeTrackDT	1.1	SCS215a	20101029.094156	20101029.100226	dt-generate	8	0.013328	60	10	60-180	60	125	GapExp	0	178	2	3	1	target	1	1840	80	145954	13.328	12.910	13.750
DTProbeTrack03	2	ProbeTrackDT	1.1	SCS215a	20101029.094156	20101029.100233	dt-generate	8	0.013328	60	10	60-180	60	174	GapExp	0	179	2	6	0	target	0	613	-1000	144954	13.328	12.902	13.753
DTProbeTrack03	2	ProbeTrackDT	1.1	SCS215a	20101029.094156	20101029.100239	dt-generate	8	0.013328	60	10	60-180	60	75	GapExp	0	180	2	45	1	target	1	800	600	145554	13.328	12.929	13.722
DTProbeTrack03	2	ProbeTrackDT	1.1	SCS215a	20101029.094156	20101029.100245	dt-generate	8	0.013328	60	10	60-180	60	166	GapExp	0	181	2	3	0	distractor	1	693	654	146208	13.328	13.105	13.544
DTProbeTrack03	2	ProbeTrackDT	1.1	SCS215a	20101029.094156	20101029.100252	dt-generate	8	0.013328	60	10	60-180	60	85	GapExp	0	182	2	3	1	distractor	0	3719	-1000	145208	13.328	13.094	13.571
DTProbeTrack03	2	ProbeTrackDT	1.1	SCS215a	20101029.094156	20101029.100300	dt-generate	8	0.013328	60	10	60-180	60	99	GapExp	0	183	2	3	1	target	1	627	687	145895	13.328	12.864	13.784
DTProbeTrack03	2	ProbeTrackDT	1.1	SCS215a	20101029.094156	20101029.100306	dt-generate	8	0.013328	60	10	60-180	60	72	GapExp	0	184	2	6	0	target	0	987	-1000	144895	13.328	13.100	13.564
DTProbeTrack03	2	ProbeTrackDT	1.1	SCS215a	20101029.094156	20101029.100311	dt-generate	8	0.013328	60	10	60-180	60	141	GapExp	0	185	2	6	0	distractor	1	773	614	145509	13.328	12.904	13.743
DTProbeTrack03	2	ProbeTrackDT	1.1	SCS215a	20101029.094156	20101029.100317	dt-generate	8	0.013328	60	10	60-180	60	102	GapExp	0	186	2	9	0	distractor	1	600	700	146209	13.328	13.300	13.361
DTProbeTrack03	2	ProbeTrackDT	1.1	SCS215a	20101029.094156	20101029.100323	dt-generate	8	0.013328	60	10	60-180	60	155	GapExp	0	187	2	1	0	target	0	680	-1000	145209	13.328	13.309	13.348
DTProbeTrack03	2	ProbeTrackDT	1.1	SCS215a	20101029.094156	20101029.100329	dt-generate	8	0.013328	60	10	60-180	60	148	GapExp	0	188	2	45	1	target	1	800	600	145809	13.328	12.849	13.801
DTProbeTrack03	2	ProbeTrackDT	1.1	SCS215a	20101029.094156	20101029.100336	dt-generate	8	0.013328	60	10	60-180	60	73	GapExp	0	189	2	6	0	distractor	1	867	567	146376	13.328	13.287	13.368
DTProbeTrack03	2	ProbeTrackDT	1.1	SCS215a	20101029.094156	20101029.100341	dt-generate	8	0.013328	60	10	60-180	60	163	GapExp	0	190	2	1	1	target	1	960	520	146896	13.328	12.871	13.798
DTProbeTrack03	2	ProbeTrackDT	1.1	SCS215a	20101029.094156	20101029.100348	dt-generate	8	0.013328	60	10	60-180	60	86	GapExp	0	191	2	1	0	distractor	1	827	587	147483	13.328	12.997	13.653
DTProbeTrack03	2	ProbeTrackDT	1.1	SCS215a	20101029.094156	20101029.100354	dt-generate	8	0.013328	60	10	60-180	60	146	GapExp	0	192	2	6	1	target	1	613	694	148177	13.328	12.872	13.791
DTProbeTrack03	2	ProbeTrackDT	1.1	SCS215a	20101029.094156	20101029.100400	dt-generate	8	0.013328	60	10	60-180	60	174	GapExp	0	193	2	6	0	distractor	1	733	634	148811	13.328	12.935	13.730
DTProbeTrack03	2	ProbeTrackDT	1.1	SCS215a	20101029.094156	20101029.100406	dt-generate	8	0.013328	60	10	60-180	60	122	GapExp	0	194	2	1	0	distractor	1	947	527	149338	13.328	12.876	13.780
DTProbeTrack03	2	ProbeTrackDT	1.1	SCS215a	20101029.094156	20101029.100412	dt-generate	8	0.013328	60	10	60-180	60	76	GapExp	0	195	2	45	1	target	1	747	627	149965	13.328	12.884	13.778
DTProbeTrack03	2	ProbeTrackDT	1.1	SCS215a	20101029.094156	20101029.100418	dt-generate	8	0.013328	60	10	60-180	60	99	GapExp	0	196	2	45	0	distractor	1	627	687	150652	13.328	12.883	13.759
DTProbeTrack03	2	ProbeTrackDT	1.1	SCS215a	20101029.094156	20101029.100424	dt-generate	8	0.013328	60	10	60-180	60	115	GapExp	0	197	2	1	0	distractor	1	720	640	151292	13.328	12.967	13.676
DTProbeTrack03	2	ProbeTrackDT	1.1	SCS215a	20101029.094156	20101029.100430	dt-generate	8	0.013328	60	10	60-180	60	151	GapExp	0	198	2	9	1	target	1	813	594	151886	13.328	13.104	13.557
DTProbeTrack03	2	ProbeTrackDT	1.1	SCS215a	20101029.094156	20101029.100437	dt-generate	8	0.013328	60	10	60-180	60	123	GapExp	0	199	2	45	0	distractor	1	1027	487	152373	13.328	12.859	13.785
DTProbeTrack03	2	ProbeTrackDT	1.1	SCS215a	20101029.094156	20101029.100443	dt-generate	8	0.013328	60	10	60-180	60	75	GapExp	0	200	2	9	1	distractor	0	1080	-1000	151373	13.328	13.108	13.540
DTProbeTrack03	2	ProbeTrackDT	1.1	SCS215a	20101029.094156	20101029.100522	dt-generate	8	0.013328	60	10	60-180	60	110	GapExp	0	201	2	45	1	target	1	1080	460	151833	13.328	12.861	13.786
DTProbeTrack03	2	ProbeTrackDT	1.1	SCS215a	20101029.094156	20101029.100528	dt-generate	8	0.013328	60	10	60-180	60	168	GapExp	0	202	2	6	1	target	1	640	680	152513	13.328	12.874	13.765
DTProbeTrack03	2	ProbeTrackDT	1.1	SCS215a	20101029.094156	20101029.100535	dt-generate	8	0.013328	60	10	60-180	60	110	GapExp	0	203	2	9	0	distractor	1	694	653	153166	13.328	13.035	13.621
DTProbeTrack03	2	ProbeTrackDT	1.1	SCS215a	20101029.094156	20101029.100541	dt-generate	8	0.013328	60	10	60-180	60	125	GapExp	0	204	2	45	1	target	1	960	520	153686	13.328	12.883	13.800
DTProbeTrack03	2	ProbeTrackDT	1.1	SCS215a	20101029.094156	20101029.100547	dt-generate	8	0.013328	60	10	60-180	60	140	GapExp	0	205	2	45	0	distractor	1	720	640	154326	13.328	12.913	13.743
DTProbeTrack03	2	ProbeTrackDT	1.1	SCS215a	20101029.100645	20101029.100649	dt-shadow	8	0.013327	60	10	60-180	60	112	GapPrac	1	1	2	9	1	target	1	667	667	154993	13.328	13.098	13.554
DTProbeTrack03	2	ProbeTrackDT	1.1	SCS215a	20101029.100645	20101029.100655	dt-shadow	8	0.013327	60	10	60-180	60	122	GapPrac	1	2	2	3	0	distractor	1	773	614	155607	13.328	12.910	13.727
DTProbeTrack03	2	ProbeTrackDT	1.1	SCS215a	20101029.100645	20101029.100701	dt-shadow	8	0.013327	60	10	60-180	60	120	GapPrac	1	3	2	1	1	target	1	534	733	156340	13.328	12.862	13.786
DTProbeTrack03	2	ProbeTrackDT	1.1	SCS215a	20101029.100645	20101029.100707	dt-shadow	8	0.013327	60	10	60-180	60	65	GapPrac	1	4	2	1	0	distractor	1	840	580	156920	13.328	12.915	13.748
DTProbeTrack03	2	ProbeTrackDT	1.1	SCS215a	20101029.100645	20101029.100712	dt-shadow	8	0.013327	60	10	60-180	60	148	GapPrac	1	5	2	45	0	distractor	1	374	813	157733	13.328	12.984	13.674
DTProbeTrack03	2	ProbeTrackDT	1.1	SCS215a	20101029.100645	20101029.100718	dt-shadow	8	0.013327	60	10	60-180	60	115	GapPrac	1	6	2	6	1	target	1	787	607	158340	13.328	13.114	13.550
DTProbeTrack03	2	ProbeTrackDT	1.1	SCS215a	20101029.100645	20101029.100724	dt-shadow	8	0.013327	60	10	60-180	60	137	GapPrac	1	7	2	9	0	distractor	1	880	560	158900	13.328	12.928	13.716
DTProbeTrack03	2	ProbeTrackDT	1.1	SCS215a	20101029.100645	20101029.100730	dt-shadow	8	0.013327	60	10	60-180	60	161	GapPrac	1	8	2	6	0	distractor	1	614	693	159593	13.328	13.092	13.552
DTProbeTrack03	2	ProbeTrackDT	1.1	SCS215a	20101029.100645	20101029.100737	dt-shadow	8	0.013327	60	10	60-180	60	144	GapPrac	1	9	2	9	1	distractor	0	1067	-1000	158593	13.328	12.864	13.800
DTProbeTrack03	2	ProbeTrackDT	1.1	SCS215a	20101029.100645	20101029.100743	dt-shadow	8	0.013327	60	10	60-180	60	166	GapPrac	1	10	2	9	0	distractor	1	813	594	159187	13.328	13.087	13.563
DTProbeTrack03	2	ProbeTrackDT	1.1	SCS215a	20101029.100645	20101029.100750	dt-shadow	8	0.013327	60	10	60-180	60	64	GapPrac	1	11	2	1	0	distractor	1	813	594	159781	13.328	13.066	13.579
DTProbeTrack03	2	ProbeTrackDT	1.1	SCS215a	20101029.100645	20101029.100755	dt-shadow	8	0.013327	60	10	60-180	60	147	GapPrac	1	12	2	45	1	target	1	747	627	160408	13.328	12.956	13.701
DTProbeTrack03	2	ProbeTrackDT	1.1	SCS215a	20101029.100645	20101029.100802	dt-shadow	8	0.013327	60	10	60-180	60	90	GapPrac	1	13	2	45	0	distractor	1	1506	247	160655	13.328	12.937	13.707
DTProbeTrack03	2	ProbeTrackDT	1.1	SCS215a	20101029.100645	20101029.100809	dt-shadow	8	0.013327	60	10	60-180	60	96	GapPrac	1	14	2	3	1	target	1	560	720	161375	13.328	13.309	13.347
DTProbeTrack03	2	ProbeTrackDT	1.1	SCS215a	20101029.100645	20101029.100814	dt-shadow	8	0.013327	60	10	60-180	60	156	GapPrac	1	15	2	45	1	target	1	587	707	162082	13.328	13.072	13.586
DTProbeTrack03	2	ProbeTrackDT	1.1	SCS215a	20101029.100645	20101029.100821	dt-shadow	8	0.013327	60	10	60-180	60	180	GapPrac	1	16	2	3	0	target	0	693	-1000	161082	13.328	12.915	13.738
DTProbeTrack03	2	ProbeTrackDT	1.1	SCS215a	20101029.100645	20101029.100827	dt-shadow	8	0.013327	60	10	60-180	60	131	GapPrac	1	17	2	6	1	target	1	587	707	161789	13.328	12.957	13.713
DTProbeTrack03	2	ProbeTrackDT	1.1	SCS215a	20101029.100645	20101029.100833	dt-shadow	8	0.013327	60	10	60-180	60	61	GapPrac	1	18	2	1	1	target	1	667	667	162456	13.328	12.936	13.716
DTProbeTrack03	2	ProbeTrackDT	1.1	SCS215a	20101029.100645	20101029.100838	dt-shadow	8	0.013327	60	10	60-180	60	63	GapPrac	1	19	2	3	1	target	1	653	674	163130	13.328	13.308	13.346
DTProbeTrack03	2	ProbeTrackDT	1.1	SCS215a	20101029.100645	20101029.100843	dt-shadow	8	0.013327	60	10	60-180	60	113	GapPrac	1	20	2	6	0	distractor	1	1173	414	163544	13.328	13.310	13.347
DTProbeTrack03	2	ProbeTrackDT	1.1	SCS215a	20101029.100919	20101029.100923	dt-shadow	8	0.013328	60	10	60-180	60	176	GapExp	1	1	2	45	1	target	1	547	727	164271	13.328	12.937	13.720
DTProbeTrack03	2	ProbeTrackDT	1.1	SCS215a	20101029.100919	20101029.100930	dt-shadow	8	0.013328	60	10	60-180	60	88	GapExp	1	2	2	9	0	distractor	1	627	687	164958	13.328	13.093	13.550
DTProbeTrack03	2	ProbeTrackDT	1.1	SCS215a	20101029.100919	20101029.100935	dt-shadow	8	0.013328	60	10	60-180	60	92	GapExp	1	3	2	6	1	target	1	547	727	165685	13.328	12.859	13.798
DTProbeTrack03	2	ProbeTrackDT	1.1	SCS215a	20101029.100919	20101029.100941	dt-shadow	8	0.013328	60	10	60-180	60	125	GapExp	1	4	2	45	0	distractor	1	747	627	166312	13.328	12.850	13.745
DTProbeTrack03	2	ProbeTrackDT	1.1	SCS215a	20101029.100919	20101029.100947	dt-shadow	8	0.013328	60	10	60-180	60	110	GapExp	1	5	2	1	1	target	1	653	674	166986	13.328	12.903	13.733
DTProbeTrack03	2	ProbeTrackDT	1.1	SCS215a	20101029.100919	20101029.100953	dt-shadow	8	0.013328	60	10	60-180	60	128	GapExp	0	6	2	3	1	target	1	440	780	167766	13.328	13.115	13.555
DTProbeTrack03	2	ProbeTrackDT	1.1	SCS215a	20101029.100919	20101029.100958	dt-shadow	8	0.013328	60	10	60-180	60	110	GapExp	0	7	2	45	0	distractor	1	627	687	168453	13.328	13.075	13.595
DTProbeTrack03	2	ProbeTrackDT	1.1	SCS215a	20101029.100919	20101029.101005	dt-shadow	8	0.013328	60	10	60-180	60	154	GapExp	0	8	2	9	0	distractor	1	640	680	169133	13.328	13.099	13.556
DTProbeTrack03	2	ProbeTrackDT	1.1	SCS215a	20101029.100919	20101029.101011	dt-shadow	8	0.013328	60	10	60-180	60	93	GapExp	0	9	2	1	1	distractor	0	813	-1000	168133	13.328	13.311	13.346
DTProbeTrack03	2	ProbeTrackDT	1.1	SCS215a	20101029.100919	20101029.101017	dt-shadow	8	0.013328	60	10	60-180	60	91	GapExp	0	10	2	9	1	target	1	520	740	168873	13.328	13.098	13.557
DTProbeTrack03	2	ProbeTrackDT	1.1	SCS215a	20101029.100919	20101029.101022	dt-shadow	8	0.013328	60	10	60-180	60	136	GapExp	0	11	2	9	0	distractor	1	720	640	169513	13.328	13.015	13.631
DTProbeTrack03	2	ProbeTrackDT	1.1	SCS215a	20101029.100919	20101029.101028	dt-shadow	8	0.013328	60	10	60-180	60	63	GapExp	0	12	2	6	0	distractor	1	667	667	170180	13.328	13.110	13.553
DTProbeTrack03	2	ProbeTrackDT	1.1	SCS215a	20101029.100919	20101029.101033	dt-shadow	8	0.013328	60	10	60-180	60	83	GapExp	0	13	2	6	1	target	1	614	693	170873	13.328	13.034	13.613
DTProbeTrack03	2	ProbeTrackDT	1.1	SCS215a	20101029.100919	20101029.101038	dt-shadow	8	0.013328	60	10	60-180	60	165	GapExp	0	14	2	1	0	distractor	1	560	720	171593	13.328	12.975	13.672
DTProbeTrack03	2	ProbeTrackDT	1.1	SCS215a	20101029.100919	20101029.101045	dt-shadow	8	0.013328	60	10	60-180	60	65	GapExp	0	15	2	45	0	distractor	1	947	527	172120	13.328	12.901	13.760
DTProbeTrack03	2	ProbeTrackDT	1.1	SCS215a	20101029.100919	20101029.101050	dt-shadow	8	0.013328	60	10	60-180	60	169	GapExp	0	16	2	9	1	target	1	507	747	172867	13.328	12.897	13.751
DTProbeTrack03	2	ProbeTrackDT	1.1	SCS215a	20101029.100919	20101029.101057	dt-shadow	8	0.013328	60	10	60-180	60	130	GapExp	0	17	2	3	1	target	1	560	720	173587	13.328	13.311	13.347
DTProbeTrack03	2	ProbeTrackDT	1.1	SCS215a	20101029.100919	20101029.101103	dt-shadow	8	0.013328	60	10	60-180	60	94	GapExp	0	18	2	6	1	target	1	627	687	174274	13.328	13.046	13.624
DTProbeTrack03	2	ProbeTrackDT	1.1	SCS215a	20101029.100919	20101029.101108	dt-shadow	8	0.013328	60	10	60-180	60	133	GapExp	0	19	2	9	1	target	1	574	713	174987	13.328	12.929	13.738
DTProbeTrack03	2	ProbeTrackDT	1.1	SCS215a	20101029.100919	20101029.101114	dt-shadow	8	0.013328	60	10	60-180	60	100	GapExp	0	20	2	45	0	distractor	1	947	527	175514	13.328	12.933	13.717
DTProbeTrack03	2	ProbeTrackDT	1.1	SCS215a	20101029.100919	20101029.101121	dt-shadow	8	0.013328	60	10	60-180	60	77	GapExp	0	21	2	3	1	target	1	1067	467	175981	13.328	13.051	13.603
DTProbeTrack03	2	ProbeTrackDT	1.1	SCS215a	20101029.100919	20101029.101126	dt-shadow	8	0.013328	60	10	60-180	60	113	GapExp	0	22	2	6	1	target	1	480	760	176741	13.328	12.958	13.697
DTProbeTrack03	2	ProbeTrackDT	1.1	SCS215a	20101029.100919	20101029.101132	dt-shadow	8	0.013328	60	10	60-180	60	165	GapExp	0	23	2	45	1	target	1	560	720	177461	13.328	12.957	13.702
DTProbeTrack03	2	ProbeTrackDT	1.1	SCS215a	20101029.100919	20101029.101139	dt-shadow	8	0.013328	60	10	60-180	60	91	GapExp	0	24	2	9	1	target	1	507	747	178208	13.328	12.870	13.794
DTProbeTrack03	2	ProbeTrackDT	1.1	SCS215a	20101029.100919	20101029.101144	dt-shadow	8	0.013328	60	10	60-180	60	157	GapExp	0	25	2	1	0	distractor	1	800	600	178808	13.328	12.989	13.662
DTProbeTrack03	2	ProbeTrackDT	1.1	SCS215a	20101029.100919	20101029.101150	dt-shadow	8	0.013328	60	10	60-180	60	148	GapExp	0	26	2	9	0	distractor	1	920	540	179348	13.328	13.106	13.552
DTProbeTrack03	2	ProbeTrackDT	1.1	SCS215a	20101029.100919	20101029.101157	dt-shadow	8	0.013328	60	10	60-180	60	128	GapExp	0	27	2	1	1	target	1	1093	454	179802	13.328	13.102	13.552
DTProbeTrack03	2	ProbeTrackDT	1.1	SCS215a	20101029.100919	20101029.101203	dt-shadow	8	0.013328	60	10	60-180	60	67	GapExp	0	28	2	3	0	distractor	1	840	580	180382	13.328	13.310	13.348
DTProbeTrack03	2	ProbeTrackDT	1.1	SCS215a	20101029.100919	20101029.101208	dt-shadow	8	0.013328	60	10	60-180	60	156	GapExp	0	29	2	45	0	distractor	1	933	534	180916	13.328	13.307	13.353
DTProbeTrack03	2	ProbeTrackDT	1.1	SCS215a	20101029.100919	20101029.101216	dt-shadow	8	0.013328	60	10	60-180	60	90	GapExp	0	30	2	1	0	target	0	720	-1000	179916	13.328	13.170	13.492
DTProbeTrack03	2	ProbeTrackDT	1.1	SCS215a	20101029.100919	20101029.101221	dt-shadow	8	0.013328	60	10	60-180	60	81	GapExp	0	31	2	3	1	target	1	653	674	180590	13.388	13.005	26.353
DTProbeTrack03	2	ProbeTrackDT	1.1	SCS215a	20101029.100919	20101029.101226	dt-shadow	8	0.013328	60	10	60-180	60	116	GapExp	0	32	2	45	1	target	1	653	674	181264	13.328	12.839	13.820
DTProbeTrack03	2	ProbeTrackDT	1.1	SCS215a	20101029.100919	20101029.101233	dt-shadow	8	0.013328	60	10	60-180	60	154	GapExp	0	33	2	1	1	target	1	560	720	181984	13.328	13.139	13.532
DTProbeTrack03	2	ProbeTrackDT	1.1	SCS215a	20101029.100919	20101029.101239	dt-shadow	8	0.013328	60	10	60-180	60	134	GapExp	0	34	2	6	1	target	1	520	740	182724	13.328	12.855	13.792
DTProbeTrack03	2	ProbeTrackDT	1.1	SCS215a	20101029.100919	20101029.101245	dt-shadow	8	0.013328	60	10	60-180	60	117	GapExp	0	35	2	45	1	target	1	614	693	183417	13.328	12.919	13.796
DTProbeTrack03	2	ProbeTrackDT	1.1	SCS215a	20101029.100919	20101029.101251	dt-shadow	8	0.013328	60	10	60-180	60	180	GapExp	0	36	2	9	0	target	0	787	-1000	182417	13.328	13.098	13.558
DTProbeTrack03	2	ProbeTrackDT	1.1	SCS215a	20101029.100919	20101029.101258	dt-shadow	8	0.013328	60	10	60-180	60	177	GapExp	0	37	2	6	0	target	0	1093	-1000	181417	13.328	12.998	13.659
DTProbeTrack03	2	ProbeTrackDT	1.1	SCS215a	20101029.100919	20101029.101305	dt-shadow	8	0.013328	60	10	60-180	60	75	GapExp	0	38	2	45	0	distractor	1	840	580	181997	13.328	13.309	13.351
DTProbeTrack03	2	ProbeTrackDT	1.1	SCS215a	20101029.100919	20101029.101311	dt-shadow	8	0.013328	60	10	60-180	60	114	GapExp	0	39	2	9	1	target	1	747	627	182624	13.328	12.920	13.735
