exp	sub	code	rev	comp	runtime	trialtime	stdt	nstim	refreshdur	cuedur	gapdur	gapOnsetRange	durPostProbe	gapOnsetTime	blocktype	prac	trial	ntargets	soa	probeTarget	resp	acc	rt	pts	tpts	meanFrameDur	minFrameDur	maxFrameDur
DTProbeTrack03	8	ProbeTrackDT	1.1	SCS215a	20101112.085912	20101112.090003	single-task	8	0.013328	60	0	60-180	60	61	NoGap	1	1	2	9	0	distractor	1	2319	0	0	13.328	13.097	13.553
DTProbeTrack03	8	ProbeTrackDT	1.1	SCS215a	20101112.085912	20101112.090010	single-task	8	0.013328	60	0	60-180	60	143	NoGap	1	2	2	45	0	distractor	1	1067	467	467	13.328	13.050	13.598
DTProbeTrack03	8	ProbeTrackDT	1.1	SCS215a	20101112.085912	20101112.090017	single-task	8	0.013328	60	0	60-180	60	89	NoGap	1	3	2	6	0	distractor	1	1240	380	847	13.328	13.092	13.553
DTProbeTrack03	8	ProbeTrackDT	1.1	SCS215a	20101112.085912	20101112.090022	single-task	8	0.013328	60	0	60-180	60	148	NoGap	1	4	2	1	0	distractor	1	813	594	1441	13.328	13.308	13.350
DTProbeTrack03	8	ProbeTrackDT	1.1	SCS215a	20101112.085912	20101112.090029	single-task	8	0.013328	60	0	60-180	60	151	NoGap	1	5	2	1	1	target	1	693	654	2095	13.328	13.309	13.351
DTProbeTrack03	8	ProbeTrackDT	1.1	SCS215a	20101112.085912	20101112.090035	single-task	8	0.013328	60	0	60-180	60	83	NoGap	1	6	2	6	0	distractor	1	973	514	2609	13.328	12.878	13.793
DTProbeTrack03	8	ProbeTrackDT	1.1	SCS215a	20101112.085912	20101112.090040	single-task	8	0.013328	60	0	60-180	60	173	NoGap	1	7	2	45	1	target	1	907	547	3156	13.328	12.868	13.782
DTProbeTrack03	8	ProbeTrackDT	1.1	SCS215a	20101112.085912	20101112.090047	single-task	8	0.013328	60	0	60-180	60	144	NoGap	1	8	2	3	1	distractor	0	707	-1000	2156	13.328	13.104	13.553
DTProbeTrack03	8	ProbeTrackDT	1.1	SCS215a	20101112.085912	20101112.090053	single-task	8	0.013328	60	0	60-180	60	94	NoGap	1	9	2	9	0	distractor	1	773	614	2770	13.328	12.880	13.764
DTProbeTrack03	8	ProbeTrackDT	1.1	SCS215a	20101112.085912	20101112.090059	single-task	8	0.013328	60	0	60-180	60	128	NoGap	1	10	2	1	1	target	1	1866	67	2837	13.328	12.834	13.823
DTProbeTrack03	8	ProbeTrackDT	1.1	SCS215a	20101112.085912	20101112.090106	single-task	8	0.013328	60	0	60-180	60	129	NoGap	1	11	2	45	1	target	1	640	680	3517	13.328	13.088	13.568
DTProbeTrack03	8	ProbeTrackDT	1.1	SCS215a	20101112.085912	20101112.090112	single-task	8	0.013328	60	0	60-180	60	102	NoGap	1	12	2	6	1	target	1	587	707	4224	13.328	12.865	13.810
DTProbeTrack03	8	ProbeTrackDT	1.1	SCS215a	20101112.085912	20101112.090117	single-task	8	0.013328	60	0	60-180	60	93	NoGap	1	13	2	1	0	distractor	1	907	547	4771	13.328	12.908	13.787
DTProbeTrack03	8	ProbeTrackDT	1.1	SCS215a	20101112.085912	20101112.090123	single-task	8	0.013328	60	0	60-180	60	98	NoGap	1	14	2	6	1	target	1	520	740	5511	13.328	13.050	13.608
DTProbeTrack03	8	ProbeTrackDT	1.1	SCS215a	20101112.085912	20101112.090128	single-task	8	0.013328	60	0	60-180	60	90	NoGap	1	15	2	1	0	distractor	1	840	580	6091	13.328	13.089	13.550
DTProbeTrack03	8	ProbeTrackDT	1.1	SCS215a	20101112.085912	20101112.090133	single-task	8	0.013328	60	0	60-180	60	137	NoGap	1	16	2	45	0	distractor	1	787	607	6698	13.328	12.940	13.705
DTProbeTrack03	8	ProbeTrackDT	1.1	SCS215a	20101112.085912	20101112.090140	single-task	8	0.013328	60	0	60-180	60	75	NoGap	1	17	2	45	1	target	1	787	607	7305	13.328	13.305	13.352
DTProbeTrack03	8	ProbeTrackDT	1.1	SCS215a	20101112.085912	20101112.090146	single-task	8	0.013328	60	0	60-180	60	108	NoGap	1	18	2	3	1	target	1	694	653	7958	13.328	12.971	13.688
DTProbeTrack03	8	ProbeTrackDT	1.1	SCS215a	20101112.085912	20101112.090151	single-task	8	0.013328	60	0	60-180	60	144	NoGap	1	19	2	45	0	distractor	1	733	634	8592	13.328	13.000	13.649
DTProbeTrack03	8	ProbeTrackDT	1.1	SCS215a	20101112.085912	20101112.090158	single-task	8	0.013328	60	0	60-180	60	69	NoGap	1	20	2	6	0	distractor	1	694	653	9245	13.328	13.295	13.354
DTProbeTrack03	8	ProbeTrackDT	1.1	SCS215a	20101112.085912	20101112.090203	single-task	8	0.013328	60	0	60-180	60	122	NoGap	1	21	2	6	1	target	1	534	733	9978	13.328	13.113	13.544
DTProbeTrack03	8	ProbeTrackDT	1.1	SCS215a	20101112.085912	20101112.090208	single-task	8	0.013328	60	0	60-180	60	63	NoGap	1	22	2	3	1	83	-3	13395	-1000	8978	13.328	12.877	13.770
DTProbeTrack03	8	ProbeTrackDT	1.1	SCS215a	20101112.085912	20101112.090226	single-task	8	0.013328	60	0	60-180	60	64	NoGap	1	23	2	3	0	distractor	1	907	547	9525	13.328	13.065	13.589
DTProbeTrack03	8	ProbeTrackDT	1.1	SCS215a	20101112.085912	20101112.090231	single-task	8	0.013328	60	0	60-180	60	75	NoGap	1	24	2	3	0	distractor	1	574	713	10238	13.328	13.098	13.547
DTProbeTrack03	8	ProbeTrackDT	1.1	SCS215a	20101112.085912	20101112.090236	single-task	8	0.013328	60	0	60-180	60	114	NoGap	1	25	2	3	1	target	1	613	694	10932	13.328	13.308	13.347
DTProbeTrack03	8	ProbeTrackDT	1.1	SCS215a	20101112.085912	20101112.090241	single-task	8	0.013328	60	0	60-180	60	91	NoGap	1	26	2	9	1	target	1	507	747	11679	13.328	12.913	13.742
DTProbeTrack03	8	ProbeTrackDT	1.1	SCS215a	20101112.085912	20101112.090246	single-task	8	0.013328	60	0	60-180	60	122	NoGap	1	27	2	45	0	distractor	1	960	520	12199	13.328	13.090	13.357
DTProbeTrack03	8	ProbeTrackDT	1.1	SCS215a	20101112.085912	20101112.090253	single-task	8	0.013328	60	0	60-180	60	79	NoGap	1	28	2	6	0	distractor	1	720	640	12839	13.328	13.044	13.607
DTProbeTrack03	8	ProbeTrackDT	1.1	SCS215a	20101112.085912	20101112.090258	single-task	8	0.013328	60	0	60-180	60	124	NoGap	1	29	2	45	1	target	1	1040	480	13319	13.328	12.957	13.705
DTProbeTrack03	8	ProbeTrackDT	1.1	SCS215a	20101112.085912	20101112.090305	single-task	8	0.013328	60	0	60-180	60	80	NoGap	1	30	2	9	1	target	1	587	707	14026	13.328	13.268	13.370
DTProbeTrack03	8	ProbeTrackDT	1.1	SCS215a	20101112.085912	20101112.090310	single-task	8	0.013328	60	0	60-180	60	144	NoGap	1	31	2	6	1	distractor	0	827	-1000	13026	13.328	13.168	13.469
DTProbeTrack03	8	ProbeTrackDT	1.1	SCS215a	20101112.085912	20101112.090316	single-task	8	0.013328	60	0	60-180	60	86	NoGap	1	32	2	3	0	distractor	1	680	660	13686	13.328	12.878	13.787
DTProbeTrack03	8	ProbeTrackDT	1.1	SCS215a	20101112.085912	20101112.090321	single-task	8	0.013328	60	0	60-180	60	73	NoGap	1	33	2	1	1	target	1	668	666	14352	13.394	12.854	27.131
DTProbeTrack03	8	ProbeTrackDT	1.1	SCS215a	20101112.085912	20101112.090326	single-task	8	0.013328	60	0	60-180	60	149	NoGap	1	34	2	9	1	target	1	1013	494	14846	13.328	12.867	13.791
DTProbeTrack03	8	ProbeTrackDT	1.1	SCS215a	20101112.085912	20101112.090332	single-task	8	0.013328	60	0	60-180	60	162	NoGap	1	35	2	1	0	distractor	1	640	680	15526	13.328	12.887	13.760
DTProbeTrack03	8	ProbeTrackDT	1.1	SCS215a	20101112.085912	20101112.090339	single-task	8	0.013328	60	0	60-180	60	82	NoGap	1	36	2	9	1	target	1	653	674	16200	13.328	12.854	13.791
DTProbeTrack03	8	ProbeTrackDT	1.1	SCS215a	20101112.085912	20101112.090344	single-task	8	0.013328	60	0	60-180	60	91	NoGap	1	37	2	3	0	distractor	1	600	700	16900	13.328	9.768	16.898
DTProbeTrack03	8	ProbeTrackDT	1.1	SCS215a	20101112.085912	20101112.090349	single-task	8	0.013328	60	0	60-180	60	152	NoGap	1	38	2	1	1	target	1	547	727	17627	13.328	13.030	13.639
DTProbeTrack03	8	ProbeTrackDT	1.1	SCS215a	20101112.085912	20101112.090355	single-task	8	0.013328	60	0	60-180	60	163	NoGap	1	39	2	9	0	distractor	1	707	647	18274	13.328	13.109	13.562
DTProbeTrack03	8	ProbeTrackDT	1.1	SCS215a	20101112.085912	20101112.090401	single-task	8	0.013328	60	0	60-180	60	162	NoGap	1	40	2	9	0	distractor	1	560	720	18994	13.328	13.093	13.562
DTProbeTrack03	8	ProbeTrackDT	1.1	SCS215a	20101112.090505	20101112.090526	single-task	8	0.013328	60	10	60-180	60	79	GapPrac	1	1	2	1	0	distractor	1	1986	7	19001	13.328	13.308	13.346
DTProbeTrack03	8	ProbeTrackDT	1.1	SCS215a	20101112.090505	20101112.090533	single-task	8	0.013328	60	10	60-180	60	178	GapPrac	1	2	2	3	1	distractor	0	1520	-1000	18001	13.328	13.098	13.550
DTProbeTrack03	8	ProbeTrackDT	1.1	SCS215a	20101112.090505	20101112.090540	single-task	8	0.013328	60	10	60-180	60	136	GapPrac	1	3	2	3	0	target	0	1000	-1000	17001	13.328	13.100	13.551
DTProbeTrack03	8	ProbeTrackDT	1.1	SCS215a	20101112.090505	20101112.090546	single-task	8	0.013328	60	10	60-180	60	137	GapPrac	1	4	2	6	0	distractor	1	1093	454	17455	13.328	13.110	13.551
DTProbeTrack03	8	ProbeTrackDT	1.1	SCS215a	20101112.090505	20101112.090553	single-task	8	0.013328	60	10	60-180	60	142	GapPrac	1	5	2	3	1	target	1	867	567	18022	13.328	12.859	13.791
DTProbeTrack03	8	ProbeTrackDT	1.1	SCS215a	20101112.090505	20101112.090559	single-task	8	0.013328	60	10	60-180	60	156	GapPrac	1	6	2	1	0	distractor	1	667	667	18689	13.328	12.969	13.696
DTProbeTrack03	8	ProbeTrackDT	1.1	SCS215a	20101112.090505	20101112.090605	single-task	8	0.013328	60	10	60-180	60	129	GapPrac	1	7	2	45	0	target	0	880	-1000	17689	13.328	12.835	13.826
DTProbeTrack03	8	ProbeTrackDT	1.1	SCS215a	20101112.090505	20101112.090612	single-task	8	0.013328	60	10	60-180	60	161	GapPrac	1	8	2	3	0	distractor	1	667	667	18356	13.328	13.306	13.351
DTProbeTrack03	8	ProbeTrackDT	1.1	SCS215a	20101112.090505	20101112.090618	single-task	8	0.013328	60	10	60-180	60	148	GapPrac	1	9	2	6	1	target	1	627	687	19043	13.328	13.305	13.348
DTProbeTrack03	8	ProbeTrackDT	1.1	SCS215a	20101112.090505	20101112.090625	single-task	8	0.013328	60	10	60-180	60	127	GapPrac	1	10	2	45	0	distractor	1	653	674	19717	13.328	12.866	13.799
DTProbeTrack03	8	ProbeTrackDT	1.1	SCS215a	20101112.090505	20101112.090631	single-task	8	0.013328	60	10	60-180	60	152	GapPrac	1	11	2	9	0	target	0	760	-1000	18717	13.328	12.875	13.776
DTProbeTrack03	8	ProbeTrackDT	1.1	SCS215a	20101112.090505	20101112.090637	single-task	8	0.013328	60	10	60-180	60	124	GapPrac	1	12	2	6	0	distractor	1	600	700	19417	13.379	12.896	26.657
DTProbeTrack03	8	ProbeTrackDT	1.1	SCS215a	20101112.090505	20101112.090643	single-task	8	0.013328	60	10	60-180	60	64	GapPrac	1	13	2	6	1	target	1	590	705	20122	13.328	12.960	13.689
DTProbeTrack03	8	ProbeTrackDT	1.1	SCS215a	20101112.090505	20101112.090648	single-task	8	0.013328	60	10	60-180	60	94	GapPrac	1	14	2	1	1	distractor	0	427	-1000	19122	13.328	13.044	13.595
DTProbeTrack03	8	ProbeTrackDT	1.1	SCS215a	20101112.090505	20101112.090653	single-task	8	0.013328	60	10	60-180	60	104	GapPrac	1	15	2	9	0	distractor	1	640	680	19802	13.328	13.086	13.553
DTProbeTrack03	8	ProbeTrackDT	1.1	SCS215a	20101112.090505	20101112.090659	single-task	8	0.013328	60	10	60-180	60	133	GapPrac	1	16	2	45	1	target	1	760	620	20422	13.328	13.305	13.354
DTProbeTrack03	8	ProbeTrackDT	1.1	SCS215a	20101112.090505	20101112.090705	single-task	8	0.013328	60	10	60-180	60	113	GapPrac	1	17	2	1	1	target	1	707	647	21069	13.328	12.959	13.705
DTProbeTrack03	8	ProbeTrackDT	1.1	SCS215a	20101112.090505	20101112.090711	single-task	8	0.013328	60	10	60-180	60	163	GapPrac	1	18	2	45	1	distractor	0	1173	-1000	20069	13.328	12.987	13.660
DTProbeTrack03	8	ProbeTrackDT	1.1	SCS215a	20101112.090505	20101112.090718	single-task	8	0.013328	60	10	60-180	60	65	GapPrac	1	19	2	9	1	target	1	920	540	20609	13.328	12.945	13.699
DTProbeTrack03	8	ProbeTrackDT	1.1	SCS215a	20101112.090505	20101112.090724	single-task	8	0.013328	60	10	60-180	60	142	GapPrac	1	20	2	9	1	target	1	520	740	21349	13.328	13.099	13.561
DTProbeTrack03	8	ProbeTrackDT	1.1	SCS215a	20101112.090803	20101112.090810	single-task	8	0.013327	60	10	60-180	60	89	GapExp	1	1	2	9	0	distractor	1	-5	1003	22352	13.328	12.835	13.814
DTProbeTrack03	8	ProbeTrackDT	1.1	SCS215a	20101112.090803	20101112.090815	single-task	8	0.013327	60	10	60-180	60	137	GapExp	1	2	2	1	1	target	1	480	760	23112	13.328	13.011	13.651
DTProbeTrack03	8	ProbeTrackDT	1.1	SCS215a	20101112.090803	20101112.090820	single-task	8	0.013327	60	10	60-180	60	153	GapExp	1	3	2	6	1	target	1	800	600	23712	13.328	13.087	13.559
DTProbeTrack03	8	ProbeTrackDT	1.1	SCS215a	20101112.090803	20101112.090827	single-task	8	0.013327	60	10	60-180	60	71	GapExp	1	4	2	3	0	distractor	1	707	647	24359	13.328	13.097	13.561
DTProbeTrack03	8	ProbeTrackDT	1.1	SCS215a	20101112.090803	20101112.090832	single-task	8	0.013327	60	10	60-180	60	108	GapExp	1	5	2	6	0	distractor	1	680	660	25019	13.328	13.122	13.546
DTProbeTrack03	8	ProbeTrackDT	1.1	SCS215a	20101112.090803	20101112.090838	single-task	8	0.013327	60	10	60-180	60	131	GapExp	0	6	2	3	0	distractor	1	680	660	25679	13.328	13.027	13.637
DTProbeTrack03	8	ProbeTrackDT	1.1	SCS215a	20101112.090803	20101112.090844	single-task	8	0.013327	60	10	60-180	60	62	GapExp	0	7	2	3	0	distractor	1	1013	494	26173	13.328	13.099	13.556
DTProbeTrack03	8	ProbeTrackDT	1.1	SCS215a	20101112.090803	20101112.090849	single-task	8	0.013327	60	10	60-180	60	90	GapExp	0	8	2	9	1	target	1	587	707	26880	13.328	13.057	13.603
DTProbeTrack03	8	ProbeTrackDT	1.1	SCS215a	20101112.090803	20101112.090854	single-task	8	0.013327	60	10	60-180	60	72	GapExp	0	9	2	9	1	target	1	587	707	27587	13.328	12.854	13.798
DTProbeTrack03	8	ProbeTrackDT	1.1	SCS215a	20101112.090803	20101112.090859	single-task	8	0.013327	60	10	60-180	60	99	GapExp	0	10	2	3	0	distractor	1	534	733	28320	13.328	12.949	13.706
DTProbeTrack03	8	ProbeTrackDT	1.1	SCS215a	20101112.090803	20101112.090905	single-task	8	0.013327	60	10	60-180	60	97	GapExp	0	11	2	9	0	distractor	1	840	580	28900	13.487	12.888	39.979
DTProbeTrack03	8	ProbeTrackDT	1.1	SCS215a	20101112.090803	20101112.090910	single-task	8	0.013327	60	10	60-180	60	128	GapExp	0	12	2	1	1	target	1	907	547	29447	13.328	13.091	13.552
DTProbeTrack03	8	ProbeTrackDT	1.1	SCS215a	20101112.090803	20101112.090916	single-task	8	0.013327	60	10	60-180	60	176	GapExp	0	13	2	9	1	target	1	614	693	30140	13.328	12.943	13.704
DTProbeTrack03	8	ProbeTrackDT	1.1	SCS215a	20101112.090803	20101112.090923	single-task	8	0.013327	60	10	60-180	60	163	GapExp	0	14	2	6	0	target	0	880	-1000	29140	13.328	12.863	13.789
DTProbeTrack03	8	ProbeTrackDT	1.1	SCS215a	20101112.090803	20101112.090930	single-task	8	0.013327	60	10	60-180	60	166	GapExp	0	15	2	9	1	target	1	520	740	29880	13.328	12.959	13.691
DTProbeTrack03	8	ProbeTrackDT	1.1	SCS215a	20101112.090803	20101112.090936	single-task	8	0.013327	60	10	60-180	60	150	GapExp	0	16	2	3	0	distractor	1	787	607	30487	13.328	13.082	13.573
DTProbeTrack03	8	ProbeTrackDT	1.1	SCS215a	20101112.090803	20101112.090942	single-task	8	0.013327	60	10	60-180	60	154	GapExp	0	17	2	1	1	target	1	827	587	31074	13.328	12.994	13.665
DTProbeTrack03	8	ProbeTrackDT	1.1	SCS215a	20101112.090803	20101112.090949	single-task	8	0.013327	60	10	60-180	60	156	GapExp	0	18	2	1	1	target	1	627	687	31761	13.419	13.302	39.988
DTProbeTrack03	8	ProbeTrackDT	1.1	SCS215a	20101112.090803	20101112.090955	single-task	8	0.013327	60	10	60-180	60	99	GapExp	0	19	2	1	1	target	1	1053	474	32235	13.328	13.308	13.355
DTProbeTrack03	8	ProbeTrackDT	1.1	SCS215a	20101112.090803	20101112.091001	single-task	8	0.013327	60	10	60-180	60	157	GapExp	0	20	2	3	0	distractor	1	374	813	33048	13.328	12.982	13.670
DTProbeTrack03	8	ProbeTrackDT	1.1	SCS215a	20101112.090803	20101112.091007	single-task	8	0.013327	60	10	60-180	60	108	GapExp	0	21	2	9	0	distractor	1	773	614	33662	13.328	12.964	13.688
DTProbeTrack03	8	ProbeTrackDT	1.1	SCS215a	20101112.090803	20101112.091012	single-task	8	0.013327	60	10	60-180	60	141	GapExp	0	22	2	1	0	distractor	1	747	627	34289	13.328	13.099	13.568
DTProbeTrack03	8	ProbeTrackDT	1.1	SCS215a	20101112.090803	20101112.091018	single-task	8	0.013327	60	10	60-180	60	170	GapExp	0	23	2	45	0	target	0	560	-1000	33289	13.328	13.096	13.562
DTProbeTrack03	8	ProbeTrackDT	1.1	SCS215a	20101112.090803	20101112.091025	single-task	8	0.013327	60	10	60-180	60	75	GapExp	0	24	2	45	1	target	1	733	634	33923	13.328	13.093	13.569
DTProbeTrack03	8	ProbeTrackDT	1.1	SCS215a	20101112.090803	20101112.091031	single-task	8	0.013327	60	10	60-180	60	171	GapExp	0	25	2	9	1	target	1	534	733	34656	13.328	12.950	13.694
DTProbeTrack03	8	ProbeTrackDT	1.1	SCS215a	20101112.090803	20101112.091037	single-task	8	0.013327	60	10	60-180	60	68	GapExp	0	26	2	1	0	distractor	1	787	607	35263	13.328	12.895	13.775
DTProbeTrack03	8	ProbeTrackDT	1.1	SCS215a	20101112.090803	20101112.091043	single-task	8	0.013327	60	10	60-180	60	68	GapExp	0	27	2	1	0	distractor	1	827	587	35850	13.328	13.308	13.346
DTProbeTrack03	8	ProbeTrackDT	1.1	SCS215a	20101112.090803	20101112.091048	single-task	8	0.013327	60	10	60-180	60	72	GapExp	0	28	2	9	0	distractor	1	720	640	36490	13.328	12.987	13.677
DTProbeTrack03	8	ProbeTrackDT	1.1	SCS215a	20101112.090803	20101112.091053	single-task	8	0.013327	60	10	60-180	60	87	GapExp	0	29	2	6	1	distractor	0	600	-1000	35490	13.328	13.303	13.350
DTProbeTrack03	8	ProbeTrackDT	1.1	SCS215a	20101112.090803	20101112.091058	single-task	8	0.013327	60	10	60-180	60	67	GapExp	0	30	2	9	0	target	0	707	-1000	34490	13.328	13.307	13.353
DTProbeTrack03	8	ProbeTrackDT	1.1	SCS215a	20101112.090803	20101112.091103	single-task	8	0.013327	60	10	60-180	60	68	GapExp	0	31	2	45	1	target	1	587	707	35197	13.328	13.309	13.346
DTProbeTrack03	8	ProbeTrackDT	1.1	SCS215a	20101112.090803	20101112.091109	single-task	8	0.013327	60	10	60-180	60	113	GapExp	0	32	2	6	0	distractor	1	680	660	35857	13.328	13.095	13.552
DTProbeTrack03	8	ProbeTrackDT	1.1	SCS215a	20101112.090803	20101112.091115	single-task	8	0.013327	60	10	60-180	60	68	GapExp	0	33	2	6	1	target	1	667	667	36524	13.328	13.117	13.549
DTProbeTrack03	8	ProbeTrackDT	1.1	SCS215a	20101112.090803	20101112.091120	single-task	8	0.013327	60	10	60-180	60	77	GapExp	0	34	2	1	0	distractor	1	574	713	37237	13.328	13.309	13.354
DTProbeTrack03	8	ProbeTrackDT	1.1	SCS215a	20101112.090803	20101112.091125	single-task	8	0.013327	60	10	60-180	60	125	GapExp	0	35	2	9	1	distractor	0	680	-1000	36237	13.328	13.309	13.346
DTProbeTrack03	8	ProbeTrackDT	1.1	SCS215a	20101112.090803	20101112.091131	single-task	8	0.013327	60	10	60-180	60	147	GapExp	0	36	2	1	0	distractor	1	773	614	36851	13.328	13.042	13.615
DTProbeTrack03	8	ProbeTrackDT	1.1	SCS215a	20101112.090803	20101112.091137	single-task	8	0.013327	60	10	60-180	60	70	GapExp	0	37	2	3	1	distractor	0	760	-1000	35851	13.328	13.090	13.561
DTProbeTrack03	8	ProbeTrackDT	1.1	SCS215a	20101112.090803	20101112.091142	single-task	8	0.013327	60	10	60-180	60	75	GapExp	0	38	2	9	0	distractor	1	680	660	36511	13.328	13.305	13.363
DTProbeTrack03	8	ProbeTrackDT	1.1	SCS215a	20101112.090803	20101112.091147	single-task	8	0.013327	60	10	60-180	60	163	GapExp	0	39	2	1	0	target	0	400	-1000	35511	13.328	13.278	13.376
DTProbeTrack03	8	ProbeTrackDT	1.1	SCS215a	20101112.090803	20101112.091154	single-task	8	0.013327	60	10	60-180	60	83	GapExp	0	40	2	1	1	distractor	0	507	-1000	34511	13.328	13.223	13.434
DTProbeTrack03	8	ProbeTrackDT	1.1	SCS215a	20101112.090803	20101112.091159	single-task	8	0.013327	60	10	60-180	60	71	GapExp	0	41	2	3	1	target	1	440	780	35291	13.328	13.119	13.552
DTProbeTrack03	8	ProbeTrackDT	1.1	SCS215a	20101112.090803	20101112.091203	single-task	8	0.013327	60	10	60-180	60	148	GapExp	0	42	2	45	0	distractor	1	880	560	35851	13.328	12.951	13.699
DTProbeTrack03	8	ProbeTrackDT	1.1	SCS215a	20101112.090803	20101112.091210	single-task	8	0.013327	60	10	60-180	60	145	GapExp	0	43	2	1	0	distractor	1	640	680	36531	13.328	12.909	13.740
DTProbeTrack03	8	ProbeTrackDT	1.1	SCS215a	20101112.090803	20101112.091216	single-task	8	0.013327	60	10	60-180	60	111	GapExp	0	44	2	1	1	distractor	0	547	-1000	35531	13.328	12.917	13.742
DTProbeTrack03	8	ProbeTrackDT	1.1	SCS215a	20101112.090803	20101112.091222	single-task	8	0.013327	60	10	60-180	60	72	GapExp	0	45	2	45	1	target	1	454	773	36304	13.328	13.240	13.403
DTProbeTrack03	8	ProbeTrackDT	1.1	SCS215a	20101112.090803	20101112.091227	single-task	8	0.013327	60	10	60-180	60	153	GapExp	0	46	2	9	1	target	1	760	620	36924	13.328	12.862	13.806
DTProbeTrack03	8	ProbeTrackDT	1.1	SCS215a	20101112.090803	20101112.091234	single-task	8	0.013327	60	10	60-180	60	164	GapExp	0	47	2	9	0	distractor	1	587	707	37631	13.328	12.862	13.779
DTProbeTrack03	8	ProbeTrackDT	1.1	SCS215a	20101112.090803	20101112.091240	single-task	8	0.013327	60	10	60-180	60	174	GapExp	0	48	2	1	0	target	0	720	-1000	36631	13.328	12.862	13.803
DTProbeTrack03	8	ProbeTrackDT	1.1	SCS215a	20101112.090803	20101112.091247	single-task	8	0.013327	60	10	60-180	60	124	GapExp	0	49	2	3	0	target	0	547	-1000	35631	13.328	12.916	13.741
DTProbeTrack03	8	ProbeTrackDT	1.1	SCS215a	20101112.090803	20101112.091252	single-task	8	0.013327	60	10	60-180	60	104	GapExp	0	50	2	6	0	distractor	1	654	673	36304	13.328	13.101	13.541
DTProbeTrack03	8	ProbeTrackDT	1.1	SCS215a	20101112.090803	20101112.091343	single-task	8	0.013327	60	10	60-180	60	153	GapExp	0	51	2	9	1	distractor	0	720	-1000	35304	13.328	12.979	13.680
DTProbeTrack03	8	ProbeTrackDT	1.1	SCS215a	20101112.090803	20101112.091349	single-task	8	0.013327	60	10	60-180	60	77	GapExp	0	52	2	9	0	distractor	1	800	600	35904	13.732	13.303	93.288
DTProbeTrack03	8	ProbeTrackDT	1.1	SCS215a	20101112.090803	20101112.091355	single-task	8	0.013327	60	10	60-180	60	76	GapExp	0	53	2	6	1	target	1	707	647	36551	13.328	12.978	13.681
DTProbeTrack03	8	ProbeTrackDT	1.1	SCS215a	20101112.090803	20101112.091400	single-task	8	0.013327	60	10	60-180	60	72	GapExp	0	54	2	3	1	distractor	0	720	-1000	35551	13.328	13.308	13.348
DTProbeTrack03	8	ProbeTrackDT	1.1	SCS215a	20101112.090803	20101112.091405	single-task	8	0.013327	60	10	60-180	60	73	GapExp	0	55	2	9	1	target	1	534	733	36284	13.328	12.999	13.660
DTProbeTrack03	8	ProbeTrackDT	1.1	SCS215a	20101112.090803	20101112.091410	single-task	8	0.013327	60	10	60-180	60	107	GapExp	0	56	2	3	0	distractor	1	600	700	36984	13.328	12.971	13.690
DTProbeTrack03	8	ProbeTrackDT	1.1	SCS215a	20101112.090803	20101112.091416	single-task	8	0.013327	60	10	60-180	60	115	GapExp	0	57	2	6	0	distractor	1	707	647	37631	13.328	13.263	13.376
DTProbeTrack03	8	ProbeTrackDT	1.1	SCS215a	20101112.090803	20101112.091422	single-task	8	0.013327	60	10	60-180	60	157	GapExp	0	58	2	3	0	distractor	1	560	720	38351	13.328	12.865	13.796
DTProbeTrack03	8	ProbeTrackDT	1.1	SCS215a	20101112.090803	20101112.091428	single-task	8	0.013327	60	10	60-180	60	114	GapExp	0	59	2	45	0	distractor	1	653	674	39025	13.328	12.923	13.728
DTProbeTrack03	8	ProbeTrackDT	1.1	SCS215a	20101112.090803	20101112.091434	single-task	8	0.013327	60	10	60-180	60	61	GapExp	0	60	2	45	1	target	1	427	787	39812	13.328	13.306	13.353
DTProbeTrack03	8	ProbeTrackDT	1.1	SCS215a	20101112.090803	20101112.091440	single-task	8	0.013327	60	10	60-180	60	64	GapExp	0	61	2	6	1	target	1	614	693	40505	13.328	13.091	13.559
DTProbeTrack03	8	ProbeTrackDT	1.1	SCS215a	20101112.090803	20101112.091445	single-task	8	0.013327	60	10	60-180	60	100	GapExp	0	62	2	3	0	distractor	1	587	707	41212	13.328	12.856	13.788
DTProbeTrack03	8	ProbeTrackDT	1.1	SCS215a	20101112.090803	20101112.091450	single-task	8	0.013327	60	10	60-180	60	113	GapExp	0	63	2	45	0	target	0	773	-1000	40212	13.328	13.306	13.347
DTProbeTrack03	8	ProbeTrackDT	1.1	SCS215a	20101112.090803	20101112.091456	single-task	8	0.013327	60	10	60-180	60	113	GapExp	0	64	2	1	0	distractor	1	760	620	40832	13.380	12.988	26.647
DTProbeTrack03	8	ProbeTrackDT	1.1	SCS215a	20101112.090803	20101112.091502	single-task	8	0.013327	60	10	60-180	60	139	GapExp	0	65	2	1	1	target	1	574	713	41545	13.328	12.889	13.770
DTProbeTrack03	8	ProbeTrackDT	1.1	SCS215a	20101112.090803	20101112.091508	single-task	8	0.013327	60	10	60-180	60	160	GapExp	0	66	2	3	0	target	0	760	-1000	40545	13.328	12.927	13.721
DTProbeTrack03	8	ProbeTrackDT	1.1	SCS215a	20101112.090803	20101112.091515	single-task	8	0.013327	60	10	60-180	60	68	GapExp	0	67	2	1	1	distractor	0	134	-1000	39545	13.328	12.875	13.774
DTProbeTrack03	8	ProbeTrackDT	1.1	SCS215a	20101112.090803	20101112.091519	single-task	8	0.013327	60	10	60-180	60	96	GapExp	0	68	2	6	0	target	0	627	-1000	38545	13.328	12.882	13.786
DTProbeTrack03	8	ProbeTrackDT	1.1	SCS215a	20101112.090803	20101112.091525	single-task	8	0.013327	60	10	60-180	60	140	GapExp	0	69	2	45	1	distractor	0	694	-1000	37545	13.328	12.918	13.742
DTProbeTrack03	8	ProbeTrackDT	1.1	SCS215a	20101112.090803	20101112.091532	single-task	8	0.013327	60	10	60-180	60	137	GapExp	0	70	2	3	1	distractor	0	813	-1000	36545	13.328	13.310	13.345
DTProbeTrack03	8	ProbeTrackDT	1.1	SCS215a	20101112.090803	20101112.091538	single-task	8	0.013327	60	10	60-180	60	92	GapExp	0	71	2	1	1	distractor	0	827	-1000	35545	13.328	13.301	13.361
DTProbeTrack03	8	ProbeTrackDT	1.1	SCS215a	20101112.090803	20101112.091543	single-task	8	0.013327	60	10	60-180	60	168	GapExp	0	72	2	1	1	target	1	547	727	36272	13.328	12.904	13.741
DTProbeTrack03	8	ProbeTrackDT	1.1	SCS215a	20101112.090803	20101112.091550	single-task	8	0.013327	60	10	60-180	60	112	GapExp	0	73	2	9	0	distractor	1	787	607	36879	13.328	13.002	13.667
DTProbeTrack03	8	ProbeTrackDT	1.1	SCS215a	20101112.090803	20101112.091556	single-task	8	0.013327	60	10	60-180	60	88	GapExp	0	74	2	3	0	distractor	1	867	567	37446	13.328	13.093	13.561
DTProbeTrack03	8	ProbeTrackDT	1.1	SCS215a	20101112.090803	20101112.091601	single-task	8	0.013327	60	10	60-180	60	82	GapExp	0	75	2	6	0	target	0	933	-1000	36446	13.329	13.063	13.590
DTProbeTrack03	8	ProbeTrackDT	1.1	SCS215a	20101112.090803	20101112.091607	single-task	8	0.013327	60	10	60-180	60	163	GapExp	0	76	2	45	0	distractor	1	787	607	37053	13.328	12.922	13.741
DTProbeTrack03	8	ProbeTrackDT	1.1	SCS215a	20101112.090803	20101112.091614	single-task	8	0.013327	60	10	60-180	60	158	GapExp	0	77	2	9	1	target	1	627	687	37740	13.328	13.034	13.622
DTProbeTrack03	8	ProbeTrackDT	1.1	SCS215a	20101112.090803	20101112.091620	single-task	8	0.013327	60	10	60-180	60	110	GapExp	0	78	2	1	1	target	1	800	600	38340	13.328	13.135	13.520
DTProbeTrack03	8	ProbeTrackDT	1.1	SCS215a	20101112.090803	20101112.091626	single-task	8	0.013327	60	10	60-180	60	82	GapExp	0	79	2	3	0	distractor	1	760	620	38960	13.328	13.304	13.353
DTProbeTrack03	8	ProbeTrackDT	1.1	SCS215a	20101112.090803	20101112.091631	single-task	8	0.013327	60	10	60-180	60	167	GapExp	0	80	2	1	0	target	0	707	-1000	37960	13.328	13.292	13.354
DTProbeTrack03	8	ProbeTrackDT	1.1	SCS215a	20101112.090803	20101112.091638	single-task	8	0.013327	60	10	60-180	60	112	GapExp	0	81	2	45	0	distractor	1	667	667	38627	13.328	13.098	13.555
DTProbeTrack03	8	ProbeTrackDT	1.1	SCS215a	20101112.090803	20101112.091644	single-task	8	0.013327	60	10	60-180	60	158	GapExp	0	82	2	3	1	target	1	387	807	39434	13.328	13.091	13.556
DTProbeTrack03	8	ProbeTrackDT	1.1	SCS215a	20101112.090803	20101112.091650	single-task	8	0.013327	60	10	60-180	60	93	GapExp	0	83	2	1	0	target	0	787	-1000	38434	13.328	12.864	13.776
DTProbeTrack03	8	ProbeTrackDT	1.1	SCS215a	20101112.090803	20101112.091656	single-task	8	0.013327	60	10	60-180	60	133	GapExp	0	84	2	3	1	target	1	600	700	39134	13.328	13.274	13.394
DTProbeTrack03	8	ProbeTrackDT	1.1	SCS215a	20101112.090803	20101112.091701	single-task	8	0.013327	60	10	60-180	60	67	GapExp	0	85	2	6	0	distractor	1	1373	314	39448	13.328	12.877	13.782
DTProbeTrack03	8	ProbeTrackDT	1.1	SCS215a	20101112.090803	20101112.091707	single-task	8	0.013327	60	10	60-180	60	148	GapExp	0	86	2	3	1	distractor	0	1040	-1000	38448	13.328	13.308	13.350
DTProbeTrack03	8	ProbeTrackDT	1.1	SCS215a	20101112.090803	20101112.091714	single-task	8	0.013327	60	10	60-180	60	72	GapExp	0	87	2	6	0	target	0	534	-1000	37448	13.328	13.084	13.565
DTProbeTrack03	8	ProbeTrackDT	1.1	SCS215a	20101112.090803	20101112.091719	single-task	8	0.013327	60	10	60-180	60	136	GapExp	0	88	2	1	1	target	1	440	780	38228	13.328	13.100	13.550
DTProbeTrack03	8	ProbeTrackDT	1.1	SCS215a	20101112.090803	20101112.091724	single-task	8	0.013327	60	10	60-180	60	164	GapExp	0	89	2	3	0	distractor	1	534	733	38961	13.328	13.309	13.347
DTProbeTrack03	8	ProbeTrackDT	1.1	SCS215a	20101112.090803	20101112.091731	single-task	8	0.013327	60	10	60-180	60	177	GapExp	0	90	2	1	1	target	1	853	574	39535	13.328	13.305	13.358
DTProbeTrack03	8	ProbeTrackDT	1.1	SCS215a	20101112.090803	20101112.091737	single-task	8	0.013327	60	10	60-180	60	144	GapExp	0	91	2	9	0	distractor	1	467	767	40302	13.328	13.309	13.348
DTProbeTrack03	8	ProbeTrackDT	1.1	SCS215a	20101112.090803	20101112.091743	single-task	8	0.013327	60	10	60-180	60	177	GapExp	0	92	2	9	0	distractor	1	867	567	40869	13.328	13.309	13.347
DTProbeTrack03	8	ProbeTrackDT	1.1	SCS215a	20101112.090803	20101112.091750	single-task	8	0.013327	60	10	60-180	60	163	GapExp	0	93	2	45	0	distractor	1	1067	467	41336	13.328	12.919	13.738
DTProbeTrack03	8	ProbeTrackDT	1.1	SCS215a	20101112.090803	20101112.091758	single-task	8	0.013327	60	10	60-180	60	78	GapExp	0	94	2	45	0	distractor	1	760	620	41956	13.328	13.309	13.347
DTProbeTrack03	8	ProbeTrackDT	1.1	SCS215a	20101112.090803	20101112.091803	single-task	8	0.013327	60	10	60-180	60	130	GapExp	0	95	2	1	0	target	0	227	-1000	40956	13.328	13.308	13.348
DTProbeTrack03	8	ProbeTrackDT	1.1	SCS215a	20101112.090803	20101112.091809	single-task	8	0.013327	60	10	60-180	60	122	GapExp	0	96	2	3	0	target	0	574	-1000	39956	13.328	12.966	13.691
DTProbeTrack03	8	ProbeTrackDT	1.1	SCS215a	20101112.090803	20101112.091815	single-task	8	0.013327	60	10	60-180	60	153	GapExp	0	97	2	9	0	distractor	1	454	773	40729	13.328	12.859	13.805
DTProbeTrack03	8	ProbeTrackDT	1.1	SCS215a	20101112.090803	20101112.091821	single-task	8	0.013327	60	10	60-180	60	95	GapExp	0	98	2	45	0	target	0	654	-1000	39729	13.328	12.944	13.701
DTProbeTrack03	8	ProbeTrackDT	1.1	SCS215a	20101112.090803	20101112.091827	single-task	8	0.013327	60	10	60-180	60	180	GapExp	0	99	2	6	0	distractor	1	560	720	40449	13.328	12.867	13.789
DTProbeTrack03	8	ProbeTrackDT	1.1	SCS215a	20101112.090803	20101112.091833	single-task	8	0.013327	60	10	60-180	60	123	GapExp	0	100	2	3	1	distractor	0	587	-1000	39449	13.328	13.298	13.352
DTProbeTrack03	8	ProbeTrackDT	1.1	SCS215a	20101112.090803	20101112.091908	single-task	8	0.013327	60	10	60-180	60	172	GapExp	0	101	2	3	1	distractor	0	813	-1000	38449	13.328	12.874	13.783
DTProbeTrack03	8	ProbeTrackDT	1.1	SCS215a	20101112.090803	20101112.091914	single-task	8	0.013327	60	10	60-180	60	174	GapExp	0	102	2	3	1	target	1	174	913	39362	13.328	12.973	13.686
DTProbeTrack03	8	ProbeTrackDT	1.1	SCS215a	20101112.090803	20101112.091920	single-task	8	0.013327	60	10	60-180	60	134	GapExp	0	103	2	9	1	target	1	600	700	40062	13.328	13.308	13.346
DTProbeTrack03	8	ProbeTrackDT	1.1	SCS215a	20101112.090803	20101112.091926	single-task	8	0.013327	60	10	60-180	60	96	GapExp	0	104	2	45	1	distractor	0	547	-1000	39062	13.328	13.087	13.560
DTProbeTrack03	8	ProbeTrackDT	1.1	SCS215a	20101112.090803	20101112.091932	single-task	8	0.013327	60	10	60-180	60	135	GapExp	0	105	2	45	0	distractor	1	400	800	39862	13.328	13.092	13.561
DTProbeTrack03	8	ProbeTrackDT	1.1	SCS215a	20101112.090803	20101112.091939	single-task	8	0.013327	60	10	60-180	60	177	GapExp	0	106	2	6	0	distractor	1	360	820	40682	13.328	13.087	13.556
DTProbeTrack03	8	ProbeTrackDT	1.1	SCS215a	20101112.090803	20101112.091945	single-task	8	0.013327	60	10	60-180	60	132	GapExp	0	107	2	1	0	target	0	640	-1000	39682	13.328	13.102	13.540
DTProbeTrack03	8	ProbeTrackDT	1.1	SCS215a	20101112.090803	20101112.091951	single-task	8	0.013327	60	10	60-180	60	92	GapExp	0	108	2	45	1	distractor	0	653	-1000	38682	13.328	13.310	13.349
DTProbeTrack03	8	ProbeTrackDT	1.1	SCS215a	20101112.090803	20101112.091957	single-task	8	0.013327	60	10	60-180	60	165	GapExp	0	109	2	6	1	target	1	174	913	39595	13.328	12.983	13.667
DTProbeTrack03	8	ProbeTrackDT	1.1	SCS215a	20101112.090803	20101112.092003	single-task	8	0.013327	60	10	60-180	60	89	GapExp	0	110	2	1	1	target	1	960	520	40115	13.328	13.308	13.345
DTProbeTrack03	8	ProbeTrackDT	1.1	SCS215a	20101112.090803	20101112.092009	single-task	8	0.013327	60	10	60-180	60	139	GapExp	0	111	2	3	0	target	0	827	-1000	39115	13.328	13.053	13.598
DTProbeTrack03	8	ProbeTrackDT	1.1	SCS215a	20101112.090803	20101112.092015	single-task	8	0.013327	60	10	60-180	60	105	GapExp	0	112	2	45	0	target	0	400	-1000	38115	13.328	12.948	13.720
DTProbeTrack03	8	ProbeTrackDT	1.1	SCS215a	20101112.090803	20101112.092021	single-task	8	0.013327	60	10	60-180	60	130	GapExp	0	113	2	6	0	distractor	1	547	727	38842	13.328	13.051	13.607
DTProbeTrack03	8	ProbeTrackDT	1.1	SCS215a	20101112.090803	20101112.092027	single-task	8	0.013327	60	10	60-180	60	71	GapExp	0	114	2	3	0	distractor	1	747	627	39469	13.328	12.859	13.808
DTProbeTrack03	8	ProbeTrackDT	1.1	SCS215a	20101112.090803	20101112.092032	single-task	8	0.013327	60	10	60-180	60	134	GapExp	0	115	2	9	0	distractor	1	693	654	40123	13.328	12.952	13.698
DTProbeTrack03	8	ProbeTrackDT	1.1	SCS215a	20101112.090803	20101112.092038	single-task	8	0.013327	60	10	60-180	60	139	GapExp	0	116	2	3	1	target	1	547	727	40850	13.328	13.020	13.641
DTProbeTrack03	8	ProbeTrackDT	1.1	SCS215a	20101112.090803	20101112.092044	single-task	8	0.013327	60	10	60-180	60	154	GapExp	0	117	2	9	1	distractor	0	733	-1000	39850	13.328	13.007	13.641
DTProbeTrack03	8	ProbeTrackDT	1.1	SCS215a	20101112.090803	20101112.092050	single-task	8	0.013327	60	10	60-180	60	151	GapExp	0	118	2	45	0	target	0	574	-1000	38850	13.328	13.099	13.540
DTProbeTrack03	8	ProbeTrackDT	1.1	SCS215a	20101112.090803	20101112.092057	single-task	8	0.013327	60	10	60-180	60	69	GapExp	0	119	2	6	1	target	1	818	591	39441	13.328	12.861	13.798
DTProbeTrack03	8	ProbeTrackDT	1.1	SCS215a	20101112.090803	20101112.092102	single-task	8	0.013327	60	10	60-180	60	86	GapExp	0	120	2	1	0	distractor	1	414	793	40234	13.328	13.301	13.358
DTProbeTrack03	8	ProbeTrackDT	1.1	SCS215a	20101112.090803	20101112.092107	single-task	8	0.013327	60	10	60-180	60	153	GapExp	0	121	2	9	0	distractor	1	707	647	40881	13.328	13.305	13.351
DTProbeTrack03	8	ProbeTrackDT	1.1	SCS215a	20101112.090803	20101112.092114	single-task	8	0.013327	60	10	60-180	60	130	GapExp	0	122	2	1	0	distractor	1	587	707	41588	13.328	12.864	13.807
DTProbeTrack03	8	ProbeTrackDT	1.1	SCS215a	20101112.090803	20101112.092120	single-task	8	0.013327	60	10	60-180	60	117	GapExp	0	123	2	45	0	target	0	454	-1000	40588	13.375	13.306	26.646
DTProbeTrack03	8	ProbeTrackDT	1.1	SCS215a	20101112.090803	20101112.092126	single-task	8	0.013327	60	10	60-180	60	64	GapExp	0	124	2	6	1	distractor	0	667	-1000	39588	13.328	12.938	13.720
DTProbeTrack03	8	ProbeTrackDT	1.1	SCS215a	20101112.090803	20101112.092131	single-task	8	0.013327	60	10	60-180	60	170	GapExp	0	125	2	3	0	target	0	787	-1000	38588	13.328	12.995	13.652
DTProbeTrack03	8	ProbeTrackDT	1.1	SCS215a	20101112.090803	20101112.092137	single-task	8	0.013327	60	10	60-180	60	160	GapExp	0	126	2	45	1	distractor	0	347	-1000	37588	13.328	13.097	13.568
DTProbeTrack03	8	ProbeTrackDT	1.1	SCS215a	20101112.090803	20101112.092144	single-task	8	0.013327	60	10	60-180	60	118	GapExp	0	127	2	3	1	target	1	334	833	38421	13.328	12.945	13.717
DTProbeTrack03	8	ProbeTrackDT	1.1	SCS215a	20101112.090803	20101112.092149	single-task	8	0.013327	60	10	60-180	60	117	GapExp	0	128	2	45	1	distractor	0	494	-1000	37421	13.328	13.308	13.347
DTProbeTrack03	8	ProbeTrackDT	1.1	SCS215a	20101112.090803	20101112.092155	single-task	8	0.013327	60	10	60-180	60	141	GapExp	0	129	2	45	0	target	0	400	-1000	36421	13.328	13.306	13.353
DTProbeTrack03	8	ProbeTrackDT	1.1	SCS215a	20101112.090803	20101112.092202	single-task	8	0.013327	60	10	60-180	60	80	GapExp	0	130	2	45	0	distractor	1	414	793	37214	13.328	12.875	13.774
DTProbeTrack03	8	ProbeTrackDT	1.1	SCS215a	20101112.090803	20101112.092208	single-task	8	0.013327	60	10	60-180	60	161	GapExp	0	131	2	1	1	target	1	560	720	37934	13.328	12.887	13.771
DTProbeTrack03	8	ProbeTrackDT	1.1	SCS215a	20101112.090803	20101112.092214	single-task	8	0.013327	60	10	60-180	60	137	GapExp	0	132	2	6	1	target	1	587	707	38641	13.328	12.880	13.768
DTProbeTrack03	8	ProbeTrackDT	1.1	SCS215a	20101112.090803	20101112.092220	single-task	8	0.013327	60	10	60-180	60	91	GapExp	0	133	2	1	0	distractor	1	680	660	39301	13.328	13.067	13.582
DTProbeTrack03	8	ProbeTrackDT	1.1	SCS215a	20101112.090803	20101112.092225	single-task	8	0.013327	60	10	60-180	60	150	GapExp	0	134	2	6	0	distractor	1	707	647	39948	13.328	13.304	13.347
DTProbeTrack03	8	ProbeTrackDT	1.1	SCS215a	20101112.090803	20101112.092231	single-task	8	0.013327	60	10	60-180	60	169	GapExp	0	135	2	9	0	target	0	680	-1000	38948	13.328	13.288	13.382
DTProbeTrack03	8	ProbeTrackDT	1.1	SCS215a	20101112.090803	20101112.092238	single-task	8	0.013327	60	10	60-180	60	83	GapExp	0	136	2	1	1	target	1	627	687	39635	13.328	12.897	13.767
DTProbeTrack03	8	ProbeTrackDT	1.1	SCS215a	20101112.090803	20101112.092243	single-task	8	0.013327	60	10	60-180	60	107	GapExp	0	137	2	9	0	distractor	1	534	733	40368	13.328	12.924	13.741
DTProbeTrack03	8	ProbeTrackDT	1.1	SCS215a	20101112.090803	20101112.092248	single-task	8	0.013327	60	10	60-180	60	178	GapExp	0	138	2	9	0	distractor	1	787	607	40975	13.328	12.943	13.715
DTProbeTrack03	8	ProbeTrackDT	1.1	SCS215a	20101112.090803	20101112.092255	single-task	8	0.013327	60	10	60-180	60	151	GapExp	0	139	2	1	0	target	0	880	-1000	39975	13.328	12.844	13.815
DTProbeTrack03	8	ProbeTrackDT	1.1	SCS215a	20101112.090803	20101112.092301	single-task	8	0.013327	60	10	60-180	60	100	GapExp	0	140	2	45	1	target	1	-13	1007	40982	13.328	12.852	13.813
DTProbeTrack03	8	ProbeTrackDT	1.1	SCS215a	20101112.090803	20101112.092307	single-task	8	0.013327	60	10	60-180	60	80	GapExp	0	141	2	1	0	target	0	40	-1000	39982	13.328	12.923	13.735
DTProbeTrack03	8	ProbeTrackDT	1.1	SCS215a	20101112.090803	20101112.092311	single-task	8	0.013327	60	10	60-180	60	158	GapExp	0	142	2	45	0	distractor	1	-13	1007	40989	13.328	13.096	13.569
DTProbeTrack03	8	ProbeTrackDT	1.1	SCS215a	20101112.090803	20101112.092317	single-task	8	0.013327	60	10	60-180	60	71	GapExp	0	143	2	45	1	distractor	0	-13	-1000	39989	13.328	12.863	13.803
DTProbeTrack03	8	ProbeTrackDT	1.1	SCS215a	20101112.090803	20101112.092322	single-task	8	0.013327	60	10	60-180	60	91	GapExp	0	144	2	3	1	distractor	0	-13	-1000	38989	13.328	13.305	13.344
DTProbeTrack03	8	ProbeTrackDT	1.1	SCS215a	20101112.090803	20101112.092327	single-task	8	0.013327	60	10	60-180	60	170	GapExp	0	145	2	9	0	distractor	1	160	920	39909	13.328	13.061	13.519
DTProbeTrack03	8	ProbeTrackDT	1.1	SCS215a	20101112.090803	20101112.092333	single-task	8	0.013327	60	10	60-180	60	99	GapExp	0	146	2	45	1	target	1	1493	254	40163	13.328	12.942	13.707
DTProbeTrack03	8	ProbeTrackDT	1.1	SCS215a	20101112.090803	20101112.092340	single-task	8	0.013327	60	10	60-180	60	138	GapExp	0	147	2	3	1	distractor	0	347	-1000	39163	13.380	13.091	26.813
DTProbeTrack03	8	ProbeTrackDT	1.1	SCS215a	20101112.090803	20101112.092345	single-task	8	0.013327	60	10	60-180	60	130	GapExp	0	148	2	45	1	distractor	0	0	-1000	38163	13.328	12.917	13.758
DTProbeTrack03	8	ProbeTrackDT	1.1	SCS215a	20101112.090803	20101112.092351	single-task	8	0.013327	60	10	60-180	60	130	GapExp	0	149	2	6	1	distractor	0	-13	-1000	37163	13.328	12.980	13.690
DTProbeTrack03	8	ProbeTrackDT	1.1	SCS215a	20101112.090803	20101112.092356	single-task	8	0.013327	60	10	60-180	60	166	GapExp	0	150	2	9	1	distractor	0	107	-1000	36163	13.328	13.308	13.348
DTProbeTrack03	8	ProbeTrackDT	1.1	SCS215a	20101112.090803	20101112.092455	single-task	8	0.013327	60	10	60-180	60	119	GapExp	0	151	2	3	0	distractor	1	414	793	36956	13.328	12.888	13.768
DTProbeTrack03	8	ProbeTrackDT	1.1	SCS215a	20101112.090803	20101112.092501	single-task	8	0.013327	60	10	60-180	60	167	GapExp	0	152	2	6	1	distractor	0	614	-1000	35956	13.328	12.869	13.791
DTProbeTrack03	8	ProbeTrackDT	1.1	SCS215a	20101112.090803	20101112.092507	single-task	8	0.013327	60	10	60-180	60	97	GapExp	0	153	2	3	1	target	1	747	627	36583	13.328	12.944	13.713
DTProbeTrack03	8	ProbeTrackDT	1.1	SCS215a	20101112.090803	20101112.092513	single-task	8	0.013327	60	10	60-180	60	126	GapExp	0	154	2	9	1	target	1	787	607	37190	13.328	12.914	13.730
DTProbeTrack03	8	ProbeTrackDT	1.1	SCS215a	20101112.090803	20101112.092519	single-task	8	0.013327	60	10	60-180	60	128	GapExp	0	155	2	6	1	target	1	693	654	37844	13.328	13.299	13.347
DTProbeTrack03	8	ProbeTrackDT	1.1	SCS215a	20101112.090803	20101112.092524	single-task	8	0.013327	60	10	60-180	60	141	GapExp	0	156	2	9	1	target	1	733	634	38478	13.328	13.041	13.610
DTProbeTrack03	8	ProbeTrackDT	1.1	SCS215a	20101112.090803	20101112.092531	single-task	8	0.013327	60	10	60-180	60	131	GapExp	0	157	2	6	1	target	1	747	627	39105	13.328	13.099	13.561
DTProbeTrack03	8	ProbeTrackDT	1.1	SCS215a	20101112.090803	20101112.092537	single-task	8	0.013327	60	10	60-180	60	145	GapExp	0	158	2	45	0	distractor	1	507	747	39852	13.328	13.008	13.652
DTProbeTrack03	8	ProbeTrackDT	1.1	SCS215a	20101112.090803	20101112.092543	single-task	8	0.013327	60	10	60-180	60	114	GapExp	0	159	2	9	0	target	0	587	-1000	38852	13.328	13.100	13.560
DTProbeTrack03	8	ProbeTrackDT	1.1	SCS215a	20101112.090803	20101112.092549	single-task	8	0.013327	60	10	60-180	60	74	GapExp	0	160	2	45	1	target	1	574	713	39565	13.328	12.881	13.768
DTProbeTrack03	8	ProbeTrackDT	1.1	SCS215a	20101112.090803	20101112.092554	single-task	8	0.013327	60	10	60-180	60	140	GapExp	0	161	2	6	1	distractor	0	467	-1000	38565	13.328	12.990	13.668
DTProbeTrack03	8	ProbeTrackDT	1.1	SCS215a	20101112.090803	20101112.092600	single-task	8	0.013327	60	10	60-180	60	78	GapExp	0	162	2	1	1	distractor	0	720	-1000	37565	13.328	13.294	13.357
DTProbeTrack03	8	ProbeTrackDT	1.1	SCS215a	20101112.090803	20101112.092606	single-task	8	0.013327	60	10	60-180	60	152	GapExp	0	163	2	3	1	target	1	613	694	38259	13.328	12.885	13.775
DTProbeTrack03	8	ProbeTrackDT	1.1	SCS215a	20101112.090803	20101112.092612	single-task	8	0.013327	60	10	60-180	60	77	GapExp	0	164	2	9	1	target	1	653	674	38933	13.328	12.841	13.809
DTProbeTrack03	8	ProbeTrackDT	1.1	SCS215a	20101112.090803	20101112.092617	single-task	8	0.013327	60	10	60-180	60	143	GapExp	0	165	2	45	0	distractor	1	787	607	39540	13.328	13.104	13.566
DTProbeTrack03	8	ProbeTrackDT	1.1	SCS215a	20101112.090803	20101112.092624	single-task	8	0.013327	60	10	60-180	60	133	GapExp	0	166	2	9	1	target	1	654	673	40213	13.328	13.107	13.549
DTProbeTrack03	8	ProbeTrackDT	1.1	SCS215a	20101112.090803	20101112.092630	single-task	8	0.013327	60	10	60-180	60	164	GapExp	0	167	2	3	0	distractor	1	573	714	40927	13.328	13.308	13.351
DTProbeTrack03	8	ProbeTrackDT	1.1	SCS215a	20101112.090803	20101112.092636	single-task	8	0.013327	60	10	60-180	60	65	GapExp	0	168	2	3	1	target	1	640	680	41607	13.329	12.976	13.675
DTProbeTrack03	8	ProbeTrackDT	1.1	SCS215a	20101112.090803	20101112.092641	single-task	8	0.013327	60	10	60-180	60	132	GapExp	0	169	2	45	1	distractor	0	627	-1000	40607	13.328	12.960	13.683
DTProbeTrack03	8	ProbeTrackDT	1.1	SCS215a	20101112.090803	20101112.092647	single-task	8	0.013327	60	10	60-180	60	72	GapExp	0	170	2	6	1	target	1	600	700	41307	13.328	12.903	13.756
DTProbeTrack03	8	ProbeTrackDT	1.1	SCS215a	20101112.090803	20101112.092652	single-task	8	0.013327	60	10	60-180	60	164	GapExp	0	171	2	6	0	distractor	1	574	713	42020	13.328	13.113	13.553
DTProbeTrack03	8	ProbeTrackDT	1.1	SCS215a	20101112.090803	20101112.092659	single-task	8	0.013327	60	10	60-180	60	142	GapExp	0	172	2	45	1	target	1	507	747	42767	13.328	13.053	13.596
DTProbeTrack03	8	ProbeTrackDT	1.1	SCS215a	20101112.090803	20101112.092705	single-task	8	0.013327	60	10	60-180	60	139	GapExp	0	173	2	1	0	distractor	1	667	667	43434	13.328	13.301	13.346
DTProbeTrack03	8	ProbeTrackDT	1.1	SCS215a	20101112.090803	20101112.092711	single-task	8	0.013327	60	10	60-180	60	167	GapExp	0	174	2	45	1	target	1	693	654	44088	13.328	12.862	13.789
DTProbeTrack03	8	ProbeTrackDT	1.1	SCS215a	20101112.090803	20101112.092718	single-task	8	0.013327	60	10	60-180	60	161	GapExp	0	175	2	1	1	distractor	0	640	-1000	43088	13.328	12.861	13.793
DTProbeTrack03	8	ProbeTrackDT	1.1	SCS215a	20101112.090803	20101112.092724	single-task	8	0.013327	60	10	60-180	60	159	GapExp	0	176	2	9	0	distractor	1	579	711	43799	13.328	13.045	13.622
DTProbeTrack03	8	ProbeTrackDT	1.1	SCS215a	20101112.090803	20101112.092731	single-task	8	0.013327	60	10	60-180	60	117	GapExp	0	177	2	3	0	target	0	1000	-1000	42799	13.328	12.949	13.725
DTProbeTrack03	8	ProbeTrackDT	1.1	SCS215a	20101112.090803	20101112.092737	single-task	8	0.013327	60	10	60-180	60	68	GapExp	0	178	2	45	1	target	1	680	660	43459	13.328	12.923	13.754
DTProbeTrack03	8	ProbeTrackDT	1.1	SCS215a	20101112.090803	20101112.092742	single-task	8	0.013327	60	10	60-180	60	130	GapExp	0	179	2	6	0	distractor	1	467	767	44226	13.328	12.922	13.734
DTProbeTrack03	8	ProbeTrackDT	1.1	SCS215a	20101112.090803	20101112.092748	single-task	8	0.013327	60	10	60-180	60	146	GapExp	0	180	2	6	0	target	0	560	-1000	43226	13.328	13.004	13.653
DTProbeTrack03	8	ProbeTrackDT	1.1	SCS215a	20101112.090803	20101112.092754	single-task	8	0.013327	60	10	60-180	60	73	GapExp	0	181	2	9	0	distractor	1	733	634	43860	13.328	13.307	13.355
DTProbeTrack03	8	ProbeTrackDT	1.1	SCS215a	20101112.090803	20101112.092800	single-task	8	0.013327	60	10	60-180	60	159	GapExp	0	182	2	3	1	distractor	0	374	-1000	42860	13.328	12.868	13.795
DTProbeTrack03	8	ProbeTrackDT	1.1	SCS215a	20101112.090803	20101112.092806	single-task	8	0.013327	60	10	60-180	60	142	GapExp	0	183	2	9	1	target	1	480	760	43620	13.328	13.123	13.543
DTProbeTrack03	8	ProbeTrackDT	1.1	SCS215a	20101112.090803	20101112.092812	single-task	8	0.013327	60	10	60-180	60	72	GapExp	0	184	2	3	1	target	1	813	594	44214	13.328	13.060	13.597
DTProbeTrack03	8	ProbeTrackDT	1.1	SCS215a	20101112.090803	20101112.092817	single-task	8	0.013327	60	10	60-180	60	157	GapExp	0	185	2	6	0	target	0	507	-1000	43214	13.328	13.096	13.572
DTProbeTrack03	8	ProbeTrackDT	1.1	SCS215a	20101112.090803	20101112.092823	single-task	8	0.013327	60	10	60-180	60	61	GapExp	0	186	2	6	0	distractor	1	440	780	43994	13.328	13.007	13.643
DTProbeTrack03	8	ProbeTrackDT	1.1	SCS215a	20101112.090803	20101112.092828	single-task	8	0.013327	60	10	60-180	60	65	GapExp	0	187	2	6	0	target	0	1533	-1000	42994	13.328	12.875	13.771
DTProbeTrack03	8	ProbeTrackDT	1.1	SCS215a	20101112.090803	20101112.092834	single-task	8	0.013327	60	10	60-180	60	74	GapExp	0	188	2	6	1	target	1	827	587	43581	13.328	12.871	13.788
DTProbeTrack03	8	ProbeTrackDT	1.1	SCS215a	20101112.090803	20101112.092839	single-task	8	0.013327	60	10	60-180	60	75	GapExp	0	189	2	1	0	distractor	1	334	833	44414	13.328	12.963	13.702
DTProbeTrack03	8	ProbeTrackDT	1.1	SCS215a	20101112.090803	20101112.092844	single-task	8	0.013327	60	10	60-180	60	99	GapExp	0	190	2	6	1	target	1	547	727	45141	13.328	13.064	13.582
DTProbeTrack03	8	ProbeTrackDT	1.1	SCS215a	20101112.090803	20101112.092849	single-task	8	0.013327	60	10	60-180	60	125	GapExp	0	191	2	6	0	distractor	1	587	707	45848	13.328	12.978	13.678
DTProbeTrack03	8	ProbeTrackDT	1.1	SCS215a	20101112.090803	20101112.092855	single-task	8	0.013327	60	10	60-180	60	142	GapExp	0	192	2	6	1	target	1	480	760	46608	13.328	12.888	13.758
DTProbeTrack03	8	ProbeTrackDT	1.1	SCS215a	20101112.090803	20101112.092901	single-task	8	0.013327	60	10	60-180	60	173	GapExp	0	193	2	45	1	target	1	907	547	47155	13.328	13.099	13.553
DTProbeTrack03	8	ProbeTrackDT	1.1	SCS215a	20101112.090803	20101112.092909	single-task	8	0.013327	60	10	60-180	60	111	GapExp	0	194	2	6	0	distractor	1	547	727	47882	13.328	12.851	13.817
DTProbeTrack03	8	ProbeTrackDT	1.1	SCS215a	20101112.090803	20101112.092914	single-task	8	0.013327	60	10	60-180	60	156	GapExp	0	195	2	9	1	target	1	320	840	48722	13.328	12.863	13.805
DTProbeTrack03	8	ProbeTrackDT	1.1	SCS215a	20101112.090803	20101112.092920	single-task	8	0.013327	60	10	60-180	60	78	GapExp	0	196	2	45	0	target	0	520	-1000	47722	13.328	13.117	13.543
DTProbeTrack03	8	ProbeTrackDT	1.1	SCS215a	20101112.090803	20101112.092926	single-task	8	0.013327	60	10	60-180	60	106	GapExp	0	197	2	6	1	target	1	374	813	48535	13.328	13.305	13.356
DTProbeTrack03	8	ProbeTrackDT	1.1	SCS215a	20101112.090803	20101112.092931	single-task	8	0.013327	60	10	60-180	60	76	GapExp	0	198	2	45	0	distractor	1	307	847	49382	13.328	13.306	13.348
DTProbeTrack03	8	ProbeTrackDT	1.1	SCS215a	20101112.090803	20101112.092937	single-task	8	0.013327	60	10	60-180	60	145	GapExp	0	199	2	3	1	target	1	947	527	49909	13.328	13.049	13.604
DTProbeTrack03	8	ProbeTrackDT	1.1	SCS215a	20101112.090803	20101112.092943	single-task	8	0.013327	60	10	60-180	60	172	GapExp	0	200	2	9	1	distractor	0	347	-1000	48909	13.328	13.002	13.645
DTProbeTrack03	8	ProbeTrackDT	1.1	SCS215a	20101112.090803	20101112.092954	single-task	8	0.013327	60	10	60-180	60	147	GapExp	0	201	2	45	1	distractor	0	360	-1000	47909	13.328	13.074	13.568
DTProbeTrack03	8	ProbeTrackDT	1.1	SCS215a	20101112.090803	20101112.093000	single-task	8	0.013327	60	10	60-180	60	148	GapExp	0	202	2	1	1	target	1	494	753	48662	13.328	12.925	13.743
DTProbeTrack03	8	ProbeTrackDT	1.1	SCS215a	20101112.090803	20101112.093006	single-task	8	0.013327	60	10	60-180	60	86	GapExp	0	203	2	6	1	target	1	414	793	49455	13.328	13.107	13.555
DTProbeTrack03	8	ProbeTrackDT	1.1	SCS215a	20101112.090803	20101112.093011	single-task	8	0.013327	60	10	60-180	60	147	GapExp	0	204	2	1	1	distractor	0	867	-1000	48455	13.328	12.946	13.703
DTProbeTrack03	8	ProbeTrackDT	1.1	SCS215a	20101112.090803	20101112.093018	single-task	8	0.013327	60	10	60-180	60	73	GapExp	0	205	2	6	1	target	1	520	740	49195	13.328	13.108	13.594
DTProbeTrack03	8	ProbeTrackDT	1.1	SCS215a	20101112.093322	20101112.093328	dt-generate	8	0.013328	60	10	60-180	60	172	GapPrac	1	1	2	3	1	target	1	747	627	49822	13.328	13.306	13.347
DTProbeTrack03	8	ProbeTrackDT	1.1	SCS215a	20101112.093322	20101112.093334	dt-generate	8	0.013328	60	10	60-180	60	130	GapPrac	1	2	2	45	0	distractor	1	667	667	50489	13.328	12.836	13.820
DTProbeTrack03	8	ProbeTrackDT	1.1	SCS215a	20101112.093322	20101112.093341	dt-generate	8	0.013328	60	10	60-180	60	138	GapPrac	1	3	2	1	1	target	1	3572	0	50489	13.328	13.090	13.560
DTProbeTrack03	8	ProbeTrackDT	1.1	SCS215a	20101112.093322	20101112.093350	dt-generate	8	0.013328	60	10	60-180	60	121	GapPrac	1	4	2	6	0	distractor	1	867	567	51056	13.328	12.932	13.717
DTProbeTrack03	8	ProbeTrackDT	1.1	SCS215a	20101112.093322	20101112.093356	dt-generate	8	0.013328	60	10	60-180	60	63	GapPrac	1	5	2	3	0	distractor	1	1680	160	51216	13.328	12.912	13.736
DTProbeTrack03	8	ProbeTrackDT	1.1	SCS215a	20101112.093322	20101112.093402	dt-generate	8	0.013328	60	10	60-180	60	163	GapPrac	1	6	2	45	1	target	1	733	634	51850	13.328	12.917	13.749
DTProbeTrack03	8	ProbeTrackDT	1.1	SCS215a	20101112.093322	20101112.093409	dt-generate	8	0.013328	60	10	60-180	60	174	GapPrac	1	7	2	9	1	target	1	574	713	52563	13.328	12.881	13.776
DTProbeTrack03	8	ProbeTrackDT	1.1	SCS215a	20101112.093322	20101112.093415	dt-generate	8	0.013328	60	10	60-180	60	67	GapPrac	1	8	2	9	0	target	0	574	-1000	51563	13.328	13.096	13.550
DTProbeTrack03	8	ProbeTrackDT	1.1	SCS215a	20101112.093322	20101112.093420	dt-generate	8	0.013328	60	10	60-180	60	141	GapPrac	1	9	2	1	1	distractor	0	760	-1000	50563	13.328	12.902	13.755
DTProbeTrack03	8	ProbeTrackDT	1.1	SCS215a	20101112.093322	20101112.093426	dt-generate	8	0.013328	60	10	60-180	60	107	GapPrac	1	10	2	6	1	target	1	574	713	51276	13.328	12.879	13.776
DTProbeTrack03	8	ProbeTrackDT	1.1	SCS215a	20101112.093322	20101112.093432	dt-generate	8	0.013328	60	10	60-180	60	140	GapPrac	1	11	2	3	1	target	1	574	713	51989	13.328	12.992	13.676
DTProbeTrack03	8	ProbeTrackDT	1.1	SCS215a	20101112.093322	20101112.093438	dt-generate	8	0.013328	60	10	60-180	60	70	GapPrac	1	12	2	3	0	target	0	1133	-1000	50989	13.328	13.300	13.349
DTProbeTrack03	8	ProbeTrackDT	1.1	SCS215a	20101112.093322	20101112.093443	dt-generate	8	0.013328	60	10	60-180	60	106	GapPrac	1	13	2	1	0	distractor	1	480	760	51749	13.328	13.027	13.634
DTProbeTrack03	8	ProbeTrackDT	1.1	SCS215a	20101112.093322	20101112.093449	dt-generate	8	0.013328	60	10	60-180	60	147	GapPrac	1	14	2	1	0	target	0	387	-1000	50749	13.328	13.307	13.359
DTProbeTrack03	8	ProbeTrackDT	1.1	SCS215a	20101112.093322	20101112.093454	dt-generate	8	0.013328	60	10	60-180	60	85	GapPrac	1	15	2	45	1	target	1	1080	460	51209	13.328	13.306	13.349
DTProbeTrack03	8	ProbeTrackDT	1.1	SCS215a	20101112.093322	20101112.093501	dt-generate	8	0.013328	60	10	60-180	60	132	GapPrac	1	16	2	6	0	distractor	1	334	833	52042	13.328	12.900	13.744
DTProbeTrack03	8	ProbeTrackDT	1.1	SCS215a	20101112.093322	20101112.093506	dt-generate	8	0.013328	60	10	60-180	60	109	GapPrac	1	17	2	9	1	target	1	973	514	52556	13.328	12.951	13.707
DTProbeTrack03	8	ProbeTrackDT	1.1	SCS215a	20101112.093322	20101112.093512	dt-generate	8	0.013328	60	10	60-180	60	156	GapPrac	1	18	2	45	0	distractor	1	547	727	53283	13.328	12.898	13.745
DTProbeTrack03	8	ProbeTrackDT	1.1	SCS215a	20101112.093322	20101112.093519	dt-generate	8	0.013328	60	10	60-180	60	112	GapPrac	1	19	2	6	1	target	1	1813	94	53377	13.328	12.863	13.806
DTProbeTrack03	8	ProbeTrackDT	1.1	SCS215a	20101112.093322	20101112.093526	dt-generate	8	0.013328	60	10	60-180	60	143	GapPrac	1	20	2	9	0	target	0	947	-1000	52377	13.328	12.883	13.783
DTProbeTrack03	8	ProbeTrackDT	1.1	SCS215a	20101112.093624	20101112.093628	dt-generate	8	0.013328	60	10	60-180	60	171	GapExp	1	1	2	9	0	distractor	1	627	687	53064	13.328	12.900	13.762
DTProbeTrack03	8	ProbeTrackDT	1.1	SCS215a	20101112.093624	20101112.093634	dt-generate	8	0.013328	60	10	60-180	60	143	GapExp	1	2	2	45	0	distractor	1	494	753	53817	13.371	12.973	26.997
DTProbeTrack03	8	ProbeTrackDT	1.1	SCS215a	20101112.093624	20101112.093641	dt-generate	8	0.013328	60	10	60-180	60	76	GapExp	1	3	2	1	1	target	1	507	747	54564	13.328	12.877	13.787
DTProbeTrack03	8	ProbeTrackDT	1.1	SCS215a	20101112.093624	20101112.093646	dt-generate	8	0.013328	60	10	60-180	60	78	GapExp	1	4	2	3	1	target	1	1040	480	55044	13.328	13.305	13.356
DTProbeTrack03	8	ProbeTrackDT	1.1	SCS215a	20101112.093624	20101112.093651	dt-generate	8	0.013328	60	10	60-180	60	117	GapExp	1	5	2	1	0	distractor	1	3359	0	55044	13.328	13.088	13.569
DTProbeTrack03	8	ProbeTrackDT	1.1	SCS215a	20101112.093624	20101112.093700	dt-generate	8	0.013328	60	10	60-180	60	133	GapExp	0	6	2	3	1	distractor	0	547	-1000	54044	13.328	12.863	13.796
DTProbeTrack03	8	ProbeTrackDT	1.1	SCS215a	20101112.093624	20101112.093706	dt-generate	8	0.013328	60	10	60-180	60	105	GapExp	0	7	2	3	0	target	0	653	-1000	53044	13.328	13.310	13.346
DTProbeTrack03	8	ProbeTrackDT	1.1	SCS215a	20101112.093624	20101112.093711	dt-generate	8	0.013328	60	10	60-180	60	163	GapExp	0	8	2	3	1	distractor	0	134	-1000	52044	13.328	13.110	13.543
DTProbeTrack03	8	ProbeTrackDT	1.1	SCS215a	20101112.093624	20101112.093717	dt-generate	8	0.013328	60	10	60-180	60	96	GapExp	0	9	2	1	1	target	1	507	747	52791	13.328	13.099	13.551
DTProbeTrack03	8	ProbeTrackDT	1.1	SCS215a	20101112.093624	20101112.093722	dt-generate	8	0.013328	60	10	60-180	60	71	GapExp	0	10	2	1	1	target	1	1000	500	53291	13.328	12.885	13.773
DTProbeTrack03	8	ProbeTrackDT	1.1	SCS215a	20101112.093624	20101112.093727	dt-generate	8	0.013328	60	10	60-180	60	101	GapExp	0	11	2	1	0	distractor	1	680	660	53951	13.328	12.967	13.691
DTProbeTrack03	8	ProbeTrackDT	1.1	SCS215a	20101112.093624	20101112.093733	dt-generate	8	0.013328	60	10	60-180	60	139	GapExp	0	12	2	1	0	target	0	640	-1000	52951	13.425	12.952	40.163
DTProbeTrack03	8	ProbeTrackDT	1.1	SCS215a	20101112.093624	20101112.093739	dt-generate	8	0.013328	60	10	60-180	60	161	GapExp	0	13	2	6	1	target	1	627	687	53638	13.328	13.060	13.603
DTProbeTrack03	8	ProbeTrackDT	1.1	SCS215a	20101112.093624	20101112.093745	dt-generate	8	0.013328	60	10	60-180	60	120	GapExp	0	14	2	3	1	target	1	747	627	54265	13.328	13.082	13.574
DTProbeTrack03	8	ProbeTrackDT	1.1	SCS215a	20101112.093624	20101112.093751	dt-generate	8	0.013328	60	10	60-180	60	158	GapExp	0	15	2	6	0	target	0	360	-1000	53265	13.328	13.090	13.561
DTProbeTrack03	8	ProbeTrackDT	1.1	SCS215a	20101112.093624	20101112.093757	dt-generate	8	0.013328	60	10	60-180	60	104	GapExp	0	16	2	45	1	target	1	640	680	53945	13.328	12.905	13.753
DTProbeTrack03	8	ProbeTrackDT	1.1	SCS215a	20101112.093624	20101112.093803	dt-generate	8	0.013328	60	10	60-180	60	162	GapExp	0	17	2	1	1	distractor	0	1080	-1000	52945	13.328	12.861	13.787
DTProbeTrack03	8	ProbeTrackDT	1.1	SCS215a	20101112.093624	20101112.093810	dt-generate	8	0.013328	60	10	60-180	60	149	GapExp	0	18	2	1	0	target	0	534	-1000	51945	13.328	12.888	13.791
DTProbeTrack03	8	ProbeTrackDT	1.1	SCS215a	20101112.093624	20101112.093816	dt-generate	8	0.013328	60	10	60-180	60	130	GapExp	0	19	2	9	1	target	1	574	713	52658	13.328	12.989	13.660
DTProbeTrack03	8	ProbeTrackDT	1.1	SCS215a	20101112.093624	20101112.093821	dt-generate	8	0.013328	60	10	60-180	60	151	GapExp	0	20	2	6	0	target	0	347	-1000	51658	13.328	13.292	13.372
DTProbeTrack03	8	ProbeTrackDT	1.1	SCS215a	20101112.093624	20101112.093827	dt-generate	8	0.013328	60	10	60-180	60	130	GapExp	0	21	2	9	0	distractor	1	400	800	52458	13.328	13.094	13.563
DTProbeTrack03	8	ProbeTrackDT	1.1	SCS215a	20101112.093624	20101112.093833	dt-generate	8	0.013328	60	10	60-180	60	76	GapExp	0	22	2	3	1	target	1	1213	394	52852	13.328	12.942	13.713
DTProbeTrack03	8	ProbeTrackDT	1.1	SCS215a	20101112.093624	20101112.093839	dt-generate	8	0.013328	60	10	60-180	60	176	GapExp	0	23	2	1	0	distractor	1	560	720	53572	13.328	13.097	13.562
DTProbeTrack03	8	ProbeTrackDT	1.1	SCS215a	20101112.093624	20101112.093845	dt-generate	8	0.013328	60	10	60-180	60	154	GapExp	0	24	2	45	0	target	0	747	-1000	52572	13.328	13.093	13.560
DTProbeTrack03	8	ProbeTrackDT	1.1	SCS215a	20101112.093624	20101112.093852	dt-generate	8	0.013328	60	10	60-180	60	156	GapExp	0	25	2	6	0	distractor	1	560	720	53292	13.328	13.296	13.347
DTProbeTrack03	8	ProbeTrackDT	1.1	SCS215a	20101112.093624	20101112.093858	dt-generate	8	0.013328	60	10	60-180	60	177	GapExp	0	26	2	1	1	target	1	1040	480	53772	13.328	12.911	13.757
DTProbeTrack03	8	ProbeTrackDT	1.1	SCS215a	20101112.093624	20101112.093905	dt-generate	8	0.013328	60	10	60-180	60	94	GapExp	0	27	2	9	1	target	1	1413	294	54066	13.328	13.309	13.346
DTProbeTrack03	8	ProbeTrackDT	1.1	SCS215a	20101112.093624	20101112.093911	dt-generate	8	0.013328	60	10	60-180	60	109	GapExp	0	28	2	45	0	target	0	747	-1000	53066	13.328	12.873	13.796
DTProbeTrack03	8	ProbeTrackDT	1.1	SCS215a	20101112.093624	20101112.093918	dt-generate	8	0.013328	60	10	60-180	60	123	GapExp	0	29	2	45	1	target	1	467	767	53833	13.329	12.855	13.795
DTProbeTrack03	8	ProbeTrackDT	1.1	SCS215a	20101112.093624	20101112.093924	dt-generate	8	0.013328	60	10	60-180	60	173	GapExp	0	30	2	9	0	distractor	1	640	680	54513	13.328	13.108	13.539
DTProbeTrack03	8	ProbeTrackDT	1.1	SCS215a	20101112.093624	20101112.093930	dt-generate	8	0.013328	60	10	60-180	60	129	GapExp	0	31	2	9	0	distractor	1	1013	494	55007	13.328	13.094	13.544
DTProbeTrack03	8	ProbeTrackDT	1.1	SCS215a	20101112.093624	20101112.093937	dt-generate	8	0.013328	60	10	60-180	60	103	GapExp	0	32	2	6	0	target	0	1426	-1000	54007	13.328	12.976	13.664
DTProbeTrack03	8	ProbeTrackDT	1.1	SCS215a	20101112.093624	20101112.093943	dt-generate	8	0.013328	60	10	60-180	60	64	GapExp	0	33	2	3	1	distractor	0	787	-1000	53007	13.328	12.862	13.788
DTProbeTrack03	8	ProbeTrackDT	1.1	SCS215a	20101112.093624	20101112.093948	dt-generate	8	0.013328	60	10	60-180	60	143	GapExp	0	34	2	6	1	target	1	1400	300	53307	13.328	13.028	13.620
DTProbeTrack03	8	ProbeTrackDT	1.1	SCS215a	20101112.093624	20101112.093955	dt-generate	8	0.013328	60	10	60-180	60	102	GapExp	0	35	2	1	0	distractor	1	680	660	53967	13.328	13.053	13.596
DTProbeTrack03	8	ProbeTrackDT	1.1	SCS215a	20101112.093624	20101112.094000	dt-generate	8	0.013328	60	10	60-180	60	137	GapExp	0	36	2	6	1	target	1	747	627	54594	13.328	13.304	13.350
DTProbeTrack03	8	ProbeTrackDT	1.1	SCS215a	20101112.093624	20101112.094006	dt-generate	8	0.013328	60	10	60-180	60	160	GapExp	0	37	2	1	1	distractor	0	907	-1000	53594	13.328	13.308	13.350
DTProbeTrack03	8	ProbeTrackDT	1.1	SCS215a	20101112.093624	20101112.094013	dt-generate	8	0.013328	60	10	60-180	60	168	GapExp	0	38	2	1	0	distractor	1	787	607	54201	13.328	13.086	13.562
DTProbeTrack03	8	ProbeTrackDT	1.1	SCS215a	20101112.093624	20101112.094019	dt-generate	8	0.013328	60	10	60-180	60	85	GapExp	0	39	2	3	0	distractor	1	1027	487	54688	13.328	13.035	13.622
DTProbeTrack03	8	ProbeTrackDT	1.1	SCS215a	20101112.093624	20101112.094025	dt-generate	8	0.013328	60	10	60-180	60	88	GapExp	0	40	2	9	1	target	1	800	600	55288	13.328	12.912	13.740
DTProbeTrack03	8	ProbeTrackDT	1.1	SCS215a	20101112.093624	20101112.094031	dt-generate	8	0.013328	60	10	60-180	60	128	GapExp	0	41	2	3	0	target	0	574	-1000	54288	13.328	13.309	13.352
DTProbeTrack03	8	ProbeTrackDT	1.1	SCS215a	20101112.093624	20101112.094036	dt-generate	8	0.013328	60	10	60-180	60	62	GapExp	0	42	2	9	1	distractor	0	867	-1000	53288	13.328	13.304	13.348
DTProbeTrack03	8	ProbeTrackDT	1.1	SCS215a	20101112.093624	20101112.094042	dt-generate	8	0.013328	60	10	60-180	60	179	GapExp	0	43	2	3	1	target	1	547	727	54015	13.328	13.017	13.641
DTProbeTrack03	8	ProbeTrackDT	1.1	SCS215a	20101112.093624	20101112.094048	dt-generate	8	0.013328	60	10	60-180	60	67	GapExp	0	44	2	3	0	distractor	1	1067	467	54482	13.328	12.990	13.668
DTProbeTrack03	8	ProbeTrackDT	1.1	SCS215a	20101112.093624	20101112.094053	dt-generate	8	0.013328	60	10	60-180	60	76	GapExp	0	45	2	6	0	target	0	707	-1000	53482	13.328	13.090	13.565
DTProbeTrack03	8	ProbeTrackDT	1.1	SCS215a	20101112.093624	20101112.094059	dt-generate	8	0.013328	60	10	60-180	60	105	GapExp	0	46	2	6	0	target	0	614	-1000	52482	13.328	13.094	13.562
DTProbeTrack03	8	ProbeTrackDT	1.1	SCS215a	20101112.093624	20101112.094104	dt-generate	8	0.013328	60	10	60-180	60	145	GapExp	0	47	2	1	0	target	0	1027	-1000	51482	13.328	13.308	13.347
DTProbeTrack03	8	ProbeTrackDT	1.1	SCS215a	20101112.093624	20101112.094111	dt-generate	8	0.013328	60	10	60-180	60	87	GapExp	0	48	2	9	1	target	1	440	780	52262	13.328	13.296	13.362
DTProbeTrack03	8	ProbeTrackDT	1.1	SCS215a	20101112.093624	20101112.094116	dt-generate	8	0.013328	60	10	60-180	60	82	GapExp	0	49	2	3	0	distractor	1	574	713	52975	13.328	12.875	13.776
DTProbeTrack03	8	ProbeTrackDT	1.1	SCS215a	20101112.093624	20101112.094121	dt-generate	8	0.013328	60	10	60-180	60	110	GapExp	0	50	2	3	0	distractor	1	467	767	53742	13.328	13.087	13.569
DTProbeTrack03	8	ProbeTrackDT	1.1	SCS215a	20101112.093624	20101112.094131	dt-generate	8	0.013328	60	10	60-180	60	146	GapExp	0	51	2	1	1	target	1	600	700	54442	13.328	13.306	13.353
DTProbeTrack03	8	ProbeTrackDT	1.1	SCS215a	20101112.093624	20101112.094137	dt-generate	8	0.013328	60	10	60-180	60	166	GapExp	0	52	2	6	1	target	1	547	727	55169	13.328	12.886	13.761
DTProbeTrack03	8	ProbeTrackDT	1.1	SCS215a	20101112.093624	20101112.094143	dt-generate	8	0.013328	60	10	60-180	60	155	GapExp	0	53	2	1	0	multi	-2	667	-1000	54169	13.328	12.873	13.800
DTProbeTrack03	8	ProbeTrackDT	1.1	SCS215a	20101112.093624	20101112.094150	dt-generate	8	0.013328	60	10	60-180	60	71	GapExp	0	54	2	9	0	target	0	1053	-1000	53169	13.328	13.109	13.552
DTProbeTrack03	8	ProbeTrackDT	1.1	SCS215a	20101112.093624	20101112.094155	dt-generate	8	0.013328	60	10	60-180	60	85	GapExp	0	55	2	1	0	target	0	547	-1000	52169	13.328	13.307	13.346
DTProbeTrack03	8	ProbeTrackDT	1.1	SCS215a	20101112.093624	20101112.094200	dt-generate	8	0.013328	60	10	60-180	60	154	GapExp	0	56	2	45	0	target	0	1013	-1000	51169	13.328	12.913	13.745
DTProbeTrack03	8	ProbeTrackDT	1.1	SCS215a	20101112.093624	20101112.094208	dt-generate	8	0.013328	60	10	60-180	60	132	GapExp	0	57	2	45	1	target	1	1560	220	51389	13.328	13.157	13.507
DTProbeTrack03	8	ProbeTrackDT	1.1	SCS215a	20101112.093624	20101112.094215	dt-generate	8	0.013328	60	10	60-180	60	127	GapExp	0	58	2	3	0	target	0	773	-1000	50389	13.328	13.040	13.621
DTProbeTrack03	8	ProbeTrackDT	1.1	SCS215a	20101112.093624	20101112.094221	dt-generate	8	0.013328	60	10	60-180	60	76	GapExp	0	59	2	9	0	distractor	1	307	847	51236	13.328	13.309	13.346
DTProbeTrack03	8	ProbeTrackDT	1.1	SCS215a	20101112.093624	20101112.094226	dt-generate	8	0.013328	60	10	60-180	60	72	GapExp	0	60	2	1	0	target	0	-13	-1000	50236	13.328	13.104	13.548
DTProbeTrack03	8	ProbeTrackDT	1.1	SCS215a	20101112.093624	20101112.094230	dt-generate	8	0.013328	60	10	60-180	60	77	GapExp	0	61	2	45	1	distractor	0	480	-1000	49236	13.328	13.088	13.568
DTProbeTrack03	8	ProbeTrackDT	1.1	SCS215a	20101112.093624	20101112.094236	dt-generate	8	0.013328	60	10	60-180	60	79	GapExp	0	62	2	1	1	target	1	307	847	50083	13.328	13.048	13.612
DTProbeTrack03	8	ProbeTrackDT	1.1	SCS215a	20101112.093624	20101112.094241	dt-generate	8	0.013328	60	10	60-180	60	150	GapExp	0	63	2	1	1	target	1	587	707	50790	13.328	12.989	13.677
DTProbeTrack03	8	ProbeTrackDT	1.1	SCS215a	20101112.093624	20101112.094247	dt-generate	8	0.013328	60	10	60-180	60	173	GapExp	0	64	2	6	0	target	0	973	-1000	49790	13.328	13.095	13.563
DTProbeTrack03	8	ProbeTrackDT	1.1	SCS215a	20101112.093624	20101112.094254	dt-generate	8	0.013328	60	10	60-180	60	93	GapExp	0	65	2	6	1	target	1	427	787	50577	13.328	13.100	13.557
DTProbeTrack03	8	ProbeTrackDT	1.1	SCS215a	20101112.093624	20101112.094259	dt-generate	8	0.013328	60	10	60-180	60	89	GapExp	0	66	2	6	1	distractor	0	280	-1000	49577	13.392	13.104	26.251
DTProbeTrack03	8	ProbeTrackDT	1.1	SCS215a	20101112.093624	20101112.094304	dt-generate	8	0.013328	60	10	60-180	60	92	GapExp	0	67	2	3	0	distractor	1	1560	220	49797	13.328	13.310	13.346
DTProbeTrack03	8	ProbeTrackDT	1.1	SCS215a	20101112.093624	20101112.094310	dt-generate	8	0.013328	60	10	60-180	60	109	GapExp	0	68	2	3	1	target	1	787	607	50404	13.328	12.988	13.661
DTProbeTrack03	8	ProbeTrackDT	1.1	SCS215a	20101112.093624	20101112.094316	dt-generate	8	0.013328	60	10	60-180	60	108	GapExp	0	69	2	9	1	target	1	574	713	51117	13.328	13.032	13.639
DTProbeTrack03	8	ProbeTrackDT	1.1	SCS215a	20101112.093624	20101112.094321	dt-generate	8	0.013328	60	10	60-180	60	153	GapExp	0	70	2	3	1	target	1	534	733	51850	13.328	13.087	13.569
DTProbeTrack03	8	ProbeTrackDT	1.1	SCS215a	20101112.093624	20101112.094327	dt-generate	8	0.013328	60	10	60-180	60	165	GapExp	0	71	2	9	1	target	1	1013	494	52344	13.328	13.115	13.546
DTProbeTrack03	8	ProbeTrackDT	1.1	SCS215a	20101112.093624	20101112.094334	dt-generate	8	0.013328	60	10	60-180	60	178	GapExp	0	72	2	9	1	distractor	0	693	-1000	51344	13.328	13.110	13.558
DTProbeTrack03	8	ProbeTrackDT	1.1	SCS215a	20101112.093624	20101112.094341	dt-generate	8	0.013328	60	10	60-180	60	87	GapExp	0	73	2	1	1	target	1	14	993	52337	13.328	13.270	13.386
DTProbeTrack03	8	ProbeTrackDT	1.1	SCS215a	20101112.093624	20101112.094345	dt-generate	8	0.013328	60	10	60-180	60	75	GapExp	0	74	2	9	1	target	1	600	700	53037	13.328	13.302	13.366
DTProbeTrack03	8	ProbeTrackDT	1.1	SCS215a	20101112.093624	20101112.094351	dt-generate	8	0.013328	60	10	60-180	60	92	GapExp	0	75	2	1	0	distractor	1	574	713	53750	13.328	13.309	13.346
DTProbeTrack03	8	ProbeTrackDT	1.1	SCS215a	20101112.093624	20101112.094356	dt-generate	8	0.013328	60	10	60-180	60	68	GapExp	0	76	2	3	1	target	1	374	813	54563	13.328	13.087	13.560
DTProbeTrack03	8	ProbeTrackDT	1.1	SCS215a	20101112.093624	20101112.094401	dt-generate	8	0.013328	60	10	60-180	60	95	GapExp	0	77	2	9	0	target	0	613	-1000	53563	13.328	13.308	13.349
DTProbeTrack03	8	ProbeTrackDT	1.1	SCS215a	20101112.093624	20101112.094406	dt-generate	8	0.013328	60	10	60-180	60	106	GapExp	0	78	2	3	1	target	1	6678	0	53563	13.328	12.900	13.757
DTProbeTrack03	8	ProbeTrackDT	1.1	SCS215a	20101112.093624	20101112.094417	dt-generate	8	0.013328	60	10	60-180	60	92	GapExp	0	79	2	9	0	distractor	1	800	600	54163	13.328	13.303	13.347
DTProbeTrack03	8	ProbeTrackDT	1.1	SCS215a	20101112.093624	20101112.094423	dt-generate	8	0.013328	60	10	60-180	60	106	GapExp	0	80	2	9	0	target	0	80	-1000	53163	13.328	13.096	13.547
DTProbeTrack03	8	ProbeTrackDT	1.1	SCS215a	20101112.093624	20101112.094428	dt-generate	8	0.013328	60	10	60-180	60	85	GapExp	0	81	2	9	0	220	-3	14	-1000	52163	13.328	13.302	13.344
DTProbeTrack03	8	ProbeTrackDT	1.1	SCS215a	20101112.093624	20101112.094433	dt-generate	8	0.013328	60	10	60-180	60	173	GapExp	0	82	2	45	0	distractor	1	707	647	52810	13.328	12.932	13.737
DTProbeTrack03	8	ProbeTrackDT	1.1	SCS215a	20101112.093624	20101112.094440	dt-generate	8	0.013328	60	10	60-180	60	123	GapExp	0	83	2	3	0	target	0	494	-1000	51810	13.328	12.971	13.684
DTProbeTrack03	8	ProbeTrackDT	1.1	SCS215a	20101112.093624	20101112.094445	dt-generate	8	0.013328	60	10	60-180	60	143	GapExp	0	84	2	45	1	distractor	0	147	-1000	50810	13.328	12.887	13.763
DTProbeTrack03	8	ProbeTrackDT	1.1	SCS215a	20101112.093624	20101112.094452	dt-generate	8	0.013328	60	10	60-180	60	135	GapExp	0	85	2	1	1	target	1	534	733	51543	13.328	13.309	13.348
DTProbeTrack03	8	ProbeTrackDT	1.1	SCS215a	20101112.093624	20101112.094457	dt-generate	8	0.013328	60	10	60-180	60	172	GapExp	0	86	2	6	0	target	0	1426	-1000	50543	13.328	13.099	13.561
DTProbeTrack03	8	ProbeTrackDT	1.1	SCS215a	20101112.093624	20101112.094505	dt-generate	8	0.013328	60	10	60-180	60	92	GapExp	0	87	2	45	0	distractor	1	494	753	51296	13.328	13.091	13.552
DTProbeTrack03	8	ProbeTrackDT	1.1	SCS215a	20101112.093624	20101112.094510	dt-generate	8	0.013328	60	10	60-180	60	100	GapExp	0	88	2	1	1	target	1	1107	447	51743	13.328	13.307	13.351
DTProbeTrack03	8	ProbeTrackDT	1.1	SCS215a	20101112.093624	20101112.094516	dt-generate	8	0.013328	60	10	60-180	60	92	GapExp	0	89	2	6	0	distractor	1	880	560	52303	13.328	13.094	13.573
DTProbeTrack03	8	ProbeTrackDT	1.1	SCS215a	20101112.093624	20101112.094522	dt-generate	8	0.013328	60	10	60-180	60	141	GapExp	0	90	2	3	0	target	0	587	-1000	51303	13.328	12.891	13.768
DTProbeTrack03	8	ProbeTrackDT	1.1	SCS215a	20101112.093624	20101112.094528	dt-generate	8	0.013328	60	10	60-180	60	130	GapExp	0	91	2	9	1	distractor	0	720	-1000	50303	13.328	12.869	13.790
DTProbeTrack03	8	ProbeTrackDT	1.1	SCS215a	20101112.093624	20101112.094534	dt-generate	8	0.013328	60	10	60-180	60	121	GapExp	0	92	2	45	0	target	0	-13	-1000	49303	13.328	13.110	13.538
DTProbeTrack03	8	ProbeTrackDT	1.1	SCS215a	20101112.093624	20101112.094540	dt-generate	8	0.013328	60	10	60-180	60	118	GapExp	0	93	2	3	0	target	0	600	-1000	48303	13.328	13.105	13.553
DTProbeTrack03	8	ProbeTrackDT	1.1	SCS215a	20101112.093624	20101112.094545	dt-generate	8	0.013328	60	10	60-180	60	154	GapExp	0	94	2	45	0	target	0	174	-1000	47303	13.328	12.854	13.810
DTProbeTrack03	8	ProbeTrackDT	1.1	SCS215a	20101112.093624	20101112.094551	dt-generate	8	0.013328	60	10	60-180	60	81	GapExp	0	95	2	9	1	distractor	0	320	-1000	46303	13.328	13.308	13.348
DTProbeTrack03	8	ProbeTrackDT	1.1	SCS215a	20101112.093624	20101112.094556	dt-generate	8	0.013328	60	10	60-180	60	177	GapExp	0	96	2	9	0	distractor	1	520	740	47043	13.328	13.300	13.346
DTProbeTrack03	8	ProbeTrackDT	1.1	SCS215a	20101112.093624	20101112.094603	dt-generate	8	0.013328	60	10	60-180	60	98	GapExp	0	97	2	45	0	distractor	1	480	760	47803	13.328	12.961	13.693
DTProbeTrack03	8	ProbeTrackDT	1.1	SCS215a	20101112.093624	20101112.094609	dt-generate	8	0.013328	60	10	60-180	60	118	GapExp	0	98	2	9	1	target	1	440	780	48583	13.328	12.900	13.767
DTProbeTrack03	8	ProbeTrackDT	1.1	SCS215a	20101112.093624	20101112.094614	dt-generate	8	0.013328	60	10	60-180	60	123	GapExp	0	99	2	9	1	distractor	0	547	-1000	47583	13.328	12.858	13.798
DTProbeTrack03	8	ProbeTrackDT	1.1	SCS215a	20101112.093624	20101112.094620	dt-generate	8	0.013328	60	10	60-180	60	142	GapExp	0	100	2	3	0	distractor	1	254	873	48456	13.328	13.298	13.360
DTProbeTrack03	8	ProbeTrackDT	1.1	SCS215a	20101112.093624	20101112.094634	dt-generate	8	0.013328	60	10	60-180	60	83	GapExp	0	101	2	1	1	target	1	680	660	49116	13.328	13.303	13.353
DTProbeTrack03	8	ProbeTrackDT	1.1	SCS215a	20101112.093624	20101112.094639	dt-generate	8	0.013328	60	10	60-180	60	128	GapExp	0	102	2	1	1	distractor	0	813	-1000	48116	13.328	13.000	13.652
DTProbeTrack03	8	ProbeTrackDT	1.1	SCS215a	20101112.093624	20101112.094645	dt-generate	8	0.013328	60	10	60-180	60	107	GapExp	0	103	2	3	0	target	0	560	-1000	47116	13.328	12.977	13.670
DTProbeTrack03	8	ProbeTrackDT	1.1	SCS215a	20101112.093624	20101112.094651	dt-generate	8	0.013328	60	10	60-180	60	147	GapExp	0	104	2	6	1	distractor	0	467	-1000	46116	13.328	13.095	13.567
DTProbeTrack03	8	ProbeTrackDT	1.1	SCS215a	20101112.093624	20101112.094657	dt-generate	8	0.013328	60	10	60-180	60	68	GapExp	0	105	2	9	1	target	1	1120	440	46556	13.328	13.088	13.565
DTProbeTrack03	8	ProbeTrackDT	1.1	SCS215a	20101112.093624	20101112.094702	dt-generate	8	0.013328	60	10	60-180	60	155	GapExp	0	106	2	9	1	target	1	400	800	47356	13.328	13.162	13.499
DTProbeTrack03	8	ProbeTrackDT	1.1	SCS215a	20101112.093624	20101112.094708	dt-generate	8	0.013328	60	10	60-180	60	92	GapExp	0	107	2	1	0	target	0	693	-1000	46356	13.328	12.843	13.814
DTProbeTrack03	8	ProbeTrackDT	1.1	SCS215a	20101112.093624	20101112.094714	dt-generate	8	0.013328	60	10	60-180	60	154	GapExp	0	108	2	1	1	target	1	440	780	47136	13.328	12.882	13.778
DTProbeTrack03	8	ProbeTrackDT	1.1	SCS215a	20101112.093624	20101112.094720	dt-generate	8	0.013328	60	10	60-180	60	105	GapExp	0	109	2	45	1	target	1	707	647	47783	13.328	13.104	13.555
DTProbeTrack03	8	ProbeTrackDT	1.1	SCS215a	20101112.093624	20101112.094726	dt-generate	8	0.013328	60	10	60-180	60	88	GapExp	0	110	2	9	1	target	1	613	694	48477	13.328	12.908	13.746
DTProbeTrack03	8	ProbeTrackDT	1.1	SCS215a	20101112.093624	20101112.094731	dt-generate	8	0.013328	60	10	60-180	60	107	GapExp	0	111	2	45	0	target	0	640	-1000	47477	13.328	13.101	13.549
DTProbeTrack03	8	ProbeTrackDT	1.1	SCS215a	20101112.093624	20101112.094737	dt-generate	8	0.013328	60	10	60-180	60	87	GapExp	0	112	2	1	0	target	0	1000	-1000	46477	13.328	13.282	13.367
DTProbeTrack03	8	ProbeTrackDT	1.1	SCS215a	20101112.093624	20101112.094743	dt-generate	8	0.013328	60	10	60-180	60	153	GapExp	0	113	2	3	1	distractor	0	560	-1000	45477	13.328	13.303	13.349
DTProbeTrack03	8	ProbeTrackDT	1.1	SCS215a	20101112.093624	20101112.094749	dt-generate	8	0.013328	60	10	60-180	60	178	GapExp	0	114	2	1	0	target	0	427	-1000	44477	13.328	13.297	13.358
DTProbeTrack03	8	ProbeTrackDT	1.1	SCS215a	20101112.093624	20101112.094755	dt-generate	8	0.013328	60	10	60-180	60	133	GapExp	0	115	2	6	1	distractor	0	467	-1000	43477	13.328	13.072	13.585
DTProbeTrack03	8	ProbeTrackDT	1.1	SCS215a	20101112.093624	20101112.094801	dt-generate	8	0.013328	60	10	60-180	60	122	GapExp	0	116	2	1	0	target	0	507	-1000	42477	13.328	13.100	13.563
DTProbeTrack03	8	ProbeTrackDT	1.1	SCS215a	20101112.093624	20101112.094807	dt-generate	8	0.013328	60	10	60-180	60	96	GapExp	0	117	2	6	1	target	1	680	660	43137	13.328	13.115	13.553
DTProbeTrack03	8	ProbeTrackDT	1.1	SCS215a	20101112.093624	20101112.094812	dt-generate	8	0.013328	60	10	60-180	60	149	GapExp	0	118	2	9	0	distractor	1	494	753	43890	13.328	13.308	13.348
DTProbeTrack03	8	ProbeTrackDT	1.1	SCS215a	20101112.093624	20101112.094818	dt-generate	8	0.013328	60	10	60-180	60	161	GapExp	0	119	2	3	1	target	1	294	853	44743	13.328	12.921	13.747
DTProbeTrack03	8	ProbeTrackDT	1.1	SCS215a	20101112.093624	20101112.094824	dt-generate	8	0.013328	60	10	60-180	60	175	GapExp	0	120	2	3	1	distractor	0	867	-1000	43743	13.328	12.916	13.743
DTProbeTrack03	8	ProbeTrackDT	1.1	SCS215a	20101112.093624	20101112.094831	dt-generate	8	0.013328	60	10	60-180	60	159	GapExp	0	121	2	9	0	distractor	1	560	720	44463	13.328	12.968	13.686
DTProbeTrack03	8	ProbeTrackDT	1.1	SCS215a	20101112.093624	20101112.094837	dt-generate	8	0.013328	60	10	60-180	60	78	GapExp	0	122	2	6	1	target	1	587	707	45170	13.328	12.935	13.736
DTProbeTrack03	8	ProbeTrackDT	1.1	SCS215a	20101112.093624	20101112.094842	dt-generate	8	0.013328	60	10	60-180	60	114	GapExp	0	123	2	9	0	target	0	174	-1000	44170	13.328	13.253	13.386
DTProbeTrack03	8	ProbeTrackDT	1.1	SCS215a	20101112.093624	20101112.094848	dt-generate	8	0.013328	60	10	60-180	60	114	GapExp	0	124	2	1	0	distractor	1	1080	460	44630	13.328	13.307	13.349
DTProbeTrack03	8	ProbeTrackDT	1.1	SCS215a	20101112.093624	20101112.094854	dt-generate	8	0.013328	60	10	60-180	60	162	GapExp	0	125	2	3	1	target	1	560	720	45350	13.328	13.042	13.607
DTProbeTrack03	8	ProbeTrackDT	1.1	SCS215a	20101112.093624	20101112.094900	dt-generate	8	0.013328	60	10	60-180	60	142	GapExp	0	126	2	3	1	target	1	1107	447	45797	13.328	12.898	13.751
DTProbeTrack03	8	ProbeTrackDT	1.1	SCS215a	20101112.093624	20101112.094906	dt-generate	8	0.013328	60	10	60-180	60	68	GapExp	0	127	2	1	1	target	1	800	600	46397	13.328	13.309	13.352
DTProbeTrack03	8	ProbeTrackDT	1.1	SCS215a	20101112.093624	20101112.094912	dt-generate	8	0.013328	60	10	60-180	60	165	GapExp	0	128	2	45	1	target	1	680	660	47057	13.328	12.914	13.746
DTProbeTrack03	8	ProbeTrackDT	1.1	SCS215a	20101112.093624	20101112.094919	dt-generate	8	0.013328	60	10	60-180	60	130	GapExp	0	129	2	6	0	distractor	1	334	833	47890	13.328	12.982	13.667
DTProbeTrack03	8	ProbeTrackDT	1.1	SCS215a	20101112.093624	20101112.094924	dt-generate	8	0.013328	60	10	60-180	60	131	GapExp	0	130	2	6	0	target	0	494	-1000	46890	13.328	13.100	13.568
DTProbeTrack03	8	ProbeTrackDT	1.1	SCS215a	20101112.093624	20101112.094930	dt-generate	8	0.013328	60	10	60-180	60	145	GapExp	0	131	2	45	0	target	0	627	-1000	45890	13.328	13.105	13.554
DTProbeTrack03	8	ProbeTrackDT	1.1	SCS215a	20101112.093624	20101112.094937	dt-generate	8	0.013328	60	10	60-180	60	162	GapExp	0	132	2	3	0	target	0	534	-1000	44890	13.328	13.016	13.631
DTProbeTrack03	8	ProbeTrackDT	1.1	SCS215a	20101112.093624	20101112.094943	dt-generate	8	0.013328	60	10	60-180	60	136	GapExp	0	133	2	45	0	target	0	1000	-1000	43890	13.328	13.096	13.564
DTProbeTrack03	8	ProbeTrackDT	1.1	SCS215a	20101112.093624	20101112.094950	dt-generate	8	0.013328	60	10	60-180	60	77	GapExp	0	134	2	3	0	distractor	1	853	574	44464	13.328	13.298	13.354
DTProbeTrack03	8	ProbeTrackDT	1.1	SCS215a	20101112.093624	20101112.094955	dt-generate	8	0.013328	60	10	60-180	60	140	GapExp	0	135	2	45	1	target	1	880	560	45024	13.328	13.308	13.346
DTProbeTrack03	8	ProbeTrackDT	1.1	SCS215a	20101112.093624	20101112.095002	dt-generate	8	0.013328	60	10	60-180	60	99	GapExp	0	136	2	6	0	target	0	1067	-1000	44024	13.328	13.169	13.484
DTProbeTrack03	8	ProbeTrackDT	1.1	SCS215a	20101112.093624	20101112.095008	dt-generate	8	0.013328	60	10	60-180	60	68	GapExp	0	137	2	6	0	distractor	1	147	927	44951	13.328	13.104	13.542
DTProbeTrack03	8	ProbeTrackDT	1.1	SCS215a	20101112.093624	20101112.095013	dt-generate	8	0.013328	60	10	60-180	60	144	GapExp	0	138	2	9	0	target	0	374	-1000	43951	13.328	13.118	13.548
DTProbeTrack03	8	ProbeTrackDT	1.1	SCS215a	20101112.093624	20101112.095019	dt-generate	8	0.013328	60	10	60-180	60	65	GapExp	0	139	2	1	0	target	0	827	-1000	42951	13.328	13.309	13.343
DTProbeTrack03	8	ProbeTrackDT	1.1	SCS215a	20101112.093624	20101112.095024	dt-generate	8	0.013328	60	10	60-180	60	103	GapExp	0	140	2	6	1	distractor	0	111	-1000	41951	13.328	12.981	13.668
DTProbeTrack03	8	ProbeTrackDT	1.1	SCS215a	20101112.093624	20101112.095029	dt-generate	8	0.013328	60	10	60-180	60	92	GapExp	0	141	2	1	1	distractor	0	760	-1000	40951	13.328	13.101	13.547
DTProbeTrack03	8	ProbeTrackDT	1.1	SCS215a	20101112.093624	20101112.095034	dt-generate	8	0.013328	60	10	60-180	60	170	GapExp	0	142	2	45	1	target	1	467	767	41718	13.328	12.884	13.787
DTProbeTrack03	8	ProbeTrackDT	1.1	SCS215a	20101112.093624	20101112.095041	dt-generate	8	0.013328	60	10	60-180	60	92	GapExp	0	143	2	3	0	target	0	800	-1000	40718	13.328	13.106	13.549
DTProbeTrack03	8	ProbeTrackDT	1.1	SCS215a	20101112.093624	20101112.095047	dt-generate	8	0.013328	60	10	60-180	60	173	GapExp	0	144	2	3	1	distractor	0	1080	-1000	39718	13.328	13.102	13.548
DTProbeTrack03	8	ProbeTrackDT	1.1	SCS215a	20101112.093624	20101112.095053	dt-generate	8	0.013328	60	10	60-180	60	93	GapExp	0	145	2	1	1	target	1	347	827	40545	13.328	13.308	13.348
DTProbeTrack03	8	ProbeTrackDT	1.1	SCS215a	20101112.093624	20101112.095059	dt-generate	8	0.013328	60	10	60-180	60	125	GapExp	0	146	2	6	1	target	1	733	634	41179	13.328	13.308	13.347
DTProbeTrack03	8	ProbeTrackDT	1.1	SCS215a	20101112.093624	20101112.095104	dt-generate	8	0.013328	60	10	60-180	60	122	GapExp	0	147	2	3	1	target	1	654	673	41852	13.328	13.309	13.347
DTProbeTrack03	8	ProbeTrackDT	1.1	SCS215a	20101112.093624	20101112.095110	dt-generate	8	0.013328	60	10	60-180	60	126	GapExp	0	148	2	9	0	target	0	507	-1000	40852	13.328	13.013	13.636
DTProbeTrack03	8	ProbeTrackDT	1.1	SCS215a	20101112.093624	20101112.095116	dt-generate	8	0.013328	60	10	60-180	60	139	GapExp	0	149	2	45	1	distractor	0	334	-1000	39852	13.328	13.110	13.558
DTProbeTrack03	8	ProbeTrackDT	1.1	SCS215a	20101112.093624	20101112.095122	dt-generate	8	0.013328	60	10	60-180	60	86	GapExp	0	150	2	1	1	target	1	1240	380	40232	13.328	13.303	13.348
DTProbeTrack03	8	ProbeTrackDT	1.1	SCS215a	20101112.093624	20101112.095133	dt-generate	8	0.013328	60	10	60-180	60	75	GapExp	0	151	2	9	1	target	1	427	787	41019	13.328	13.308	13.350
DTProbeTrack03	8	ProbeTrackDT	1.1	SCS215a	20101112.093624	20101112.095138	dt-generate	8	0.013328	60	10	60-180	60	111	GapExp	0	152	2	45	1	target	1	667	667	41686	13.328	13.094	13.544
DTProbeTrack03	8	ProbeTrackDT	1.1	SCS215a	20101112.093624	20101112.095144	dt-generate	8	0.013328	60	10	60-180	60	123	GapExp	0	153	2	1	1	distractor	0	440	-1000	40686	13.328	13.054	13.584
DTProbeTrack03	8	ProbeTrackDT	1.1	SCS215a	20101112.093624	20101112.095150	dt-generate	8	0.013328	60	10	60-180	60	149	GapExp	0	154	2	9	1	target	1	75	963	41649	13.328	13.138	13.508
DTProbeTrack03	8	ProbeTrackDT	1.1	SCS215a	20101112.093624	20101112.095155	dt-generate	8	0.013328	60	10	60-180	60	174	GapExp	0	155	2	3	0	distractor	1	387	807	42456	13.328	13.068	13.591
DTProbeTrack03	8	ProbeTrackDT	1.1	SCS215a	20101112.093624	20101112.095201	dt-generate	8	0.013328	60	10	60-180	60	64	GapExp	0	156	2	45	0	target	0	5678	-1000	41456	13.328	12.986	13.666
DTProbeTrack03	8	ProbeTrackDT	1.1	SCS215a	20101112.093624	20101112.095212	dt-generate	8	0.013328	60	10	60-180	60	167	GapExp	0	157	2	6	1	target	1	360	820	42276	13.328	12.898	13.763
DTProbeTrack03	8	ProbeTrackDT	1.1	SCS215a	20101112.093624	20101112.095218	dt-generate	8	0.013328	60	10	60-180	60	85	GapExp	0	158	2	1	1	target	1	427	787	43063	13.328	13.309	13.347
DTProbeTrack03	8	ProbeTrackDT	1.1	SCS215a	20101112.093624	20101112.095223	dt-generate	8	0.013328	60	10	60-180	60	175	GapExp	0	159	2	45	1	target	1	214	893	43956	13.328	13.305	13.348
DTProbeTrack03	8	ProbeTrackDT	1.1	SCS215a	20101112.093624	20101112.095230	dt-generate	8	0.013328	60	10	60-180	60	179	GapExp	0	160	2	45	1	distractor	0	334	-1000	42956	13.328	13.244	13.405
DTProbeTrack03	8	ProbeTrackDT	1.1	SCS215a	20101112.093624	20101112.095237	dt-generate	8	0.013328	60	10	60-180	60	82	GapExp	0	161	2	6	0	target	0	241	-1000	41956	13.328	13.308	13.345
DTProbeTrack03	8	ProbeTrackDT	1.1	SCS215a	20101112.093624	20101112.095242	dt-generate	8	0.013328	60	10	60-180	60	85	GapExp	0	162	2	6	1	target	1	667	667	42623	13.328	13.109	13.547
DTProbeTrack03	8	ProbeTrackDT	1.1	SCS215a	20101112.093624	20101112.095247	dt-generate	8	0.013328	60	10	60-180	60	79	GapExp	0	163	2	6	0	distractor	1	587	707	43330	13.328	13.096	13.563
DTProbeTrack03	8	ProbeTrackDT	1.1	SCS215a	20101112.093624	20101112.095252	dt-generate	8	0.013328	60	10	60-180	60	141	GapExp	0	164	2	3	0	target	0	-13	-1000	42330	13.328	12.877	13.779
DTProbeTrack03	8	ProbeTrackDT	1.1	SCS215a	20101112.093624	20101112.095258	dt-generate	8	0.013328	60	10	60-180	60	127	GapExp	0	165	2	1	0	distractor	1	787	607	42937	13.328	12.852	13.799
DTProbeTrack03	8	ProbeTrackDT	1.1	SCS215a	20101112.093624	20101112.095304	dt-generate	8	0.013328	60	10	60-180	60	127	GapExp	0	166	2	45	0	target	0	534	-1000	41937	13.372	12.879	27.047
DTProbeTrack03	8	ProbeTrackDT	1.1	SCS215a	20101112.093624	20101112.095310	dt-generate	8	0.013328	60	10	60-180	60	64	GapExp	0	167	2	6	0	target	0	7051	-1000	40937	13.328	13.097	13.514
DTProbeTrack03	8	ProbeTrackDT	1.1	SCS215a	20101112.093624	20101112.095322	dt-generate	8	0.013328	60	10	60-180	60	117	GapExp	0	168	2	3	1	37	-3	0	-1000	39937	13.328	12.876	13.775
DTProbeTrack03	8	ProbeTrackDT	1.1	SCS215a	20101112.093624	20101112.095326	dt-generate	8	0.013328	60	10	60-180	60	76	GapExp	0	169	2	9	1	target	1	960	520	40457	13.328	13.308	13.348
DTProbeTrack03	8	ProbeTrackDT	1.1	SCS215a	20101112.093624	20101112.095332	dt-generate	8	0.013328	60	10	60-180	60	146	GapExp	0	170	2	3	1	target	1	5118	0	40457	13.328	12.857	13.788
DTProbeTrack03	8	ProbeTrackDT	1.1	SCS215a	20101112.093624	20101112.095343	dt-generate	8	0.013328	60	10	60-180	60	125	GapExp	0	171	2	45	0	distractor	1	440	780	41237	13.466	13.059	39.968
DTProbeTrack03	8	ProbeTrackDT	1.1	SCS215a	20101112.093624	20101112.095349	dt-generate	8	0.013328	60	10	60-180	60	78	GapExp	0	172	2	45	1	target	1	907	547	41784	13.328	13.100	13.562
DTProbeTrack03	8	ProbeTrackDT	1.1	SCS215a	20101112.093624	20101112.095355	dt-generate	8	0.013328	60	10	60-180	60	110	GapExp	0	173	2	45	0	target	0	94	-1000	40784	13.328	12.847	13.814
DTProbeTrack03	8	ProbeTrackDT	1.1	SCS215a	20101112.093624	20101112.095401	dt-generate	8	0.013328	60	10	60-180	60	136	GapExp	0	174	2	6	0	target	0	320	-1000	39784	13.328	13.298	13.354
DTProbeTrack03	8	ProbeTrackDT	1.1	SCS215a	20101112.093624	20101112.095406	dt-generate	8	0.013328	60	10	60-180	60	157	GapExp	0	175	2	6	0	target	0	920	-1000	38784	13.328	13.096	13.353
DTProbeTrack03	8	ProbeTrackDT	1.1	SCS215a	20101112.093624	20101112.095413	dt-generate	8	0.013328	60	10	60-180	60	70	GapExp	0	176	2	9	0	target	0	1160	-1000	37784	13.328	13.098	13.563
DTProbeTrack03	8	ProbeTrackDT	1.1	SCS215a	20101112.093624	20101112.095419	dt-generate	8	0.013328	60	10	60-180	60	177	GapExp	0	177	2	9	0	distractor	1	534	733	38517	13.328	13.309	13.347
DTProbeTrack03	8	ProbeTrackDT	1.1	SCS215a	20101112.093624	20101112.095425	dt-generate	8	0.013328	60	10	60-180	60	62	GapExp	0	178	2	9	0	target	0	520	-1000	37517	13.328	13.092	13.561
DTProbeTrack03	8	ProbeTrackDT	1.1	SCS215a	20101112.093624	20101112.095430	dt-generate	8	0.013328	60	10	60-180	60	71	GapExp	0	179	2	9	1	target	1	574	713	38230	13.328	13.310	13.346
DTProbeTrack03	8	ProbeTrackDT	1.1	SCS215a	20101112.093624	20101112.095435	dt-generate	8	0.013328	60	10	60-180	60	128	GapExp	0	180	2	6	1	distractor	0	54	-1000	37230	13.328	12.896	13.764
DTProbeTrack03	8	ProbeTrackDT	1.1	SCS215a	20101112.093624	20101112.095440	dt-generate	8	0.013328	60	10	60-180	60	123	GapExp	0	181	2	45	1	target	1	0	1000	38230	13.328	13.094	13.565
DTProbeTrack03	8	ProbeTrackDT	1.1	SCS215a	20101112.093624	20101112.095446	dt-generate	8	0.013328	60	10	60-180	60	168	GapExp	0	182	2	45	1	target	1	-13	1007	39237	13.328	12.953	13.688
DTProbeTrack03	8	ProbeTrackDT	1.1	SCS215a	20101112.093624	20101112.095452	dt-generate	8	0.013328	60	10	60-180	60	84	GapExp	0	183	2	1	0	distractor	1	667	667	39904	13.328	13.308	13.348
DTProbeTrack03	8	ProbeTrackDT	1.1	SCS215a	20101112.093624	20101112.095458	dt-generate	8	0.013328	60	10	60-180	60	127	GapExp	0	184	2	6	1	target	1	507	747	40651	13.328	13.308	13.348
DTProbeTrack03	8	ProbeTrackDT	1.1	SCS215a	20101112.093624	20101112.095503	dt-generate	8	0.013328	60	10	60-180	60	63	GapExp	0	185	2	45	1	target	1	1067	467	41118	13.328	12.954	13.696
DTProbeTrack03	8	ProbeTrackDT	1.1	SCS215a	20101112.093624	20101112.095510	dt-generate	8	0.013328	60	10	60-180	60	158	GapExp	0	186	2	45	1	distractor	0	227	-1000	40118	13.328	13.309	13.345
DTProbeTrack03	8	ProbeTrackDT	1.1	SCS215a	20101112.093624	20101112.095516	dt-generate	8	0.013328	60	10	60-180	60	131	GapExp	0	187	2	3	1	target	1	320	840	40958	13.328	13.099	13.562
DTProbeTrack03	8	ProbeTrackDT	1.1	SCS215a	20101112.093624	20101112.095522	dt-generate	8	0.013328	60	10	60-180	60	178	GapExp	0	188	2	45	1	target	1	334	833	41791	13.328	13.309	13.348
DTProbeTrack03	8	ProbeTrackDT	1.1	SCS215a	20101112.093624	20101112.095529	dt-generate	8	0.013328	60	10	60-180	60	83	GapExp	0	189	2	45	0	target	0	680	-1000	40791	13.328	12.896	13.753
DTProbeTrack03	8	ProbeTrackDT	1.1	SCS215a	20101112.093624	20101112.095535	dt-generate	8	0.013328	60	10	60-180	60	160	GapExp	0	190	2	6	0	target	0	574	-1000	39791	13.328	13.096	13.564
DTProbeTrack03	8	ProbeTrackDT	1.1	SCS215a	20101112.093624	20101112.095541	dt-generate	8	0.013328	60	10	60-180	60	110	GapExp	0	191	2	45	0	target	0	840	-1000	38791	13.328	13.106	13.550
DTProbeTrack03	8	ProbeTrackDT	1.1	SCS215a	20101112.093624	20101112.095548	dt-generate	8	0.013328	60	10	60-180	60	158	GapExp	0	192	2	3	0	distractor	1	627	687	39478	13.328	13.097	13.542
DTProbeTrack03	8	ProbeTrackDT	1.1	SCS215a	20101112.093624	20101112.095554	dt-generate	8	0.013328	60	10	60-180	60	90	GapExp	0	193	2	6	1	distractor	0	680	-1000	38478	13.328	13.245	13.405
DTProbeTrack03	8	ProbeTrackDT	1.1	SCS215a	20101112.093624	20101112.095559	dt-generate	8	0.013328	60	10	60-180	60	179	GapExp	0	194	2	45	0	target	0	360	-1000	37478	13.328	13.158	13.512
DTProbeTrack03	8	ProbeTrackDT	1.1	SCS215a	20101112.093624	20101112.095606	dt-generate	8	0.013328	60	10	60-180	60	170	GapExp	0	195	2	3	0	distractor	1	520	740	38218	13.328	12.903	13.746
DTProbeTrack03	8	ProbeTrackDT	1.1	SCS215a	20101112.093624	20101112.095612	dt-generate	8	0.013328	60	10	60-180	60	165	GapExp	0	196	2	6	0	target	0	160	-1000	37218	13.328	13.095	13.562
DTProbeTrack03	8	ProbeTrackDT	1.1	SCS215a	20101112.093624	20101112.095618	dt-generate	8	0.013328	60	10	60-180	60	173	GapExp	0	197	2	9	0	distractor	1	893	554	37772	13.328	13.073	13.581
DTProbeTrack03	8	ProbeTrackDT	1.1	SCS215a	20101112.093624	20101112.095625	dt-generate	8	0.013328	60	10	60-180	60	135	GapExp	0	198	2	45	0	target	0	1213	-1000	36772	13.328	13.085	13.559
DTProbeTrack03	8	ProbeTrackDT	1.1	SCS215a	20101112.093624	20101112.095632	dt-generate	8	0.013328	60	10	60-180	60	165	GapExp	0	199	2	9	0	distractor	1	587	707	37479	13.328	13.062	13.600
DTProbeTrack03	8	ProbeTrackDT	1.1	SCS215a	20101112.093624	20101112.095639	dt-generate	8	0.013328	60	10	60-180	60	114	GapExp	0	200	2	1	0	target	0	613	-1000	36479	13.328	12.860	13.807
DTProbeTrack03	8	ProbeTrackDT	1.1	SCS215a	20101112.093624	20101112.095649	dt-generate	8	0.013328	60	10	60-180	60	165	GapExp	0	201	2	6	1	target	1	520	740	37219	13.328	13.309	13.344
DTProbeTrack03	8	ProbeTrackDT	1.1	SCS215a	20101112.093624	20101112.095656	dt-generate	8	0.013328	60	10	60-180	60	95	GapExp	0	202	2	6	1	distractor	0	360	-1000	36219	13.328	12.891	13.779
DTProbeTrack03	8	ProbeTrackDT	1.1	SCS215a	20101112.093624	20101112.095701	dt-generate	8	0.013328	60	10	60-180	60	82	GapExp	0	203	2	45	0	target	0	1027	-1000	35219	13.328	12.910	13.743
DTProbeTrack03	8	ProbeTrackDT	1.1	SCS215a	20101112.093624	20101112.095707	dt-generate	8	0.013328	60	10	60-180	60	171	GapExp	0	204	2	45	1	target	1	360	820	36039	13.328	13.110	13.549
DTProbeTrack03	8	ProbeTrackDT	1.1	SCS215a	20101112.093624	20101112.095714	dt-generate	8	0.013328	60	10	60-180	60	148	GapExp	0	205	2	6	1	distractor	0	507	-1000	35039	13.328	13.090	13.569
DTProbeTrack03	8	ProbeTrackDT	1.1	SCS215a	20101112.095801	20101112.095806	dt-shadow	8	0.013328	60	10	60-180	60	78	GapPrac	1	1	2	1	1	distractor	0	574	-1000	34039	13.328	13.262	13.388
DTProbeTrack03	8	ProbeTrackDT	1.1	SCS215a	20101112.095801	20101112.095811	dt-shadow	8	0.013328	60	10	60-180	60	100	GapPrac	1	2	2	9	0	distractor	1	520	740	34779	13.328	12.889	13.775
DTProbeTrack03	8	ProbeTrackDT	1.1	SCS215a	20101112.095801	20101112.095817	dt-shadow	8	0.013328	60	10	60-180	60	146	GapPrac	1	3	2	6	0	target	0	773	-1000	33779	13.328	13.085	13.561
DTProbeTrack03	8	ProbeTrackDT	1.1	SCS215a	20101112.095801	20101112.095823	dt-shadow	8	0.013328	60	10	60-180	60	69	GapPrac	1	4	2	3	0	distractor	1	574	713	34492	13.328	12.952	13.708
DTProbeTrack03	8	ProbeTrackDT	1.1	SCS215a	20101112.095801	20101112.095828	dt-shadow	8	0.013328	60	10	60-180	60	97	GapPrac	1	5	2	45	0	distractor	1	587	707	35199	13.328	13.309	13.345
DTProbeTrack03	8	ProbeTrackDT	1.1	SCS215a	20101112.095801	20101112.095834	dt-shadow	8	0.013328	60	10	60-180	60	173	GapPrac	1	6	2	45	1	target	1	720	640	35839	13.328	12.855	13.788
DTProbeTrack03	8	ProbeTrackDT	1.1	SCS215a	20101112.095801	20101112.095841	dt-shadow	8	0.013328	60	10	60-180	60	152	GapPrac	1	7	2	9	1	distractor	0	720	-1000	34839	13.328	12.896	13.811
DTProbeTrack03	8	ProbeTrackDT	1.1	SCS215a	20101112.095801	20101112.095847	dt-shadow	8	0.013328	60	10	60-180	60	177	GapPrac	1	8	2	6	1	target	1	347	827	35666	13.328	13.218	13.452
DTProbeTrack03	8	ProbeTrackDT	1.1	SCS215a	20101112.095801	20101112.095853	dt-shadow	8	0.013328	60	10	60-180	60	130	GapPrac	1	9	2	45	0	distractor	1	560	720	36386	13.328	13.047	13.601
DTProbeTrack03	8	ProbeTrackDT	1.1	SCS215a	20101112.095801	20101112.095900	dt-shadow	8	0.013328	60	10	60-180	60	62	GapPrac	1	10	2	45	1	target	1	693	654	37040	13.328	13.092	13.557
DTProbeTrack03	8	ProbeTrackDT	1.1	SCS215a	20101112.095801	20101112.095905	dt-shadow	8	0.013328	60	10	60-180	60	83	GapPrac	1	11	2	3	1	target	1	720	640	37680	13.328	13.096	13.551
DTProbeTrack03	8	ProbeTrackDT	1.1	SCS215a	20101112.095801	20101112.095910	dt-shadow	8	0.013328	60	10	60-180	60	164	GapPrac	1	12	2	3	0	distractor	1	693	654	38334	13.328	13.092	13.576
DTProbeTrack03	8	ProbeTrackDT	1.1	SCS215a	20101112.095801	20101112.095917	dt-shadow	8	0.013328	60	10	60-180	60	143	GapPrac	1	13	2	1	0	distractor	1	507	747	39081	13.328	13.310	13.349
DTProbeTrack03	8	ProbeTrackDT	1.1	SCS215a	20101112.095801	20101112.095923	dt-shadow	8	0.013328	60	10	60-180	60	122	GapPrac	1	14	2	1	1	target	1	1013	494	39575	13.328	12.952	13.707
DTProbeTrack03	8	ProbeTrackDT	1.1	SCS215a	20101112.095801	20101112.095929	dt-shadow	8	0.013328	60	10	60-180	60	73	GapPrac	1	15	2	6	0	target	0	614	-1000	38575	13.328	13.308	13.346
DTProbeTrack03	8	ProbeTrackDT	1.1	SCS215a	20101112.095801	20101112.095934	dt-shadow	8	0.013328	60	10	60-180	60	79	GapPrac	1	16	2	9	0	target	0	613	-1000	37575	13.328	13.096	13.542
DTProbeTrack03	8	ProbeTrackDT	1.1	SCS215a	20101112.095801	20101112.095939	dt-shadow	8	0.013328	60	10	60-180	60	118	GapPrac	1	17	2	9	1	multi	-2	680	-1000	36575	13.328	13.099	13.557
DTProbeTrack03	8	ProbeTrackDT	1.1	SCS215a	20101112.095801	20101112.095945	dt-shadow	8	0.013328	60	10	60-180	60	130	GapPrac	1	18	2	6	1	target	1	614	693	37268	13.328	13.304	13.356
DTProbeTrack03	8	ProbeTrackDT	1.1	SCS215a	20101112.095801	20101112.095951	dt-shadow	8	0.013328	60	10	60-180	60	150	GapPrac	1	19	2	3	1	target	1	733	634	37902	13.328	13.006	13.647
DTProbeTrack03	8	ProbeTrackDT	1.1	SCS215a	20101112.095801	20101112.095957	dt-shadow	8	0.013328	60	10	60-180	60	143	GapPrac	1	20	2	1	0	target	0	680	-1000	36902	13.328	13.309	13.347
DTProbeTrack03	8	ProbeTrackDT	1.1	SCS215a	20101112.100027	20101112.100031	dt-shadow	8	0.013328	60	10	60-180	60	70	GapExp	1	1	2	3	1	target	1	707	647	37549	13.328	12.928	13.741
DTProbeTrack03	8	ProbeTrackDT	1.1	SCS215a	20101112.100027	20101112.100036	dt-shadow	8	0.013328	60	10	60-180	60	155	GapExp	1	2	2	6	0	distractor	1	94	953	38502	13.328	13.098	13.552
DTProbeTrack03	8	ProbeTrackDT	1.1	SCS215a	20101112.100027	20101112.100042	dt-shadow	8	0.013328	60	10	60-180	60	66	GapExp	1	3	2	9	1	target	1	613	694	39196	13.328	13.307	13.346
DTProbeTrack03	8	ProbeTrackDT	1.1	SCS215a	20101112.100027	20101112.100047	dt-shadow	8	0.013328	60	10	60-180	60	173	GapExp	1	4	2	9	0	distractor	1	707	647	39843	13.328	12.900	13.750
DTProbeTrack03	8	ProbeTrackDT	1.1	SCS215a	20101112.100027	20101112.100054	dt-shadow	8	0.013328	60	10	60-180	60	99	GapExp	1	5	2	3	0	distractor	1	827	587	40430	13.328	12.893	13.758
DTProbeTrack03	8	ProbeTrackDT	1.1	SCS215a	20101112.100027	20101112.100059	dt-shadow	8	0.013328	60	10	60-180	60	123	GapExp	0	6	2	3	1	target	1	427	787	41217	13.328	12.952	13.709
DTProbeTrack03	8	ProbeTrackDT	1.1	SCS215a	20101112.100027	20101112.100105	dt-shadow	8	0.013328	60	10	60-180	60	177	GapExp	0	7	2	45	1	target	1	640	680	41897	13.328	13.096	13.563
DTProbeTrack03	8	ProbeTrackDT	1.1	SCS215a	20101112.100027	20101112.100112	dt-shadow	8	0.013328	60	10	60-180	60	175	GapExp	0	8	2	6	1	distractor	0	813	-1000	40897	13.328	12.854	13.802
DTProbeTrack03	8	ProbeTrackDT	1.1	SCS215a	20101112.100027	20101112.100119	dt-shadow	8	0.013328	60	10	60-180	60	143	GapExp	0	9	2	3	1	target	1	480	760	41657	13.328	13.089	13.573
DTProbeTrack03	8	ProbeTrackDT	1.1	SCS215a	20101112.100027	20101112.100124	dt-shadow	8	0.013328	60	10	60-180	60	174	GapExp	0	10	2	1	0	target	0	494	-1000	40657	13.328	13.089	13.570
DTProbeTrack03	8	ProbeTrackDT	1.1	SCS215a	20101112.100027	20101112.100131	dt-shadow	8	0.013328	60	10	60-180	60	122	GapExp	0	11	2	45	0	distractor	1	627	687	41344	13.328	13.295	13.362
DTProbeTrack03	8	ProbeTrackDT	1.1	SCS215a	20101112.100027	20101112.100137	dt-shadow	8	0.013328	60	10	60-180	60	120	GapExp	0	12	2	1	1	target	1	507	747	42091	13.328	13.157	13.503
DTProbeTrack03	8	ProbeTrackDT	1.1	SCS215a	20101112.100027	20101112.100143	dt-shadow	8	0.013328	60	10	60-180	60	63	GapExp	0	13	2	45	1	distractor	0	640	-1000	41091	13.328	12.961	13.699
DTProbeTrack03	8	ProbeTrackDT	1.1	SCS215a	20101112.100027	20101112.100148	dt-shadow	8	0.013328	60	10	60-180	60	150	GapExp	0	14	2	3	0	target	0	693	-1000	40091	13.328	13.105	13.551
DTProbeTrack03	8	ProbeTrackDT	1.1	SCS215a	20101112.100027	20101112.100154	dt-shadow	8	0.013328	60	10	60-180	60	154	GapExp	0	15	2	9	0	target	0	1773	-1000	39091	13.328	13.094	13.563
DTProbeTrack03	8	ProbeTrackDT	1.1	SCS215a	20101112.100027	20101112.100202	dt-shadow	8	0.013328	60	10	60-180	60	84	GapExp	0	16	2	1	0	target	0	440	-1000	38091	13.328	13.004	13.665
DTProbeTrack03	8	ProbeTrackDT	1.1	SCS215a	20101112.100027	20101112.100207	dt-shadow	8	0.013328	60	10	60-180	60	139	GapExp	0	17	2	45	0	distractor	1	653	674	38765	13.328	13.107	13.551
DTProbeTrack03	8	ProbeTrackDT	1.1	SCS215a	20101112.100027	20101112.100213	dt-shadow	8	0.013328	60	10	60-180	60	142	GapExp	0	18	2	3	1	distractor	0	680	-1000	37765	13.328	13.096	13.553
DTProbeTrack03	8	ProbeTrackDT	1.1	SCS215a	20101112.100027	20101112.100219	dt-shadow	8	0.013328	60	10	60-180	60	62	GapExp	0	19	2	1	0	target	0	360	-1000	36765	13.328	12.872	13.780
DTProbeTrack03	8	ProbeTrackDT	1.1	SCS215a	20101112.100027	20101112.100224	dt-shadow	8	0.013328	60	10	60-180	60	177	GapExp	0	20	2	45	1	distractor	0	693	-1000	35765	13.328	13.028	13.616
DTProbeTrack03	8	ProbeTrackDT	1.1	SCS215a	20101112.100027	20101112.100231	dt-shadow	8	0.013328	60	10	60-180	60	176	GapExp	0	21	2	6	1	target	1	520	740	36505	13.328	13.309	13.351
DTProbeTrack03	8	ProbeTrackDT	1.1	SCS215a	20101112.100027	20101112.100238	dt-shadow	8	0.013328	60	10	60-180	60	69	GapExp	0	22	2	9	1	distractor	0	560	-1000	35505	13.328	12.933	13.726
DTProbeTrack03	8	ProbeTrackDT	1.1	SCS215a	20101112.100027	20101112.100243	dt-shadow	8	0.013328	60	10	60-180	60	88	GapExp	0	23	2	9	0	distractor	1	627	687	36192	13.328	13.056	13.607
DTProbeTrack03	8	ProbeTrackDT	1.1	SCS215a	20101112.100027	20101112.100248	dt-shadow	8	0.013328	60	10	60-180	60	92	GapExp	0	24	2	3	1	target	1	533	734	36926	13.328	13.309	13.347
DTProbeTrack03	8	ProbeTrackDT	1.1	SCS215a	20101112.100027	20101112.100253	dt-shadow	8	0.013328	60	10	60-180	60	104	GapExp	0	25	2	3	0	target	0	693	-1000	35926	13.328	13.309	13.345
DTProbeTrack03	8	ProbeTrackDT	1.1	SCS215a	20101112.100027	20101112.100259	dt-shadow	8	0.013328	60	10	60-180	60	82	GapExp	0	26	2	1	1	distractor	0	547	-1000	34926	13.328	13.309	13.347
DTProbeTrack03	8	ProbeTrackDT	1.1	SCS215a	20101112.100027	20101112.100304	dt-shadow	8	0.013328	60	10	60-180	60	135	GapExp	0	27	2	3	0	target	0	254	-1000	33926	13.328	13.097	13.552
DTProbeTrack03	8	ProbeTrackDT	1.1	SCS215a	20101112.100027	20101112.100309	dt-shadow	8	0.013328	60	10	60-180	60	171	GapExp	0	28	2	1	1	distractor	0	294	-1000	32926	13.328	13.109	13.552
DTProbeTrack03	8	ProbeTrackDT	1.1	SCS215a	20101112.100027	20101112.100315	dt-shadow	8	0.013328	60	10	60-180	60	84	GapExp	0	29	2	45	0	target	0	267	-1000	31926	13.328	13.129	13.518
DTProbeTrack03	8	ProbeTrackDT	1.1	SCS215a	20101112.100027	20101112.100321	dt-shadow	8	0.013328	60	10	60-180	60	65	GapExp	0	30	2	3	1	target	1	813	594	32520	13.328	13.309	13.349
DTProbeTrack03	8	ProbeTrackDT	1.1	SCS215a	20101112.100027	20101112.100326	dt-shadow	8	0.013328	60	10	60-180	60	123	GapExp	0	31	2	45	0	multi	-2	507	-1000	31520	13.328	13.087	13.561
DTProbeTrack03	8	ProbeTrackDT	1.1	SCS215a	20101112.100027	20101112.100332	dt-shadow	8	0.013328	60	10	60-180	60	131	GapExp	0	32	2	9	1	target	1	907	547	32067	13.328	13.113	13.545
DTProbeTrack03	8	ProbeTrackDT	1.1	SCS215a	20101112.100027	20101112.100339	dt-shadow	8	0.013328	60	10	60-180	60	86	GapExp	0	33	2	9	0	target	0	507	-1000	31067	13.328	12.939	13.711
DTProbeTrack03	8	ProbeTrackDT	1.1	SCS215a	20101112.100027	20101112.100344	dt-shadow	8	0.013328	60	10	60-180	60	106	GapExp	0	34	2	9	0	distractor	1	507	747	31814	13.328	13.057	13.601
DTProbeTrack03	8	ProbeTrackDT	1.1	SCS215a	20101112.100027	20101112.100350	dt-shadow	8	0.013328	60	10	60-180	60	126	GapExp	0	35	2	3	0	target	0	414	-1000	30814	13.328	13.308	13.345
DTProbeTrack03	8	ProbeTrackDT	1.1	SCS215a	20101112.100027	20101112.100355	dt-shadow	8	0.013328	60	10	60-180	60	97	GapExp	0	36	2	6	0	distractor	1	307	847	31661	13.328	12.913	13.757
DTProbeTrack03	8	ProbeTrackDT	1.1	SCS215a	20101112.100027	20101112.100400	dt-shadow	8	0.013328	60	10	60-180	60	126	GapExp	0	37	2	45	0	distractor	1	547	727	32388	13.328	13.106	13.561
DTProbeTrack03	8	ProbeTrackDT	1.1	SCS215a	20101112.100027	20101112.100406	dt-shadow	8	0.013328	60	10	60-180	60	81	GapExp	0	38	2	9	0	target	0	587	-1000	31388	13.328	13.074	13.583
DTProbeTrack03	8	ProbeTrackDT	1.1	SCS215a	20101112.100027	20101112.100412	dt-shadow	8	0.013328	60	10	60-180	60	172	GapExp	0	39	2	9	0	distractor	1	507	747	32135	13.328	12.882	13.777
DTProbeTrack03	8	ProbeTrackDT	1.1	SCS215a	20101112.100027	20101112.100418	dt-shadow	8	0.013328	60	10	60-180	60	81	GapExp	0	40	2	3	0	target	0	574	-1000	31135	13.328	13.308	13.352
