exp	sub	code	rev	comp	runtime	trialtime	stdt	nstim	refreshdur	cuedur	gapdur	gapOnsetRange	durPostProbe	gapOnsetTime	blocktype	prac	trial	ntargets	soa	probeTarget	resp	acc	rt	pts	tpts	meanFrameDur	minFrameDur	maxFrameDur
DTProbeTrack03	13	ProbeTrackDT	1.1	SCS215a	20101124.105537	20101124.105543	single-task	8	0.013328	60	0	60-180	60	172	NoGap	1	1	2	1	0	83	-3	1573	-1000	-1000	13.328	12.838	13.810
DTProbeTrack03	13	ProbeTrackDT	1.1	SCS215a	20101124.105537	20101124.105550	single-task	8	0.013328	60	0	60-180	60	160	NoGap	1	2	2	6	0	distractor	1	1560	220	-780	13.328	13.114	13.546
DTProbeTrack03	13	ProbeTrackDT	1.1	SCS215a	20101124.105537	20101124.105557	single-task	8	0.013328	60	0	60-180	60	117	NoGap	1	3	2	45	0	distractor	1	1253	374	-406	13.328	13.095	13.562
DTProbeTrack03	13	ProbeTrackDT	1.1	SCS215a	20101124.105537	20101124.105604	single-task	8	0.013328	60	0	60-180	60	178	NoGap	1	4	2	45	0	target	0	600	-1000	-1406	13.328	12.945	13.715
DTProbeTrack03	13	ProbeTrackDT	1.1	SCS215a	20101124.105537	20101124.105611	single-task	8	0.013328	60	0	60-180	60	74	NoGap	1	5	2	3	0	distractor	1	1320	340	-1066	13.328	13.097	13.557
DTProbeTrack03	13	ProbeTrackDT	1.1	SCS215a	20101124.105537	20101124.105616	single-task	8	0.013328	60	0	60-180	60	137	NoGap	1	6	2	1	0	distractor	1	720	640	-426	13.328	13.098	13.551
DTProbeTrack03	13	ProbeTrackDT	1.1	SCS215a	20101124.105537	20101124.105622	single-task	8	0.013328	60	0	60-180	60	126	NoGap	1	7	2	1	0	distractor	1	587	707	281	13.328	13.060	13.597
DTProbeTrack03	13	ProbeTrackDT	1.1	SCS215a	20101124.105537	20101124.105628	single-task	8	0.013328	60	0	60-180	60	147	NoGap	1	8	2	9	0	distractor	1	560	720	1001	13.328	13.303	13.355
DTProbeTrack03	13	ProbeTrackDT	1.1	SCS215a	20101124.105537	20101124.105634	single-task	8	0.013328	60	0	60-180	60	80	NoGap	1	9	2	1	1	target	1	600	700	1701	13.328	12.898	13.759
DTProbeTrack03	13	ProbeTrackDT	1.1	SCS215a	20101124.105537	20101124.105639	single-task	8	0.013328	60	0	60-180	60	91	NoGap	1	10	2	9	1	target	1	694	653	2354	13.328	12.856	13.799
DTProbeTrack03	13	ProbeTrackDT	1.1	SCS215a	20101124.105537	20101124.105644	single-task	8	0.013328	60	0	60-180	60	68	NoGap	1	11	2	9	0	distractor	1	733	634	2988	13.328	13.018	13.645
DTProbeTrack03	13	ProbeTrackDT	1.1	SCS215a	20101124.105537	20101124.105649	single-task	8	0.013328	60	0	60-180	60	142	NoGap	1	12	2	6	1	target	1	507	747	3735	13.328	12.928	13.728
DTProbeTrack03	13	ProbeTrackDT	1.1	SCS215a	20101124.105537	20101124.105655	single-task	8	0.013328	60	0	60-180	60	180	NoGap	1	13	2	6	0	distractor	1	534	733	4468	13.328	13.304	13.353
DTProbeTrack03	13	ProbeTrackDT	1.1	SCS215a	20101124.105537	20101124.105701	single-task	8	0.013328	60	0	60-180	60	74	NoGap	1	14	2	3	0	distractor	1	880	560	5028	13.328	13.310	13.347
DTProbeTrack03	13	ProbeTrackDT	1.1	SCS215a	20101124.105537	20101124.105706	single-task	8	0.013328	60	0	60-180	60	70	NoGap	1	15	2	3	1	target	1	587	707	5735	13.328	13.104	13.561
DTProbeTrack03	13	ProbeTrackDT	1.1	SCS215a	20101124.105537	20101124.105711	single-task	8	0.013328	60	0	60-180	60	146	NoGap	1	16	2	3	1	target	1	640	680	6415	13.328	12.978	13.667
DTProbeTrack03	13	ProbeTrackDT	1.1	SCS215a	20101124.105537	20101124.105717	single-task	8	0.013328	60	0	60-180	60	137	NoGap	1	17	2	3	0	distractor	1	853	574	6989	13.328	13.298	13.351
DTProbeTrack03	13	ProbeTrackDT	1.1	SCS215a	20101124.105537	20101124.105723	single-task	8	0.013328	60	0	60-180	60	110	NoGap	1	18	2	45	1	target	1	654	673	7662	13.328	12.931	13.734
DTProbeTrack03	13	ProbeTrackDT	1.1	SCS215a	20101124.105537	20101124.105729	single-task	8	0.013328	60	0	60-180	60	87	NoGap	1	19	2	3	0	distractor	1	707	647	8309	13.328	12.896	13.767
DTProbeTrack03	13	ProbeTrackDT	1.1	SCS215a	20101124.105537	20101124.105734	single-task	8	0.013328	60	0	60-180	60	111	NoGap	1	20	2	9	1	target	1	747	627	8936	13.328	12.846	13.822
DTProbeTrack03	13	ProbeTrackDT	1.1	SCS215a	20101124.105537	20101124.105740	single-task	8	0.013328	60	0	60-180	60	74	NoGap	1	21	2	9	0	distractor	1	773	614	9550	13.328	12.912	13.752
DTProbeTrack03	13	ProbeTrackDT	1.1	SCS215a	20101124.105537	20101124.105745	single-task	8	0.013328	60	0	60-180	60	89	NoGap	1	22	2	9	1	target	1	574	713	10263	13.328	12.981	13.689
DTProbeTrack03	13	ProbeTrackDT	1.1	SCS215a	20101124.105537	20101124.105750	single-task	8	0.013328	60	0	60-180	60	131	NoGap	1	23	2	6	0	distractor	1	893	554	10817	13.328	12.489	14.171
DTProbeTrack03	13	ProbeTrackDT	1.1	SCS215a	20101124.105537	20101124.105756	single-task	8	0.013328	60	0	60-180	60	163	NoGap	1	24	2	45	1	target	1	560	720	11537	13.328	13.099	13.551
DTProbeTrack03	13	ProbeTrackDT	1.1	SCS215a	20101124.105537	20101124.105803	single-task	8	0.013328	60	0	60-180	60	94	NoGap	1	25	2	1	1	target	1	640	680	12217	13.328	12.916	13.740
DTProbeTrack03	13	ProbeTrackDT	1.1	SCS215a	20101124.105537	20101124.105808	single-task	8	0.013328	60	0	60-180	60	72	NoGap	1	26	2	45	0	distractor	1	813	594	12811	13.328	12.963	13.698
DTProbeTrack03	13	ProbeTrackDT	1.1	SCS215a	20101124.105537	20101124.105813	single-task	8	0.013328	60	0	60-180	60	112	NoGap	1	27	2	9	0	distractor	1	827	587	13398	13.380	13.122	26.665
DTProbeTrack03	13	ProbeTrackDT	1.1	SCS215a	20101124.105537	20101124.105819	single-task	8	0.013328	60	0	60-180	60	114	NoGap	1	28	2	45	1	target	1	347	827	14225	13.328	12.952	13.700
DTProbeTrack03	13	ProbeTrackDT	1.1	SCS215a	20101124.105537	20101124.105825	single-task	8	0.013328	60	0	60-180	60	121	NoGap	1	29	2	6	1	distractor	0	600	-1000	13225	13.381	12.955	26.821
DTProbeTrack03	13	ProbeTrackDT	1.1	SCS215a	20101124.105537	20101124.105831	single-task	8	0.013328	60	0	60-180	60	172	NoGap	1	30	2	1	1	target	1	614	693	13918	13.328	12.891	13.768
DTProbeTrack03	13	ProbeTrackDT	1.1	SCS215a	20101124.105537	20101124.105837	single-task	8	0.013328	60	0	60-180	60	105	NoGap	1	31	2	6	0	distractor	1	707	647	14565	13.328	12.853	13.805
DTProbeTrack03	13	ProbeTrackDT	1.1	SCS215a	20101124.105537	20101124.105842	single-task	8	0.013328	60	0	60-180	60	108	NoGap	1	32	2	45	1	target	1	760	620	15185	13.328	13.110	13.541
DTProbeTrack03	13	ProbeTrackDT	1.1	SCS215a	20101124.105537	20101124.105848	single-task	8	0.013328	60	0	60-180	60	72	NoGap	1	33	2	9	1	target	1	627	687	15872	13.328	12.984	13.676
DTProbeTrack03	13	ProbeTrackDT	1.1	SCS215a	20101124.105537	20101124.105853	single-task	8	0.013328	60	0	60-180	60	158	NoGap	1	34	2	1	1	target	1	640	680	16552	13.328	12.849	13.811
DTProbeTrack03	13	ProbeTrackDT	1.1	SCS215a	20101124.105537	20101124.105859	single-task	8	0.013328	60	0	60-180	60	125	NoGap	1	35	2	6	1	target	1	480	760	17312	13.328	12.957	13.709
DTProbeTrack03	13	ProbeTrackDT	1.1	SCS215a	20101124.105537	20101124.105905	single-task	8	0.013328	60	0	60-180	60	177	NoGap	1	36	2	45	0	distractor	1	400	800	18112	13.328	13.115	13.547
DTProbeTrack03	13	ProbeTrackDT	1.1	SCS215a	20101124.105537	20101124.105912	single-task	8	0.013328	60	0	60-180	60	125	NoGap	1	37	2	3	1	target	1	707	647	18759	13.328	12.913	13.731
DTProbeTrack03	13	ProbeTrackDT	1.1	SCS215a	20101124.105537	20101124.105917	single-task	8	0.013328	60	0	60-180	60	112	NoGap	1	38	2	1	0	distractor	1	720	640	19399	13.328	13.108	13.545
DTProbeTrack03	13	ProbeTrackDT	1.1	SCS215a	20101124.105537	20101124.105923	single-task	8	0.013328	60	0	60-180	60	141	NoGap	1	39	2	3	1	target	1	589	706	20105	13.328	12.905	13.741
DTProbeTrack03	13	ProbeTrackDT	1.1	SCS215a	20101124.105537	20101124.105929	single-task	8	0.013328	60	0	60-180	60	108	NoGap	1	40	2	6	1	target	1	587	707	20812	13.328	13.000	13.656
DTProbeTrack03	13	ProbeTrackDT	1.1	SCS215a	20101124.110012	20101124.110016	single-task	8	0.013328	60	10	60-180	60	140	GapPrac	1	1	2	9	0	target	0	774	-1000	19812	13.328	13.088	13.570
DTProbeTrack03	13	ProbeTrackDT	1.1	SCS215a	20101124.110012	20101124.110022	single-task	8	0.013328	60	10	60-180	60	144	GapPrac	1	2	2	6	1	distractor	0	907	-1000	18812	13.328	13.097	13.560
DTProbeTrack03	13	ProbeTrackDT	1.1	SCS215a	20101124.110012	20101124.110029	single-task	8	0.013328	60	10	60-180	60	61	GapPrac	1	3	2	1	0	target	0	1120	-1000	17812	13.328	13.095	13.547
DTProbeTrack03	13	ProbeTrackDT	1.1	SCS215a	20101124.110012	20101124.110034	single-task	8	0.013328	60	10	60-180	60	100	GapPrac	1	4	2	9	1	distractor	0	707	-1000	16812	13.328	13.298	13.352
DTProbeTrack03	13	ProbeTrackDT	1.1	SCS215a	20101124.110012	20101124.110040	single-task	8	0.013328	60	10	60-180	60	92	GapPrac	1	5	2	1	1	target	1	853	574	17386	13.328	13.182	13.471
DTProbeTrack03	13	ProbeTrackDT	1.1	SCS215a	20101124.110012	20101124.110045	single-task	8	0.013328	60	10	60-180	60	108	GapPrac	1	6	2	6	0	distractor	1	907	547	17933	13.328	12.883	13.783
DTProbeTrack03	13	ProbeTrackDT	1.1	SCS215a	20101124.110012	20101124.110051	single-task	8	0.013328	60	10	60-180	60	177	GapPrac	1	7	2	45	0	target	0	760	-1000	16933	13.328	12.850	13.791
DTProbeTrack03	13	ProbeTrackDT	1.1	SCS215a	20101124.110012	20101124.110058	single-task	8	0.013328	60	10	60-180	60	73	GapPrac	1	8	2	6	0	distractor	1	840	580	17513	13.328	12.861	13.784
DTProbeTrack03	13	ProbeTrackDT	1.1	SCS215a	20101124.110012	20101124.110104	single-task	8	0.013328	60	10	60-180	60	161	GapPrac	1	9	2	9	0	distractor	1	1160	420	17933	13.328	12.960	13.702
DTProbeTrack03	13	ProbeTrackDT	1.1	SCS215a	20101124.110012	20101124.110110	single-task	8	0.013328	60	10	60-180	60	175	GapPrac	1	10	2	1	1	target	1	1520	240	18173	13.328	13.097	13.562
DTProbeTrack03	13	ProbeTrackDT	1.1	SCS215a	20101124.110012	20101124.110118	single-task	8	0.013328	60	10	60-180	60	137	GapPrac	1	11	2	9	1	distractor	0	853	-1000	17173	13.328	13.088	13.557
DTProbeTrack03	13	ProbeTrackDT	1.1	SCS215a	20101124.110012	20101124.110124	single-task	8	0.013328	60	10	60-180	60	98	GapPrac	1	12	2	3	0	target	0	947	-1000	16173	13.328	13.200	13.450
DTProbeTrack03	13	ProbeTrackDT	1.1	SCS215a	20101124.110012	20101124.110130	single-task	8	0.013328	60	10	60-180	60	101	GapPrac	1	13	2	45	1	distractor	0	573	-1000	15173	13.328	12.889	13.770
DTProbeTrack03	13	ProbeTrackDT	1.1	SCS215a	20101124.110012	20101124.110136	single-task	8	0.013328	60	10	60-180	60	155	GapPrac	1	14	2	3	0	target	0	1293	-1000	14173	13.328	13.135	13.525
DTProbeTrack03	13	ProbeTrackDT	1.1	SCS215a	20101124.110012	20101124.110142	single-task	8	0.013328	60	10	60-180	60	164	GapPrac	1	15	2	3	1	distractor	0	667	-1000	13173	13.328	13.085	13.573
DTProbeTrack03	13	ProbeTrackDT	1.1	SCS215a	20101124.110012	20101124.110149	single-task	8	0.013328	60	10	60-180	60	88	GapPrac	1	16	2	1	0	distractor	1	1200	400	13573	13.328	13.305	13.346
DTProbeTrack03	13	ProbeTrackDT	1.1	SCS215a	20101124.110012	20101124.110154	single-task	8	0.013328	60	10	60-180	60	77	GapPrac	1	17	2	6	1	target	1	1253	374	13947	13.328	12.915	13.738
DTProbeTrack03	13	ProbeTrackDT	1.1	SCS215a	20101124.110012	20101124.110200	single-task	8	0.013328	60	10	60-180	60	133	GapPrac	1	18	2	3	1	target	1	773	614	14561	13.328	13.023	13.638
DTProbeTrack03	13	ProbeTrackDT	1.1	SCS215a	20101124.110012	20101124.110206	single-task	8	0.013328	60	10	60-180	60	121	GapPrac	1	19	2	45	1	target	1	560	720	15281	13.328	12.874	13.778
DTProbeTrack03	13	ProbeTrackDT	1.1	SCS215a	20101124.110012	20101124.110212	single-task	8	0.013328	60	10	60-180	60	66	GapPrac	1	20	2	45	0	target	0	600	-1000	14281	13.328	13.053	13.602
DTProbeTrack03	13	ProbeTrackDT	1.1	SCS215a	20101124.110301	20101124.110305	single-task	8	0.013328	60	10	60-180	60	122	GapExp	1	1	2	3	0	target	0	800	-1000	13281	13.328	13.013	13.655
DTProbeTrack03	13	ProbeTrackDT	1.1	SCS215a	20101124.110301	20101124.110311	single-task	8	0.013328	60	10	60-180	60	77	GapExp	1	2	2	1	1	target	1	1067	467	13748	13.328	12.846	13.804
DTProbeTrack03	13	ProbeTrackDT	1.1	SCS215a	20101124.110301	20101124.110316	single-task	8	0.013328	60	10	60-180	60	174	GapExp	1	3	2	9	1	target	1	733	634	14382	13.328	12.844	13.802
DTProbeTrack03	13	ProbeTrackDT	1.1	SCS215a	20101124.110301	20101124.110323	single-task	8	0.013328	60	10	60-180	60	96	GapExp	1	4	2	6	0	distractor	1	1120	440	14822	13.328	12.842	13.823
DTProbeTrack03	13	ProbeTrackDT	1.1	SCS215a	20101124.110301	20101124.110329	single-task	8	0.013328	60	10	60-180	60	145	GapExp	1	5	2	9	0	distractor	1	933	534	15356	13.328	12.920	13.744
DTProbeTrack03	13	ProbeTrackDT	1.1	SCS215a	20101124.110301	20101124.110335	single-task	8	0.013328	60	10	60-180	60	139	GapExp	0	6	2	1	0	target	0	813	-1000	14356	13.328	12.939	13.708
DTProbeTrack03	13	ProbeTrackDT	1.1	SCS215a	20101124.110301	20101124.110342	single-task	8	0.013328	60	10	60-180	60	71	GapExp	0	7	2	45	0	target	0	853	-1000	13356	13.328	13.307	13.347
DTProbeTrack03	13	ProbeTrackDT	1.1	SCS215a	20101124.110301	20101124.110347	single-task	8	0.013328	60	10	60-180	60	101	GapExp	0	8	2	9	1	distractor	0	840	-1000	12356	13.328	12.887	13.774
DTProbeTrack03	13	ProbeTrackDT	1.1	SCS215a	20101124.110301	20101124.110353	single-task	8	0.013328	60	10	60-180	60	135	GapExp	0	9	2	9	0	distractor	1	973	514	12870	13.328	13.101	13.549
DTProbeTrack03	13	ProbeTrackDT	1.1	SCS215a	20101124.110301	20101124.110359	single-task	8	0.013328	60	10	60-180	60	147	GapExp	0	10	2	6	0	distractor	1	1760	120	12990	13.328	12.940	13.712
DTProbeTrack03	13	ProbeTrackDT	1.1	SCS215a	20101124.110301	20101124.110407	single-task	8	0.013328	60	10	60-180	60	167	GapExp	0	11	2	3	0	distractor	1	1920	40	13030	13.328	12.979	13.670
DTProbeTrack03	13	ProbeTrackDT	1.1	SCS215a	20101124.110301	20101124.110414	single-task	8	0.013328	60	10	60-180	60	109	GapExp	0	12	2	9	1	target	1	1133	434	13464	13.328	13.110	13.544
DTProbeTrack03	13	ProbeTrackDT	1.1	SCS215a	20101124.110301	20101124.110420	single-task	8	0.013328	60	10	60-180	60	171	GapExp	0	13	2	6	1	distractor	0	1240	-1000	12464	13.328	13.101	13.558
DTProbeTrack03	13	ProbeTrackDT	1.1	SCS215a	20101124.110301	20101124.110427	single-task	8	0.013328	60	10	60-180	60	168	GapExp	0	14	2	6	1	target	1	827	587	13051	13.328	12.854	13.796
DTProbeTrack03	13	ProbeTrackDT	1.1	SCS215a	20101124.110301	20101124.110434	single-task	8	0.013328	60	10	60-180	60	87	GapExp	0	15	2	45	1	target	1	773	614	13665	13.328	13.012	13.634
DTProbeTrack03	13	ProbeTrackDT	1.1	SCS215a	20101124.110301	20101124.110440	single-task	8	0.013328	60	10	60-180	60	177	GapExp	0	16	2	3	1	target	1	1067	467	14132	13.328	13.013	13.650
DTProbeTrack03	13	ProbeTrackDT	1.1	SCS215a	20101124.110301	20101124.110447	single-task	8	0.013328	60	10	60-180	60	104	GapExp	0	17	2	45	0	distractor	1	853	574	14706	13.328	13.305	13.365
DTProbeTrack03	13	ProbeTrackDT	1.1	SCS215a	20101124.110301	20101124.110453	single-task	8	0.013328	60	10	60-180	60	98	GapExp	0	18	2	6	0	distractor	1	854	573	15279	13.328	12.872	13.778
DTProbeTrack03	13	ProbeTrackDT	1.1	SCS215a	20101124.110301	20101124.110459	single-task	8	0.013328	60	10	60-180	60	92	GapExp	0	19	2	3	0	distractor	1	893	554	15833	13.328	13.311	13.346
DTProbeTrack03	13	ProbeTrackDT	1.1	SCS215a	20101124.110301	20101124.110504	single-task	8	0.013328	60	10	60-180	60	146	GapExp	0	20	2	45	1	target	1	1013	494	16327	13.328	13.073	13.565
DTProbeTrack03	13	ProbeTrackDT	1.1	SCS215a	20101124.110301	20101124.110511	single-task	8	0.013328	60	10	60-180	60	169	GapExp	0	21	2	3	1	target	1	907	547	16874	13.328	12.991	13.668
DTProbeTrack03	13	ProbeTrackDT	1.1	SCS215a	20101124.110301	20101124.110518	single-task	8	0.013328	60	10	60-180	60	161	GapExp	0	22	2	3	0	distractor	1	667	667	17541	13.328	13.297	13.349
DTProbeTrack03	13	ProbeTrackDT	1.1	SCS215a	20101124.110301	20101124.110524	single-task	8	0.013328	60	10	60-180	60	115	GapExp	0	23	2	3	1	target	1	893	554	18095	13.328	12.979	13.663
DTProbeTrack03	13	ProbeTrackDT	1.1	SCS215a	20101124.110301	20101124.110530	single-task	8	0.013328	60	10	60-180	60	165	GapExp	0	24	2	9	1	target	1	640	680	18775	13.328	12.941	13.732
DTProbeTrack03	13	ProbeTrackDT	1.1	SCS215a	20101124.110301	20101124.110537	single-task	8	0.013328	60	10	60-180	60	175	GapExp	0	25	2	9	1	target	1	867	567	19342	13.328	13.092	13.542
DTProbeTrack03	13	ProbeTrackDT	1.1	SCS215a	20101124.110301	20101124.110543	single-task	8	0.013328	60	10	60-180	60	170	GapExp	0	26	2	6	1	target	1	733	634	19976	13.328	12.833	13.826
DTProbeTrack03	13	ProbeTrackDT	1.1	SCS215a	20101124.110301	20101124.110550	single-task	8	0.013328	60	10	60-180	60	161	GapExp	0	27	2	3	1	target	1	613	694	20670	13.328	13.041	13.624
DTProbeTrack03	13	ProbeTrackDT	1.1	SCS215a	20101124.110301	20101124.110556	single-task	8	0.013328	60	10	60-180	60	111	GapExp	0	28	2	45	0	distractor	1	627	687	21357	13.328	13.109	13.557
DTProbeTrack03	13	ProbeTrackDT	1.1	SCS215a	20101124.110301	20101124.110602	single-task	8	0.013328	60	10	60-180	60	124	GapExp	0	29	2	9	0	distractor	1	773	614	21971	13.328	13.309	13.344
DTProbeTrack03	13	ProbeTrackDT	1.1	SCS215a	20101124.110301	20101124.110608	single-task	8	0.013328	60	10	60-180	60	76	GapExp	0	30	2	3	1	target	1	800	600	22571	13.328	13.308	13.353
DTProbeTrack03	13	ProbeTrackDT	1.1	SCS215a	20101124.110301	20101124.110614	single-task	8	0.013328	60	10	60-180	60	127	GapExp	0	31	2	45	1	target	1	774	613	23184	13.328	13.307	13.346
DTProbeTrack03	13	ProbeTrackDT	1.1	SCS215a	20101124.110301	20101124.110620	single-task	8	0.013328	60	10	60-180	60	81	GapExp	0	32	2	45	0	distractor	1	560	720	23904	13.328	12.835	13.813
DTProbeTrack03	13	ProbeTrackDT	1.1	SCS215a	20101124.110301	20101124.110626	single-task	8	0.013328	60	10	60-180	60	169	GapExp	0	33	2	45	0	distractor	1	574	713	24617	13.328	13.307	13.349
DTProbeTrack03	13	ProbeTrackDT	1.1	SCS215a	20101124.110301	20101124.110633	single-task	8	0.013328	60	10	60-180	60	105	GapExp	0	34	2	1	1	target	1	733	634	25251	13.436	12.879	39.990
DTProbeTrack03	13	ProbeTrackDT	1.1	SCS215a	20101124.110301	20101124.110638	single-task	8	0.013328	60	10	60-180	60	106	GapExp	0	35	2	45	1	target	1	520	740	25991	13.328	13.087	13.570
DTProbeTrack03	13	ProbeTrackDT	1.1	SCS215a	20101124.110301	20101124.110644	single-task	8	0.013328	60	10	60-180	60	136	GapExp	0	36	2	9	1	target	1	547	727	26718	13.328	12.936	13.707
DTProbeTrack03	13	ProbeTrackDT	1.1	SCS215a	20101124.110301	20101124.110650	single-task	8	0.013328	60	10	60-180	60	128	GapExp	0	37	2	3	0	distractor	1	720	640	27358	13.328	12.892	13.757
DTProbeTrack03	13	ProbeTrackDT	1.1	SCS215a	20101124.110301	20101124.110656	single-task	8	0.013328	60	10	60-180	60	134	GapExp	0	38	2	3	0	distractor	1	640	680	28038	13.328	13.085	13.569
DTProbeTrack03	13	ProbeTrackDT	1.1	SCS215a	20101124.110301	20101124.110702	single-task	8	0.013328	60	10	60-180	60	167	GapExp	0	39	2	1	0	distractor	1	667	667	28705	13.328	13.084	13.569
DTProbeTrack03	13	ProbeTrackDT	1.1	SCS215a	20101124.110301	20101124.110708	single-task	8	0.013328	60	10	60-180	60	111	GapExp	0	40	2	3	0	distractor	1	680	660	29365	13.328	13.105	13.558
DTProbeTrack03	13	ProbeTrackDT	1.1	SCS215a	20101124.110301	20101124.110714	single-task	8	0.013328	60	10	60-180	60	177	GapExp	0	41	2	6	1	target	1	627	687	30052	13.328	12.867	13.793
DTProbeTrack03	13	ProbeTrackDT	1.1	SCS215a	20101124.110301	20101124.110721	single-task	8	0.013328	60	10	60-180	60	171	GapExp	0	42	2	1	0	distractor	1	680	660	30712	13.328	13.097	13.553
DTProbeTrack03	13	ProbeTrackDT	1.1	SCS215a	20101124.110301	20101124.110727	single-task	8	0.013328	60	10	60-180	60	93	GapExp	0	43	2	1	1	target	1	520	740	31452	13.328	12.929	13.723
DTProbeTrack03	13	ProbeTrackDT	1.1	SCS215a	20101124.110301	20101124.110732	single-task	8	0.013328	60	10	60-180	60	124	GapExp	0	44	2	1	0	distractor	1	640	680	32132	13.328	13.304	13.345
DTProbeTrack03	13	ProbeTrackDT	1.1	SCS215a	20101124.110301	20101124.110738	single-task	8	0.013328	60	10	60-180	60	69	GapExp	0	45	2	3	0	distractor	1	760	620	32752	13.328	13.309	13.346
DTProbeTrack03	13	ProbeTrackDT	1.1	SCS215a	20101124.110301	20101124.110743	single-task	8	0.013328	60	10	60-180	60	72	GapExp	0	46	2	6	1	target	1	560	720	33472	13.328	13.051	13.611
DTProbeTrack03	13	ProbeTrackDT	1.1	SCS215a	20101124.110301	20101124.110748	single-task	8	0.013328	60	10	60-180	60	154	GapExp	0	47	2	1	1	target	1	613	694	34166	13.328	12.958	13.703
DTProbeTrack03	13	ProbeTrackDT	1.1	SCS215a	20101124.110301	20101124.110754	single-task	8	0.013328	60	10	60-180	60	134	GapExp	0	48	2	6	1	target	1	593	704	34870	13.328	12.876	13.780
DTProbeTrack03	13	ProbeTrackDT	1.1	SCS215a	20101124.110301	20101124.110800	single-task	8	0.013328	60	10	60-180	60	135	GapExp	0	49	2	9	1	target	1	587	707	35577	13.328	13.035	13.615
DTProbeTrack03	13	ProbeTrackDT	1.1	SCS215a	20101124.110301	20101124.110806	single-task	8	0.013328	60	10	60-180	60	90	GapExp	0	50	2	1	1	target	1	680	660	36237	13.328	13.050	13.595
DTProbeTrack03	13	ProbeTrackDT	1.1	SCS215a	20101124.110301	20101124.110818	single-task	8	0.013328	60	10	60-180	60	119	GapExp	0	51	2	45	0	distractor	1	960	520	36757	13.328	12.950	13.700
DTProbeTrack03	13	ProbeTrackDT	1.1	SCS215a	20101124.110301	20101124.110825	single-task	8	0.013328	60	10	60-180	60	102	GapExp	0	52	2	9	1	target	1	534	733	37490	13.328	13.026	13.620
DTProbeTrack03	13	ProbeTrackDT	1.1	SCS215a	20101124.110301	20101124.110830	single-task	8	0.013328	60	10	60-180	60	68	GapExp	0	53	2	6	1	target	1	600	700	38190	13.328	13.308	13.351
DTProbeTrack03	13	ProbeTrackDT	1.1	SCS215a	20101124.110301	20101124.110835	single-task	8	0.013328	60	10	60-180	60	112	GapExp	0	54	2	6	1	target	1	600	700	38890	13.328	12.961	13.698
DTProbeTrack03	13	ProbeTrackDT	1.1	SCS215a	20101124.110301	20101124.110841	single-task	8	0.013328	60	10	60-180	60	138	GapExp	0	55	2	6	0	distractor	1	667	667	39557	13.328	13.146	13.503
DTProbeTrack03	13	ProbeTrackDT	1.1	SCS215a	20101124.110301	20101124.110847	single-task	8	0.013328	60	10	60-180	60	147	GapExp	0	56	2	3	0	distractor	1	827	587	40144	13.328	13.106	13.564
DTProbeTrack03	13	ProbeTrackDT	1.1	SCS215a	20101124.110301	20101124.110853	single-task	8	0.013328	60	10	60-180	60	148	GapExp	0	57	2	9	1	target	1	574	713	40857	13.328	12.849	13.816
DTProbeTrack03	13	ProbeTrackDT	1.1	SCS215a	20101124.110301	20101124.110859	single-task	8	0.013328	60	10	60-180	60	154	GapExp	0	58	2	6	0	distractor	1	627	687	41544	13.328	12.900	13.753
DTProbeTrack03	13	ProbeTrackDT	1.1	SCS215a	20101124.110301	20101124.110905	single-task	8	0.013328	60	10	60-180	60	172	GapExp	0	59	2	3	0	distractor	1	867	567	42111	13.328	13.116	13.549
DTProbeTrack03	13	ProbeTrackDT	1.1	SCS215a	20101124.110301	20101124.110912	single-task	8	0.013328	60	10	60-180	60	157	GapExp	0	60	2	45	1	distractor	0	947	-1000	41111	13.328	13.062	13.598
DTProbeTrack03	13	ProbeTrackDT	1.1	SCS215a	20101124.110301	20101124.110919	single-task	8	0.013328	60	10	60-180	60	90	GapExp	0	61	2	6	0	distractor	1	680	660	41771	13.328	13.309	13.348
DTProbeTrack03	13	ProbeTrackDT	1.1	SCS215a	20101124.110301	20101124.110924	single-task	8	0.013328	60	10	60-180	60	115	GapExp	0	62	2	9	0	distractor	1	813	594	42365	13.328	13.272	13.357
DTProbeTrack03	13	ProbeTrackDT	1.1	SCS215a	20101124.110301	20101124.110930	single-task	8	0.013328	60	10	60-180	60	169	GapExp	0	63	2	6	0	distractor	1	653	674	43039	13.328	13.000	13.651
DTProbeTrack03	13	ProbeTrackDT	1.1	SCS215a	20101124.110301	20101124.110937	single-task	8	0.013328	60	10	60-180	60	79	GapExp	0	64	2	45	1	target	1	693	654	43693	13.328	12.908	13.716
DTProbeTrack03	13	ProbeTrackDT	1.1	SCS215a	20101124.110301	20101124.110943	single-task	8	0.013328	60	10	60-180	60	63	GapExp	0	65	2	1	0	distractor	1	707	647	44340	13.328	13.109	13.546
DTProbeTrack03	13	ProbeTrackDT	1.1	SCS215a	20101124.110301	20101124.110948	single-task	8	0.013328	60	10	60-180	60	82	GapExp	0	66	2	3	1	target	1	640	680	45020	13.328	13.082	13.566
DTProbeTrack03	13	ProbeTrackDT	1.1	SCS215a	20101124.110301	20101124.110953	single-task	8	0.013328	60	10	60-180	60	97	GapExp	0	67	2	1	1	distractor	0	600	-1000	44020	13.328	13.309	13.347
DTProbeTrack03	13	ProbeTrackDT	1.1	SCS215a	20101124.110301	20101124.110958	single-task	8	0.013328	60	10	60-180	60	96	GapExp	0	68	2	45	1	target	1	600	700	44720	13.328	12.871	13.780
DTProbeTrack03	13	ProbeTrackDT	1.1	SCS215a	20101124.110301	20101124.111004	single-task	8	0.013328	60	10	60-180	60	107	GapExp	0	69	2	45	1	target	1	520	740	45460	13.328	12.866	13.781
DTProbeTrack03	13	ProbeTrackDT	1.1	SCS215a	20101124.110301	20101124.111010	single-task	8	0.013328	60	10	60-180	60	139	GapExp	0	70	2	3	0	target	0	1147	-1000	44460	13.328	12.851	13.807
DTProbeTrack03	13	ProbeTrackDT	1.1	SCS215a	20101124.110301	20101124.111017	single-task	8	0.013328	60	10	60-180	60	112	GapExp	0	71	2	1	0	distractor	1	840	580	45040	13.431	13.249	26.749
DTProbeTrack03	13	ProbeTrackDT	1.1	SCS215a	20101124.110301	20101124.111022	single-task	8	0.013328	60	10	60-180	60	65	GapExp	0	72	2	45	1	target	1	653	674	45714	13.382	12.853	27.048
DTProbeTrack03	13	ProbeTrackDT	1.1	SCS215a	20101124.110301	20101124.111028	single-task	8	0.013328	60	10	60-180	60	117	GapExp	0	73	2	9	0	distractor	1	840	580	46294	13.328	12.950	13.690
DTProbeTrack03	13	ProbeTrackDT	1.1	SCS215a	20101124.110301	20101124.111034	single-task	8	0.013328	60	10	60-180	60	128	GapExp	0	74	2	1	1	target	1	733	634	46928	13.328	12.937	13.704
DTProbeTrack03	13	ProbeTrackDT	1.1	SCS215a	20101124.110301	20101124.111040	single-task	8	0.013328	60	10	60-180	60	141	GapExp	0	75	2	1	0	distractor	1	693	654	47582	13.328	12.963	13.695
DTProbeTrack03	13	ProbeTrackDT	1.1	SCS215a	20101124.110301	20101124.111046	single-task	8	0.013328	60	10	60-180	60	173	GapExp	0	76	2	6	0	distractor	1	1053	474	48056	13.328	12.887	13.760
DTProbeTrack03	13	ProbeTrackDT	1.1	SCS215a	20101124.110301	20101124.111053	single-task	8	0.013328	60	10	60-180	60	170	GapExp	0	77	2	1	0	distractor	1	773	614	48670	13.328	12.943	13.707
DTProbeTrack03	13	ProbeTrackDT	1.1	SCS215a	20101124.110301	20101124.111059	single-task	8	0.013328	60	10	60-180	60	95	GapExp	0	78	2	45	1	target	1	653	674	49344	13.328	13.095	13.563
DTProbeTrack03	13	ProbeTrackDT	1.1	SCS215a	20101124.110301	20101124.111105	single-task	8	0.013328	60	10	60-180	60	97	GapExp	0	79	2	9	0	distractor	1	773	614	49958	13.328	13.107	13.544
DTProbeTrack03	13	ProbeTrackDT	1.1	SCS215a	20101124.110301	20101124.111111	single-task	8	0.013328	60	10	60-180	60	148	GapExp	0	80	2	6	0	distractor	1	707	647	50605	13.328	13.106	13.540
DTProbeTrack03	13	ProbeTrackDT	1.1	SCS215a	20101124.110301	20101124.111117	single-task	8	0.013328	60	10	60-180	60	61	GapExp	0	81	2	9	0	distractor	1	2479	0	50605	13.328	12.871	13.783
DTProbeTrack03	13	ProbeTrackDT	1.1	SCS215a	20101124.110301	20101124.111124	single-task	8	0.013328	60	10	60-180	60	162	GapExp	0	82	2	1	1	target	1	800	600	51205	13.328	12.884	13.765
DTProbeTrack03	13	ProbeTrackDT	1.1	SCS215a	20101124.110301	20101124.111130	single-task	8	0.013328	60	10	60-180	60	163	GapExp	0	83	2	45	0	distractor	1	760	620	51825	13.328	13.309	13.347
DTProbeTrack03	13	ProbeTrackDT	1.1	SCS215a	20101124.110301	20101124.111137	single-task	8	0.013328	60	10	60-180	60	94	GapExp	0	84	2	3	0	target	0	840	-1000	50825	13.328	12.922	13.722
DTProbeTrack03	13	ProbeTrackDT	1.1	SCS215a	20101124.110301	20101124.111143	single-task	8	0.013328	60	10	60-180	60	81	GapExp	0	85	2	9	0	distractor	1	834	583	51408	13.328	13.290	13.356
DTProbeTrack03	13	ProbeTrackDT	1.1	SCS215a	20101124.110301	20101124.111148	single-task	8	0.013328	60	10	60-180	60	130	GapExp	0	86	2	3	1	target	1	640	680	52088	13.328	13.042	13.607
DTProbeTrack03	13	ProbeTrackDT	1.1	SCS215a	20101124.110301	20101124.111154	single-task	8	0.013328	60	10	60-180	60	115	GapExp	0	87	2	1	1	target	1	680	660	52748	13.328	12.848	13.800
DTProbeTrack03	13	ProbeTrackDT	1.1	SCS215a	20101124.110301	20101124.111200	single-task	8	0.013328	60	10	60-180	60	159	GapExp	0	88	2	1	0	distractor	1	667	667	53415	13.328	12.902	13.760
DTProbeTrack03	13	ProbeTrackDT	1.1	SCS215a	20101124.110301	20101124.111206	single-task	8	0.013328	60	10	60-180	60	61	GapExp	0	89	2	45	1	target	1	1000	500	53915	13.328	12.935	13.720
DTProbeTrack03	13	ProbeTrackDT	1.1	SCS215a	20101124.110301	20101124.111212	single-task	8	0.013328	60	10	60-180	60	61	GapExp	0	90	2	6	0	distractor	1	693	654	54569	13.328	12.953	13.716
DTProbeTrack03	13	ProbeTrackDT	1.1	SCS215a	20101124.110301	20101124.111217	single-task	8	0.013328	60	10	60-180	60	142	GapExp	0	91	2	9	0	target	0	587	-1000	53569	13.328	12.884	13.771
DTProbeTrack03	13	ProbeTrackDT	1.1	SCS215a	20101124.110301	20101124.111223	single-task	8	0.013328	60	10	60-180	60	87	GapExp	0	92	2	1	0	distractor	1	840	580	54149	13.328	13.113	13.541
DTProbeTrack03	13	ProbeTrackDT	1.1	SCS215a	20101124.110301	20101124.111228	single-task	8	0.013328	60	10	60-180	60	123	GapExp	0	93	2	6	0	distractor	1	614	693	54842	13.328	12.938	13.724
DTProbeTrack03	13	ProbeTrackDT	1.1	SCS215a	20101124.110301	20101124.111234	single-task	8	0.013328	60	10	60-180	60	178	GapExp	0	94	2	1	1	target	1	760	620	55462	13.328	12.952	13.703
DTProbeTrack03	13	ProbeTrackDT	1.1	SCS215a	20101124.110301	20101124.111240	single-task	8	0.013328	60	10	60-180	60	98	GapExp	0	95	2	9	1	target	1	853	574	56036	13.328	12.842	13.819
DTProbeTrack03	13	ProbeTrackDT	1.1	SCS215a	20101124.110301	20101124.111246	single-task	8	0.013328	60	10	60-180	60	67	GapExp	0	96	2	1	0	distractor	1	680	660	56696	13.328	13.307	13.347
DTProbeTrack03	13	ProbeTrackDT	1.1	SCS215a	20101124.110301	20101124.111251	single-task	8	0.013328	60	10	60-180	60	66	GapExp	0	97	2	3	1	target	1	1200	400	57096	13.328	13.023	13.634
DTProbeTrack03	13	ProbeTrackDT	1.1	SCS215a	20101124.110301	20101124.111257	single-task	8	0.013328	60	10	60-180	60	139	GapExp	0	98	2	45	0	distractor	1	587	707	57803	13.328	13.097	13.550
DTProbeTrack03	13	ProbeTrackDT	1.1	SCS215a	20101124.110301	20101124.111303	single-task	8	0.013328	60	10	60-180	60	75	GapExp	0	99	2	9	0	distractor	1	733	634	58437	13.328	12.985	13.664
DTProbeTrack03	13	ProbeTrackDT	1.1	SCS215a	20101124.110301	20101124.111308	single-task	8	0.013328	60	10	60-180	60	123	GapExp	0	100	2	6	0	distractor	1	747	627	59064	13.328	12.997	13.674
DTProbeTrack03	13	ProbeTrackDT	1.1	SCS215a	20101124.110301	20101124.111322	single-task	8	0.013328	60	10	60-180	60	130	GapExp	0	101	2	9	1	target	1	640	680	59744	13.328	13.307	13.346
DTProbeTrack03	13	ProbeTrackDT	1.1	SCS215a	20101124.110301	20101124.111328	single-task	8	0.013328	60	10	60-180	60	126	GapExp	0	102	2	1	1	target	1	600	700	60444	13.328	13.084	13.565
DTProbeTrack03	13	ProbeTrackDT	1.1	SCS215a	20101124.110301	20101124.111334	single-task	8	0.013328	60	10	60-180	60	143	GapExp	0	103	2	1	1	target	1	653	674	61118	13.328	13.108	13.549
DTProbeTrack03	13	ProbeTrackDT	1.1	SCS215a	20101124.110301	20101124.111340	single-task	8	0.013328	60	10	60-180	60	66	GapExp	0	104	2	6	0	distractor	1	667	667	61785	13.328	13.309	13.349
DTProbeTrack03	13	ProbeTrackDT	1.1	SCS215a	20101124.110301	20101124.111345	single-task	8	0.013328	60	10	60-180	60	165	GapExp	0	105	2	1	1	target	1	813	594	62379	13.328	13.108	13.550
DTProbeTrack03	13	ProbeTrackDT	1.1	SCS215a	20101124.110301	20101124.111351	single-task	8	0.013328	60	10	60-180	60	114	GapExp	0	106	2	9	1	target	1	760	620	62999	13.328	13.109	13.544
DTProbeTrack03	13	ProbeTrackDT	1.1	SCS215a	20101124.110301	20101124.111357	single-task	8	0.013328	60	10	60-180	60	170	GapExp	0	107	2	6	1	target	1	587	707	63706	13.328	13.099	13.552
DTProbeTrack03	13	ProbeTrackDT	1.1	SCS215a	20101124.110301	20101124.111404	single-task	8	0.013328	60	10	60-180	60	169	GapExp	0	108	2	3	0	distractor	1	573	714	64420	13.328	13.275	13.379
DTProbeTrack03	13	ProbeTrackDT	1.1	SCS215a	20101124.110301	20101124.111410	single-task	8	0.013328	60	10	60-180	60	105	GapExp	0	109	2	45	0	distractor	1	787	607	65027	13.328	12.889	13.784
DTProbeTrack03	13	ProbeTrackDT	1.1	SCS215a	20101124.110301	20101124.111416	single-task	8	0.013328	60	10	60-180	60	138	GapExp	0	110	2	9	0	distractor	1	494	753	65780	13.328	13.023	13.636
DTProbeTrack03	13	ProbeTrackDT	1.1	SCS215a	20101124.110301	20101124.111422	single-task	8	0.013328	60	10	60-180	60	154	GapExp	0	111	2	6	0	distractor	1	547	727	66507	13.328	12.882	13.781
DTProbeTrack03	13	ProbeTrackDT	1.1	SCS215a	20101124.110301	20101124.111428	single-task	8	0.013328	60	10	60-180	60	80	GapExp	0	112	2	6	0	distractor	1	760	620	67127	13.328	13.096	13.558
DTProbeTrack03	13	ProbeTrackDT	1.1	SCS215a	20101124.110301	20101124.111433	single-task	8	0.013328	60	10	60-180	60	147	GapExp	0	113	2	3	1	target	1	680	660	67787	13.328	13.059	13.584
DTProbeTrack03	13	ProbeTrackDT	1.1	SCS215a	20101124.110301	20101124.111440	single-task	8	0.013328	60	10	60-180	60	81	GapExp	0	114	2	6	0	distractor	1	627	687	68474	13.328	13.051	13.618
DTProbeTrack03	13	ProbeTrackDT	1.1	SCS215a	20101124.110301	20101124.111445	single-task	8	0.013328	60	10	60-180	60	149	GapExp	0	115	2	3	1	target	1	600	700	69174	13.328	12.931	13.736
DTProbeTrack03	13	ProbeTrackDT	1.1	SCS215a	20101124.110301	20101124.111451	single-task	8	0.013328	60	10	60-180	60	125	GapExp	0	116	2	1	1	target	1	520	740	69914	13.328	12.959	13.686
DTProbeTrack03	13	ProbeTrackDT	1.1	SCS215a	20101124.110301	20101124.111457	single-task	8	0.013328	60	10	60-180	60	76	GapExp	0	117	2	3	1	target	1	587	707	70621	13.328	12.997	13.654
DTProbeTrack03	13	ProbeTrackDT	1.1	SCS215a	20101124.110301	20101124.111502	single-task	8	0.013328	60	10	60-180	60	152	GapExp	0	118	2	45	1	target	1	493	754	71375	13.328	13.006	13.661
DTProbeTrack03	13	ProbeTrackDT	1.1	SCS215a	20101124.110301	20101124.111508	single-task	8	0.013328	60	10	60-180	60	166	GapExp	0	119	2	1	0	distractor	1	733	634	72009	13.328	12.849	13.800
DTProbeTrack03	13	ProbeTrackDT	1.1	SCS215a	20101124.110301	20101124.111515	single-task	8	0.013328	60	10	60-180	60	79	GapExp	0	120	2	6	0	distractor	1	1067	467	72476	13.328	13.300	13.349
DTProbeTrack03	13	ProbeTrackDT	1.1	SCS215a	20101124.110301	20101124.111520	single-task	8	0.013328	60	10	60-180	60	133	GapExp	0	121	2	45	1	target	1	693	654	73130	13.328	13.309	13.352
DTProbeTrack03	13	ProbeTrackDT	1.1	SCS215a	20101124.110301	20101124.111527	single-task	8	0.013328	60	10	60-180	60	152	GapExp	0	122	2	6	1	target	1	589	706	73836	13.328	12.893	13.782
DTProbeTrack03	13	ProbeTrackDT	1.1	SCS215a	20101124.110301	20101124.111533	single-task	8	0.013328	60	10	60-180	60	125	GapExp	0	123	2	3	0	distractor	1	787	607	74443	13.328	12.929	13.727
DTProbeTrack03	13	ProbeTrackDT	1.1	SCS215a	20101124.110301	20101124.111539	single-task	8	0.013328	60	10	60-180	60	160	GapExp	0	124	2	45	1	target	1	440	780	75223	13.328	13.096	13.550
DTProbeTrack03	13	ProbeTrackDT	1.1	SCS215a	20101124.110301	20101124.111546	single-task	8	0.013328	60	10	60-180	60	125	GapExp	0	125	2	6	1	target	1	1080	460	75683	13.328	13.056	13.601
DTProbeTrack03	13	ProbeTrackDT	1.1	SCS215a	20101124.110301	20101124.111552	single-task	8	0.013328	60	10	60-180	60	77	GapExp	0	126	2	1	1	target	1	680	660	76343	13.390	13.006	26.725
DTProbeTrack03	13	ProbeTrackDT	1.1	SCS215a	20101124.110301	20101124.111557	single-task	8	0.013328	60	10	60-180	60	87	GapExp	0	127	2	45	0	distractor	1	480	760	77103	13.328	13.247	13.407
DTProbeTrack03	13	ProbeTrackDT	1.1	SCS215a	20101124.110301	20101124.111603	single-task	8	0.013328	60	10	60-180	60	122	GapExp	0	128	2	45	0	distractor	1	1000	500	77603	13.328	12.897	13.757
DTProbeTrack03	13	ProbeTrackDT	1.1	SCS215a	20101124.110301	20101124.111609	single-task	8	0.013328	60	10	60-180	60	126	GapExp	0	129	2	1	1	target	1	574	713	78316	13.328	13.299	13.358
DTProbeTrack03	13	ProbeTrackDT	1.1	SCS215a	20101124.110301	20101124.111615	single-task	8	0.013328	60	10	60-180	60	129	GapExp	0	130	2	45	1	target	1	507	747	79063	13.328	13.089	13.569
DTProbeTrack03	13	ProbeTrackDT	1.1	SCS215a	20101124.110301	20101124.111621	single-task	8	0.013328	60	10	60-180	60	67	GapExp	0	131	2	9	0	distractor	1	613	694	79757	13.328	13.014	13.637
DTProbeTrack03	13	ProbeTrackDT	1.1	SCS215a	20101124.110301	20101124.111626	single-task	8	0.013328	60	10	60-180	60	126	GapExp	0	132	2	9	1	target	1	427	787	80544	13.328	12.879	13.778
DTProbeTrack03	13	ProbeTrackDT	1.1	SCS215a	20101124.110301	20101124.111632	single-task	8	0.013328	60	10	60-180	60	136	GapExp	0	133	2	6	1	target	1	440	780	81324	13.328	13.103	13.556
DTProbeTrack03	13	ProbeTrackDT	1.1	SCS215a	20101124.110301	20101124.111638	single-task	8	0.013328	60	10	60-180	60	79	GapExp	0	134	2	9	1	target	1	400	800	82124	13.328	12.994	13.671
DTProbeTrack03	13	ProbeTrackDT	1.1	SCS215a	20101124.110301	20101124.111643	single-task	8	0.013328	60	10	60-180	60	114	GapExp	0	135	2	3	1	target	1	374	813	82937	13.328	13.061	13.591
DTProbeTrack03	13	ProbeTrackDT	1.1	SCS215a	20101124.110301	20101124.111648	single-task	8	0.013328	60	10	60-180	60	147	GapExp	0	136	2	9	1	target	1	600	700	83637	13.328	12.886	13.775
DTProbeTrack03	13	ProbeTrackDT	1.1	SCS215a	20101124.110301	20101124.111654	single-task	8	0.013328	60	10	60-180	60	148	GapExp	0	137	2	45	1	target	1	467	767	84404	13.328	12.970	13.681
DTProbeTrack03	13	ProbeTrackDT	1.1	SCS215a	20101124.110301	20101124.111701	single-task	8	0.013328	60	10	60-180	60	153	GapExp	0	138	2	1	1	target	1	467	767	85171	13.328	12.874	13.789
DTProbeTrack03	13	ProbeTrackDT	1.1	SCS215a	20101124.110301	20101124.111707	single-task	8	0.013328	60	10	60-180	60	99	GapExp	0	139	2	3	0	target	0	707	-1000	84171	13.328	12.916	13.742
DTProbeTrack03	13	ProbeTrackDT	1.1	SCS215a	20101124.110301	20101124.111713	single-task	8	0.013328	60	10	60-180	60	112	GapExp	0	140	2	3	0	distractor	1	547	727	84898	13.328	13.184	13.495
DTProbeTrack03	13	ProbeTrackDT	1.1	SCS215a	20101124.110301	20101124.111718	single-task	8	0.013328	60	10	60-180	60	82	GapExp	0	141	2	6	1	target	1	574	713	85611	13.328	12.926	13.731
DTProbeTrack03	13	ProbeTrackDT	1.1	SCS215a	20101124.110301	20101124.111723	single-task	8	0.013328	60	10	60-180	60	75	GapExp	0	142	2	3	1	target	1	573	714	86325	13.328	12.842	13.806
DTProbeTrack03	13	ProbeTrackDT	1.1	SCS215a	20101124.110301	20101124.111728	single-task	8	0.013328	60	10	60-180	60	160	GapExp	0	143	2	6	1	target	1	707	647	86972	13.328	13.301	13.353
DTProbeTrack03	13	ProbeTrackDT	1.1	SCS215a	20101124.110301	20101124.111735	single-task	8	0.013328	60	10	60-180	60	155	GapExp	0	144	2	1	0	distractor	1	720	640	87612	13.328	13.004	13.661
DTProbeTrack03	13	ProbeTrackDT	1.1	SCS215a	20101124.110301	20101124.111741	single-task	8	0.013328	60	10	60-180	60	125	GapExp	0	145	2	45	0	distractor	1	773	614	88226	13.328	12.894	13.753
DTProbeTrack03	13	ProbeTrackDT	1.1	SCS215a	20101124.110301	20101124.111748	single-task	8	0.013328	60	10	60-180	60	154	GapExp	0	146	2	6	1	target	1	680	660	88886	13.328	12.895	13.764
DTProbeTrack03	13	ProbeTrackDT	1.1	SCS215a	20101124.110301	20101124.111754	single-task	8	0.013328	60	10	60-180	60	178	GapExp	0	147	2	3	0	target	0	560	-1000	87886	13.328	13.090	13.566
DTProbeTrack03	13	ProbeTrackDT	1.1	SCS215a	20101124.110301	20101124.111800	single-task	8	0.013328	60	10	60-180	60	173	GapExp	0	148	2	9	1	target	1	1067	467	88353	13.328	13.107	13.535
DTProbeTrack03	13	ProbeTrackDT	1.1	SCS215a	20101124.110301	20101124.111807	single-task	8	0.013328	60	10	60-180	60	81	GapExp	0	149	2	1	0	target	0	626	-1000	87353	13.328	12.889	13.755
DTProbeTrack03	13	ProbeTrackDT	1.1	SCS215a	20101124.110301	20101124.111812	single-task	8	0.013328	60	10	60-180	60	91	GapExp	0	150	2	3	0	distractor	1	693	654	88007	13.328	13.098	13.559
DTProbeTrack03	13	ProbeTrackDT	1.1	SCS215a	20101124.110301	20101124.111835	single-task	8	0.013328	60	10	60-180	60	118	GapExp	0	151	2	3	1	target	1	760	620	88627	13.328	13.120	13.553
DTProbeTrack03	13	ProbeTrackDT	1.1	SCS215a	20101124.110301	20101124.111841	single-task	8	0.013328	60	10	60-180	60	139	GapExp	0	152	2	9	0	distractor	1	907	547	89174	13.328	13.019	13.633
DTProbeTrack03	13	ProbeTrackDT	1.1	SCS215a	20101124.110301	20101124.111848	single-task	8	0.013328	60	10	60-180	60	167	GapExp	0	153	2	45	1	target	1	867	567	89741	13.328	12.870	13.779
DTProbeTrack03	13	ProbeTrackDT	1.1	SCS215a	20101124.110301	20101124.111855	single-task	8	0.013328	60	10	60-180	60	136	GapExp	0	154	2	3	1	target	1	667	667	90408	13.328	12.876	13.783
DTProbeTrack03	13	ProbeTrackDT	1.1	SCS215a	20101124.110301	20101124.111901	single-task	8	0.013328	60	10	60-180	60	67	GapExp	0	155	2	9	1	target	1	693	654	91062	13.328	13.099	13.549
DTProbeTrack03	13	ProbeTrackDT	1.1	SCS215a	20101124.110301	20101124.111906	single-task	8	0.013328	60	10	60-180	60	131	GapExp	0	156	2	9	1	target	1	467	767	91829	13.328	12.950	13.700
DTProbeTrack03	13	ProbeTrackDT	1.1	SCS215a	20101124.110301	20101124.111912	single-task	8	0.013328	60	10	60-180	60	64	GapExp	0	157	2	45	1	target	1	720	640	92469	13.328	13.295	13.355
DTProbeTrack03	13	ProbeTrackDT	1.1	SCS215a	20101124.110301	20101124.111917	single-task	8	0.013328	60	10	60-180	60	89	GapExp	0	158	2	9	0	distractor	1	560	720	93189	13.328	12.939	13.728
DTProbeTrack03	13	ProbeTrackDT	1.1	SCS215a	20101124.110301	20101124.111923	single-task	8	0.013328	60	10	60-180	60	180	GapExp	0	159	2	1	1	target	1	800	600	93789	13.328	12.930	13.717
DTProbeTrack03	13	ProbeTrackDT	1.1	SCS215a	20101124.110301	20101124.111929	single-task	8	0.013328	60	10	60-180	60	134	GapExp	0	160	2	9	0	target	0	654	-1000	92789	13.328	13.033	13.625
DTProbeTrack03	13	ProbeTrackDT	1.1	SCS215a	20101124.110301	20101124.111935	single-task	8	0.013328	60	10	60-180	60	172	GapExp	0	161	2	45	0	distractor	1	614	693	93482	13.328	12.984	13.688
DTProbeTrack03	13	ProbeTrackDT	1.1	SCS215a	20101124.110301	20101124.111942	single-task	8	0.013328	60	10	60-180	60	149	GapExp	0	162	2	1	0	distractor	1	1546	227	93709	13.328	13.261	13.376
DTProbeTrack03	13	ProbeTrackDT	1.1	SCS215a	20101124.110301	20101124.111949	single-task	8	0.013328	60	10	60-180	60	155	GapExp	0	163	2	6	0	distractor	1	707	647	94356	13.328	12.884	13.778
DTProbeTrack03	13	ProbeTrackDT	1.1	SCS215a	20101124.110301	20101124.111955	single-task	8	0.013328	60	10	60-180	60	157	GapExp	0	164	2	45	0	target	0	600	-1000	93356	13.328	13.116	13.541
DTProbeTrack03	13	ProbeTrackDT	1.1	SCS215a	20101124.110301	20101124.112002	single-task	8	0.013328	60	10	60-180	60	140	GapExp	0	165	2	1	1	distractor	0	680	-1000	92356	13.328	12.910	13.742
DTProbeTrack03	13	ProbeTrackDT	1.1	SCS215a	20101124.110301	20101124.112008	single-task	8	0.013328	60	10	60-180	60	154	GapExp	0	166	2	3	1	target	1	387	807	93163	13.328	12.991	13.668
DTProbeTrack03	13	ProbeTrackDT	1.1	SCS215a	20101124.110301	20101124.112014	single-task	8	0.013328	60	10	60-180	60	159	GapExp	0	167	2	6	1	target	1	507	747	93910	13.328	12.856	13.386
DTProbeTrack03	13	ProbeTrackDT	1.1	SCS215a	20101124.110301	20101124.112020	single-task	8	0.013328	60	10	60-180	60	84	GapExp	0	168	2	45	0	distractor	1	840	580	94490	13.328	13.306	13.346
DTProbeTrack03	13	ProbeTrackDT	1.1	SCS215a	20101124.110301	20101124.112026	single-task	8	0.013328	60	10	60-180	60	130	GapExp	0	169	2	9	0	distractor	1	760	620	95110	13.328	13.005	13.659
DTProbeTrack03	13	ProbeTrackDT	1.1	SCS215a	20101124.110301	20101124.112032	single-task	8	0.013328	60	10	60-180	60	130	GapExp	0	170	2	6	1	target	1	534	733	95843	13.328	12.906	13.750
DTProbeTrack03	13	ProbeTrackDT	1.1	SCS215a	20101124.110301	20101124.112038	single-task	8	0.013328	60	10	60-180	60	119	GapExp	0	171	2	45	0	distractor	1	547	727	96570	13.328	12.917	13.734
DTProbeTrack03	13	ProbeTrackDT	1.1	SCS215a	20101124.110301	20101124.112044	single-task	8	0.013328	60	10	60-180	60	118	GapExp	0	172	2	1	1	target	1	600	700	97270	13.328	12.870	13.785
DTProbeTrack03	13	ProbeTrackDT	1.1	SCS215a	20101124.110301	20101124.112050	single-task	8	0.013328	60	10	60-180	60	116	GapExp	0	173	2	6	1	target	1	574	713	97983	13.328	12.923	13.724
DTProbeTrack03	13	ProbeTrackDT	1.1	SCS215a	20101124.110301	20101124.112056	single-task	8	0.013328	60	10	60-180	60	64	GapExp	0	174	2	9	1	target	1	440	780	98763	13.328	13.301	13.357
DTProbeTrack03	13	ProbeTrackDT	1.1	SCS215a	20101124.110301	20101124.112100	single-task	8	0.013328	60	10	60-180	60	98	GapExp	0	175	2	6	0	distractor	1	667	667	99430	13.328	12.977	13.682
DTProbeTrack03	13	ProbeTrackDT	1.1	SCS215a	20101124.110301	20101124.112106	single-task	8	0.013328	60	10	60-180	60	137	GapExp	0	176	2	3	0	distractor	1	587	707	100137	13.328	12.990	13.676
DTProbeTrack03	13	ProbeTrackDT	1.1	SCS215a	20101124.110301	20101124.112112	single-task	8	0.013328	60	10	60-180	60	96	GapExp	0	177	2	9	0	distractor	1	560	720	100857	13.328	13.300	13.354
DTProbeTrack03	13	ProbeTrackDT	1.1	SCS215a	20101124.110301	20101124.112117	single-task	8	0.013328	60	10	60-180	60	70	GapExp	0	178	2	9	0	distractor	1	733	634	101491	13.328	13.017	13.655
DTProbeTrack03	13	ProbeTrackDT	1.1	SCS215a	20101124.110301	20101124.112122	single-task	8	0.013328	60	10	60-180	60	124	GapExp	0	179	2	3	1	target	1	680	660	102151	13.328	12.937	13.599
DTProbeTrack03	13	ProbeTrackDT	1.1	SCS215a	20101124.110301	20101124.112128	single-task	8	0.013328	60	10	60-180	60	95	GapExp	0	180	2	1	0	distractor	1	693	654	102805	13.328	13.308	13.347
DTProbeTrack03	13	ProbeTrackDT	1.1	SCS215a	20101124.110301	20101124.112134	single-task	8	0.013328	60	10	60-180	60	98	GapExp	0	181	2	6	1	target	1	840	580	103385	13.328	13.085	13.555
DTProbeTrack03	13	ProbeTrackDT	1.1	SCS215a	20101124.110301	20101124.112139	single-task	8	0.013328	60	10	60-180	60	63	GapExp	0	182	2	9	0	distractor	1	574	713	104098	13.328	13.306	13.345
DTProbeTrack03	13	ProbeTrackDT	1.1	SCS215a	20101124.110301	20101124.112144	single-task	8	0.013328	60	10	60-180	60	154	GapExp	0	183	2	6	0	distractor	1	613	694	104792	13.328	13.094	13.551
DTProbeTrack03	13	ProbeTrackDT	1.1	SCS215a	20101124.110301	20101124.112150	single-task	8	0.013328	60	10	60-180	60	85	GapExp	0	184	2	1	0	distractor	1	1053	474	105266	13.328	12.854	13.791
DTProbeTrack03	13	ProbeTrackDT	1.1	SCS215a	20101124.110301	20101124.112156	single-task	8	0.013328	60	10	60-180	60	89	GapExp	0	185	2	3	1	distractor	0	880	-1000	104266	13.328	12.984	13.680
DTProbeTrack03	13	ProbeTrackDT	1.1	SCS215a	20101124.110301	20101124.112202	single-task	8	0.013328	60	10	60-180	60	124	GapExp	0	186	2	1	0	distractor	1	627	687	104953	13.328	13.300	13.350
DTProbeTrack03	13	ProbeTrackDT	1.1	SCS215a	20101124.110301	20101124.112207	single-task	8	0.013328	60	10	60-180	60	95	GapExp	0	187	2	45	0	distractor	1	800	600	105553	13.328	12.997	13.669
DTProbeTrack03	13	ProbeTrackDT	1.1	SCS215a	20101124.110301	20101124.112213	single-task	8	0.013328	60	10	60-180	60	73	GapExp	0	188	2	3	1	target	1	1000	500	106053	13.328	12.871	13.784
DTProbeTrack03	13	ProbeTrackDT	1.1	SCS215a	20101124.110301	20101124.112219	single-task	8	0.013328	60	10	60-180	60	88	GapExp	0	189	2	45	0	distractor	1	1826	87	106140	13.328	13.114	13.551
DTProbeTrack03	13	ProbeTrackDT	1.1	SCS215a	20101124.110301	20101124.112226	single-task	8	0.013328	60	10	60-180	60	76	GapExp	0	190	2	45	0	target	0	628	-1000	105140	13.328	12.831	13.812
DTProbeTrack03	13	ProbeTrackDT	1.1	SCS215a	20101124.110301	20101124.112232	single-task	8	0.013328	60	10	60-180	60	171	GapExp	0	191	2	9	0	distractor	1	560	720	105860	13.328	13.301	13.366
DTProbeTrack03	13	ProbeTrackDT	1.1	SCS215a	20101124.110301	20101124.112238	single-task	8	0.013328	60	10	60-180	60	134	GapExp	0	192	2	3	0	distractor	1	853	574	106434	13.328	12.851	13.812
DTProbeTrack03	13	ProbeTrackDT	1.1	SCS215a	20101124.110301	20101124.112244	single-task	8	0.013328	60	10	60-180	60	117	GapExp	0	193	2	45	1	target	1	880	560	106994	13.328	12.971	13.694
DTProbeTrack03	13	ProbeTrackDT	1.1	SCS215a	20101124.110301	20101124.112250	single-task	8	0.013328	60	10	60-180	60	146	GapExp	0	194	2	45	0	distractor	1	587	707	107701	13.328	12.870	13.795
DTProbeTrack03	13	ProbeTrackDT	1.1	SCS215a	20101124.110301	20101124.112257	single-task	8	0.013328	60	10	60-180	60	102	GapExp	0	195	2	1	0	distractor	1	1147	427	108128	13.328	12.983	13.676
DTProbeTrack03	13	ProbeTrackDT	1.1	SCS215a	20101124.110301	20101124.112303	single-task	8	0.013328	60	10	60-180	60	75	GapExp	0	196	2	1	1	target	1	773	614	108742	13.328	13.007	13.644
DTProbeTrack03	13	ProbeTrackDT	1.1	SCS215a	20101124.110301	20101124.112308	single-task	8	0.013328	60	10	60-180	60	65	GapExp	0	197	2	3	1	target	1	667	667	109409	13.328	12.897	13.759
DTProbeTrack03	13	ProbeTrackDT	1.1	SCS215a	20101124.110301	20101124.112313	single-task	8	0.013328	60	10	60-180	60	85	GapExp	0	198	2	6	0	distractor	1	653	674	110083	13.328	12.903	13.762
DTProbeTrack03	13	ProbeTrackDT	1.1	SCS215a	20101124.110301	20101124.112319	single-task	8	0.013328	60	10	60-180	60	126	GapExp	0	199	2	9	0	distractor	1	773	614	110697	13.328	12.997	13.661
DTProbeTrack03	13	ProbeTrackDT	1.1	SCS215a	20101124.110301	20101124.112324	single-task	8	0.013328	60	10	60-180	60	115	GapExp	0	200	2	6	1	target	1	707	647	111344	13.328	12.901	13.757
DTProbeTrack03	13	ProbeTrackDT	1.1	SCS215a	20101124.110301	20101124.112338	single-task	8	0.013328	60	10	60-180	60	136	GapExp	0	201	2	9	1	target	1	520	740	112084	13.328	12.935	13.728
DTProbeTrack03	13	ProbeTrackDT	1.1	SCS215a	20101124.110301	20101124.112344	single-task	8	0.013328	60	10	60-180	60	158	GapExp	0	202	2	3	0	distractor	1	507	747	112831	13.328	13.307	13.347
DTProbeTrack03	13	ProbeTrackDT	1.1	SCS215a	20101124.110301	20101124.112350	single-task	8	0.013328	60	10	60-180	60	75	GapExp	0	203	2	1	0	distractor	1	760	620	113451	13.328	13.046	13.612
DTProbeTrack03	13	ProbeTrackDT	1.1	SCS215a	20101124.110301	20101124.112356	single-task	8	0.013328	60	10	60-180	60	68	GapExp	0	204	2	45	1	target	1	574	713	114164	13.328	12.882	13.777
DTProbeTrack03	13	ProbeTrackDT	1.1	SCS215a	20101124.110301	20101124.112401	single-task	8	0.013328	60	10	60-180	60	112	GapExp	0	205	2	9	1	target	1	720	640	114804	13.328	12.828	13.824
DTProbeTrack03	13	ProbeTrackDT	1.1	SCS215a	20101124.112513	20101124.112528	dt-shadow	8	0.013328	60	10	60-180	60	62	GapPrac	1	1	2	3	1	target	1	973	514	115318	13.328	12.980	13.680
DTProbeTrack03	13	ProbeTrackDT	1.1	SCS215a	20101124.112513	20101124.112533	dt-shadow	8	0.013328	60	10	60-180	60	74	GapPrac	1	2	2	3	1	distractor	0	1147	-1000	114318	13.328	12.974	13.676
DTProbeTrack03	13	ProbeTrackDT	1.1	SCS215a	20101124.112513	20101124.112538	dt-shadow	8	0.013328	60	10	60-180	60	179	GapPrac	1	3	2	6	1	distractor	0	1080	-1000	113318	13.328	12.972	13.677
DTProbeTrack03	13	ProbeTrackDT	1.1	SCS215a	20101124.112513	20101124.112545	dt-shadow	8	0.013328	60	10	60-180	60	163	GapPrac	1	4	2	6	0	32	-3	12449	-1000	112318	13.328	13.096	13.559
DTProbeTrack03	13	ProbeTrackDT	1.1	SCS215a	20101124.112513	20101124.112604	dt-shadow	8	0.013328	60	10	60-180	60	166	GapPrac	1	5	2	1	1	target	1	613	694	113012	13.328	12.983	13.677
DTProbeTrack03	13	ProbeTrackDT	1.1	SCS215a	20101124.112513	20101124.112610	dt-shadow	8	0.013328	60	10	60-180	60	106	GapPrac	1	6	2	3	0	distractor	1	733	634	113646	13.328	12.873	13.794
DTProbeTrack03	13	ProbeTrackDT	1.1	SCS215a	20101124.112513	20101124.112616	dt-shadow	8	0.013328	60	10	60-180	60	68	GapPrac	1	7	2	1	0	distractor	1	1133	434	114080	13.328	13.108	13.526
DTProbeTrack03	13	ProbeTrackDT	1.1	SCS215a	20101124.112513	20101124.112621	dt-shadow	8	0.013328	60	10	60-180	60	136	GapPrac	1	8	2	45	0	distractor	1	560	720	114800	13.328	13.113	13.543
DTProbeTrack03	13	ProbeTrackDT	1.1	SCS215a	20101124.112513	20101124.112627	dt-shadow	8	0.013328	60	10	60-180	60	81	GapPrac	1	9	2	1	0	distractor	1	1240	380	115180	13.328	12.970	13.690
DTProbeTrack03	13	ProbeTrackDT	1.1	SCS215a	20101124.112513	20101124.112633	dt-shadow	8	0.013328	60	10	60-180	60	61	GapPrac	1	10	2	9	0	distractor	1	907	547	115727	13.328	12.828	13.822
DTProbeTrack03	13	ProbeTrackDT	1.1	SCS215a	20101124.112513	20101124.112638	dt-shadow	8	0.013328	60	10	60-180	60	146	GapPrac	1	11	2	45	1	target	1	547	727	116454	13.328	12.890	13.760
DTProbeTrack03	13	ProbeTrackDT	1.1	SCS215a	20101124.112513	20101124.112645	dt-shadow	8	0.013328	60	10	60-180	60	146	GapPrac	1	12	2	9	1	target	1	520	740	117194	13.328	12.860	13.793
DTProbeTrack03	13	ProbeTrackDT	1.1	SCS215a	20101124.112513	20101124.112651	dt-shadow	8	0.013328	60	10	60-180	60	170	GapPrac	1	13	2	9	1	target	1	613	694	117888	13.328	13.081	13.579
DTProbeTrack03	13	ProbeTrackDT	1.1	SCS215a	20101124.112513	20101124.112657	dt-shadow	8	0.013328	60	10	60-180	60	84	GapPrac	1	14	2	45	0	distractor	1	680	660	118548	13.328	13.058	13.589
DTProbeTrack03	13	ProbeTrackDT	1.1	SCS215a	20101124.112513	20101124.112703	dt-shadow	8	0.013328	60	10	60-180	60	106	GapPrac	1	15	2	9	0	distractor	1	747	627	119175	13.328	13.097	13.560
DTProbeTrack03	13	ProbeTrackDT	1.1	SCS215a	20101124.112513	20101124.112709	dt-shadow	8	0.013328	60	10	60-180	60	138	GapPrac	1	16	2	45	1	distractor	0	547	-1000	118175	13.328	13.237	13.405
DTProbeTrack03	13	ProbeTrackDT	1.1	SCS215a	20101124.112513	20101124.112715	dt-shadow	8	0.013328	60	10	60-180	60	86	GapPrac	1	17	2	6	0	distractor	1	733	634	118809	13.328	12.997	13.669
DTProbeTrack03	13	ProbeTrackDT	1.1	SCS215a	20101124.112513	20101124.112720	dt-shadow	8	0.013328	60	10	60-180	60	82	GapPrac	1	18	2	3	0	distractor	1	680	660	119469	13.328	12.956	13.714
DTProbeTrack03	13	ProbeTrackDT	1.1	SCS215a	20101124.112513	20101124.112726	dt-shadow	8	0.013328	60	10	60-180	60	164	GapPrac	1	19	2	1	1	target	1	747	627	120096	13.328	13.099	13.562
DTProbeTrack03	13	ProbeTrackDT	1.1	SCS215a	20101124.112513	20101124.112732	dt-shadow	8	0.013328	60	10	60-180	60	150	GapPrac	1	20	2	6	1	target	1	574	713	120809	13.328	13.308	13.355
DTProbeTrack03	13	ProbeTrackDT	1.1	SCS215a	20101124.112820	20101124.112824	dt-shadow	8	0.013328	60	10	60-180	60	144	GapExp	1	1	2	45	1	target	1	680	660	121469	13.328	13.194	13.473
DTProbeTrack03	13	ProbeTrackDT	1.1	SCS215a	20101124.112820	20101124.112831	dt-shadow	8	0.013328	60	10	60-180	60	99	GapExp	1	2	2	9	1	target	1	1013	494	121963	13.328	13.308	13.345
DTProbeTrack03	13	ProbeTrackDT	1.1	SCS215a	20101124.112820	20101124.112837	dt-shadow	8	0.013328	60	10	60-180	60	70	GapExp	1	3	2	3	0	distractor	1	773	614	122577	13.328	12.852	13.806
DTProbeTrack03	13	ProbeTrackDT	1.1	SCS215a	20101124.112820	20101124.112842	dt-shadow	8	0.013328	60	10	60-180	60	80	GapExp	1	4	2	9	0	distractor	1	667	667	123244	13.328	13.093	13.557
DTProbeTrack03	13	ProbeTrackDT	1.1	SCS215a	20101124.112820	20101124.112847	dt-shadow	8	0.013328	60	10	60-180	60	125	GapExp	1	5	2	6	0	distractor	1	1053	474	123718	13.328	12.929	13.717
DTProbeTrack03	13	ProbeTrackDT	1.1	SCS215a	20101124.112820	20101124.112854	dt-shadow	8	0.013328	60	10	60-180	60	177	GapExp	0	6	2	9	0	distractor	1	627	687	124405	13.328	13.308	13.355
DTProbeTrack03	13	ProbeTrackDT	1.1	SCS215a	20101124.112820	20101124.112900	dt-shadow	8	0.013328	60	10	60-180	60	96	GapExp	0	7	2	1	0	distractor	1	827	587	124992	13.328	12.902	13.761
DTProbeTrack03	13	ProbeTrackDT	1.1	SCS215a	20101124.112820	20101124.112906	dt-shadow	8	0.013328	60	10	60-180	60	175	GapExp	0	8	2	45	0	distractor	1	747	627	125619	13.328	13.309	13.347
DTProbeTrack03	13	ProbeTrackDT	1.1	SCS215a	20101124.112820	20101124.112913	dt-shadow	8	0.013328	60	10	60-180	60	130	GapExp	0	9	2	1	0	distractor	1	760	620	126239	13.328	13.176	13.468
DTProbeTrack03	13	ProbeTrackDT	1.1	SCS215a	20101124.112820	20101124.112919	dt-shadow	8	0.013328	60	10	60-180	60	125	GapExp	0	10	2	45	0	distractor	1	907	547	126786	13.328	13.089	13.570
DTProbeTrack03	13	ProbeTrackDT	1.1	SCS215a	20101124.112820	20101124.112925	dt-shadow	8	0.013328	60	10	60-180	60	104	GapExp	0	11	2	1	0	distractor	1	973	514	127300	13.328	13.099	13.566
DTProbeTrack03	13	ProbeTrackDT	1.1	SCS215a	20101124.112820	20101124.112931	dt-shadow	8	0.013328	60	10	60-180	60	135	GapExp	0	12	2	6	1	target	1	627	687	127987	13.328	12.855	13.801
DTProbeTrack03	13	ProbeTrackDT	1.1	SCS215a	20101124.112820	20101124.112937	dt-shadow	8	0.013328	60	10	60-180	60	91	GapExp	0	13	2	9	0	distractor	1	920	540	128527	13.328	13.303	13.347
DTProbeTrack03	13	ProbeTrackDT	1.1	SCS215a	20101124.112820	20101124.112943	dt-shadow	8	0.013328	60	10	60-180	60	126	GapExp	0	14	2	1	0	distractor	1	680	660	129187	13.328	12.663	14.001
DTProbeTrack03	13	ProbeTrackDT	1.1	SCS215a	20101124.112820	20101124.112948	dt-shadow	8	0.013328	60	10	60-180	60	61	GapExp	0	15	2	45	1	target	1	587	707	129894	13.384	13.026	26.992
DTProbeTrack03	13	ProbeTrackDT	1.1	SCS215a	20101124.112820	20101124.112954	dt-shadow	8	0.013328	60	10	60-180	60	104	GapExp	0	16	2	1	1	target	1	454	773	130667	13.328	12.843	13.814
DTProbeTrack03	13	ProbeTrackDT	1.1	SCS215a	20101124.112820	20101124.112959	dt-shadow	8	0.013328	60	10	60-180	60	169	GapExp	0	17	2	1	0	distractor	1	627	687	131354	13.328	12.951	13.703
DTProbeTrack03	13	ProbeTrackDT	1.1	SCS215a	20101124.112820	20101124.113005	dt-shadow	8	0.013328	60	10	60-180	60	168	GapExp	0	18	2	6	0	distractor	1	760	620	131974	13.328	13.104	13.552
DTProbeTrack03	13	ProbeTrackDT	1.1	SCS215a	20101124.112820	20101124.113012	dt-shadow	8	0.013328	60	10	60-180	60	103	GapExp	0	19	2	3	0	distractor	1	880	560	132534	13.328	13.303	13.346
DTProbeTrack03	13	ProbeTrackDT	1.1	SCS215a	20101124.112820	20101124.113018	dt-shadow	8	0.013328	60	10	60-180	60	87	GapExp	0	20	2	45	1	target	1	400	800	133334	13.328	12.886	13.773
DTProbeTrack03	13	ProbeTrackDT	1.1	SCS215a	20101124.112820	20101124.113023	dt-shadow	8	0.013328	60	10	60-180	60	101	GapExp	0	21	2	1	0	distractor	1	760	620	133954	13.328	13.297	13.355
DTProbeTrack03	13	ProbeTrackDT	1.1	SCS215a	20101124.112820	20101124.113029	dt-shadow	8	0.013328	60	10	60-180	60	97	GapExp	0	22	2	3	1	target	1	1453	274	134228	13.328	12.859	13.791
DTProbeTrack03	13	ProbeTrackDT	1.1	SCS215a	20101124.112820	20101124.113035	dt-shadow	8	0.013328	60	10	60-180	60	86	GapExp	0	23	2	9	0	distractor	1	787	607	134835	13.328	13.083	13.572
DTProbeTrack03	13	ProbeTrackDT	1.1	SCS215a	20101124.112820	20101124.113040	dt-shadow	8	0.013328	60	10	60-180	60	72	GapExp	0	24	2	1	1	target	1	574	713	135548	13.328	12.860	13.783
DTProbeTrack03	13	ProbeTrackDT	1.1	SCS215a	20101124.112820	20101124.113045	dt-shadow	8	0.013328	60	10	60-180	60	171	GapExp	0	25	2	3	1	target	1	534	733	136281	13.328	12.929	13.736
DTProbeTrack03	13	ProbeTrackDT	1.1	SCS215a	20101124.112820	20101124.113052	dt-shadow	8	0.013328	60	10	60-180	60	92	GapExp	0	26	2	1	1	target	1	1013	494	136775	13.328	12.885	13.776
DTProbeTrack03	13	ProbeTrackDT	1.1	SCS215a	20101124.112820	20101124.113057	dt-shadow	8	0.013328	60	10	60-180	60	88	GapExp	0	27	2	1	0	distractor	1	747	627	137402	13.328	12.991	13.671
DTProbeTrack03	13	ProbeTrackDT	1.1	SCS215a	20101124.112820	20101124.113103	dt-shadow	8	0.013328	60	10	60-180	60	144	GapExp	0	28	2	45	0	distractor	1	707	647	138049	13.328	12.856	13.804
DTProbeTrack03	13	ProbeTrackDT	1.1	SCS215a	20101124.112820	20101124.113109	dt-shadow	8	0.013328	60	10	60-180	60	124	GapExp	0	29	2	9	0	distractor	1	707	647	138696	13.328	12.876	13.786
DTProbeTrack03	13	ProbeTrackDT	1.1	SCS215a	20101124.112820	20101124.113115	dt-shadow	8	0.013328	60	10	60-180	60	65	GapExp	0	30	2	9	0	distractor	1	827	587	139283	13.328	13.309	13.346
DTProbeTrack03	13	ProbeTrackDT	1.1	SCS215a	20101124.112820	20101124.113120	dt-shadow	8	0.013328	60	10	60-180	60	138	GapExp	0	31	2	1	1	target	1	560	720	140003	13.328	13.308	13.350
DTProbeTrack03	13	ProbeTrackDT	1.1	SCS215a	20101124.112820	20101124.113126	dt-shadow	8	0.013328	60	10	60-180	60	174	GapExp	0	32	2	6	0	distractor	1	667	667	140670	13.328	13.278	13.369
DTProbeTrack03	13	ProbeTrackDT	1.1	SCS215a	20101124.112820	20101124.113133	dt-shadow	8	0.013328	60	10	60-180	60	152	GapExp	0	33	2	3	0	distractor	1	800	600	141270	13.328	12.939	13.716
DTProbeTrack03	13	ProbeTrackDT	1.1	SCS215a	20101124.112820	20101124.113139	dt-shadow	8	0.013328	60	10	60-180	60	101	GapExp	0	34	2	1	1	target	1	534	733	142003	13.328	13.107	13.558
DTProbeTrack03	13	ProbeTrackDT	1.1	SCS215a	20101124.112820	20101124.113144	dt-shadow	8	0.013328	60	10	60-180	60	128	GapExp	0	35	2	3	1	target	1	560	720	142723	13.328	12.896	13.762
DTProbeTrack03	13	ProbeTrackDT	1.1	SCS215a	20101124.112820	20101124.113150	dt-shadow	8	0.013328	60	10	60-180	60	121	GapExp	0	36	2	3	1	target	1	520	740	143463	13.328	13.008	13.633
DTProbeTrack03	13	ProbeTrackDT	1.1	SCS215a	20101124.112820	20101124.113155	dt-shadow	8	0.013328	60	10	60-180	60	92	GapExp	0	37	2	6	0	distractor	1	827	587	144050	13.328	12.981	13.675
DTProbeTrack03	13	ProbeTrackDT	1.1	SCS215a	20101124.112820	20101124.113201	dt-shadow	8	0.013328	60	10	60-180	60	88	GapExp	0	38	2	1	1	target	1	560	720	144770	13.328	13.083	13.588
DTProbeTrack03	13	ProbeTrackDT	1.1	SCS215a	20101124.112820	20101124.113206	dt-shadow	8	0.013328	60	10	60-180	60	72	GapExp	0	39	2	3	1	target	1	893	554	145324	13.328	13.090	13.570
DTProbeTrack03	13	ProbeTrackDT	1.1	SCS215a	20101124.112820	20101124.113212	dt-shadow	8	0.013328	60	10	60-180	60	168	GapExp	0	40	2	45	0	distractor	1	480	760	146084	13.328	13.101	13.572
DTProbeTrack03	13	ProbeTrackDT	1.1	SCS215a	20101124.112820	20101124.113218	dt-shadow	8	0.013328	60	10	60-180	60	67	GapExp	0	41	2	6	1	target	1	693	654	146738	13.328	13.295	13.368
DTProbeTrack03	13	ProbeTrackDT	1.1	SCS215a	20101124.112820	20101124.113223	dt-shadow	8	0.013328	60	10	60-180	60	154	GapExp	0	42	2	9	0	distractor	1	613	694	147432	13.328	12.873	13.789
DTProbeTrack03	13	ProbeTrackDT	1.1	SCS215a	20101124.112820	20101124.113230	dt-shadow	8	0.013328	60	10	60-180	60	111	GapExp	0	43	2	45	1	target	1	480	760	148192	13.328	12.865	13.788
DTProbeTrack03	13	ProbeTrackDT	1.1	SCS215a	20101124.112820	20101124.113236	dt-shadow	8	0.013328	60	10	60-180	60	170	GapExp	0	44	2	45	1	target	1	1280	360	148552	13.328	12.871	13.775
DTProbeTrack03	13	ProbeTrackDT	1.1	SCS215a	20101124.112820	20101124.113243	dt-shadow	8	0.013328	60	10	60-180	60	109	GapExp	0	45	2	1	1	target	1	627	687	149239	13.328	13.308	13.348
DTProbeTrack03	13	ProbeTrackDT	1.1	SCS215a	20101124.112820	20101124.113249	dt-shadow	8	0.013328	60	10	60-180	60	147	GapExp	0	46	2	9	0	distractor	1	680	660	149899	13.328	12.848	13.804
DTProbeTrack03	13	ProbeTrackDT	1.1	SCS215a	20101124.112820	20101124.113255	dt-shadow	8	0.013328	60	10	60-180	60	95	GapExp	0	47	2	6	1	target	1	427	787	150686	13.328	13.022	13.622
DTProbeTrack03	13	ProbeTrackDT	1.1	SCS215a	20101124.112820	20101124.113300	dt-shadow	8	0.013328	60	10	60-180	60	86	GapExp	0	48	2	6	1	target	1	693	654	151340	13.328	12.931	13.741
DTProbeTrack03	13	ProbeTrackDT	1.1	SCS215a	20101124.112820	20101124.113305	dt-shadow	8	0.013328	60	10	60-180	60	122	GapExp	0	49	2	45	0	distractor	1	800	600	151940	13.328	13.310	13.348
DTProbeTrack03	13	ProbeTrackDT	1.1	SCS215a	20101124.112820	20101124.113312	dt-shadow	8	0.013328	60	10	60-180	60	162	GapExp	0	50	2	45	1	target	1	667	667	152607	13.328	13.128	13.531
DTProbeTrack03	13	ProbeTrackDT	1.1	SCS215a	20101124.112820	20101124.113324	dt-shadow	8	0.013328	60	10	60-180	60	154	GapExp	0	51	2	1	1	target	1	840	580	153187	13.328	13.066	13.589
DTProbeTrack03	13	ProbeTrackDT	1.1	SCS215a	20101124.112820	20101124.113331	dt-shadow	8	0.013328	60	10	60-180	60	133	GapExp	0	52	2	3	1	target	1	773	614	153801	13.328	13.014	13.646
DTProbeTrack03	13	ProbeTrackDT	1.1	SCS215a	20101124.112820	20101124.113337	dt-shadow	8	0.013328	60	10	60-180	60	83	GapExp	0	53	2	9	1	target	1	627	687	154488	13.328	13.096	13.556
DTProbeTrack03	13	ProbeTrackDT	1.1	SCS215a	20101124.112820	20101124.113342	dt-shadow	8	0.013328	60	10	60-180	60	153	GapExp	0	54	2	45	0	distractor	1	693	654	155142	13.328	13.064	13.583
DTProbeTrack03	13	ProbeTrackDT	1.1	SCS215a	20101124.112820	20101124.113349	dt-shadow	8	0.013328	60	10	60-180	60	129	GapExp	0	55	2	9	0	target	0	853	-1000	154142	13.328	13.076	13.572
DTProbeTrack03	13	ProbeTrackDT	1.1	SCS215a	20101124.112820	20101124.113355	dt-shadow	8	0.013328	60	10	60-180	60	125	GapExp	0	56	2	3	1	target	1	1320	340	154482	13.328	12.868	13.789
DTProbeTrack03	13	ProbeTrackDT	1.1	SCS215a	20101124.112820	20101124.113401	dt-shadow	8	0.013328	60	10	60-180	60	162	GapExp	0	57	2	9	1	target	1	414	793	155275	13.328	12.855	13.803
DTProbeTrack03	13	ProbeTrackDT	1.1	SCS215a	20101124.112820	20101124.113407	dt-shadow	8	0.013328	60	10	60-180	60	101	GapExp	0	58	2	9	1	target	1	467	767	156042	13.328	13.306	13.347
DTProbeTrack03	13	ProbeTrackDT	1.1	SCS215a	20101124.112820	20101124.113413	dt-shadow	8	0.013328	60	10	60-180	60	104	GapExp	0	59	2	45	1	target	1	467	767	156809	13.328	13.273	13.387
DTProbeTrack03	13	ProbeTrackDT	1.1	SCS215a	20101124.112820	20101124.113419	dt-shadow	8	0.013328	60	10	60-180	60	70	GapExp	0	60	2	9	1	target	1	520	740	157549	13.328	12.925	13.741
DTProbeTrack03	13	ProbeTrackDT	1.1	SCS215a	20101124.112820	20101124.113424	dt-shadow	8	0.013328	60	10	60-180	60	142	GapExp	0	61	2	3	0	distractor	1	627	687	158236	13.328	13.090	13.561
DTProbeTrack03	13	ProbeTrackDT	1.1	SCS215a	20101124.112820	20101124.113430	dt-shadow	8	0.013328	60	10	60-180	60	98	GapExp	0	62	2	45	1	target	1	454	773	159009	13.328	13.304	13.347
DTProbeTrack03	13	ProbeTrackDT	1.1	SCS215a	20101124.112820	20101124.113435	dt-shadow	8	0.013328	60	10	60-180	60	119	GapExp	0	63	2	3	0	distractor	1	627	687	159696	13.328	12.901	13.756
DTProbeTrack03	13	ProbeTrackDT	1.1	SCS215a	20101124.112820	20101124.113441	dt-shadow	8	0.013328	60	10	60-180	60	88	GapExp	0	64	2	9	0	target	0	1506	-1000	158696	13.328	13.087	13.562
DTProbeTrack03	13	ProbeTrackDT	1.1	SCS215a	20101124.112820	20101124.113447	dt-shadow	8	0.013328	60	10	60-180	60	138	GapExp	0	65	2	9	0	target	0	614	-1000	157696	13.328	13.301	13.348
DTProbeTrack03	13	ProbeTrackDT	1.1	SCS215a	20101124.112820	20101124.113453	dt-shadow	8	0.013328	60	10	60-180	60	150	GapExp	0	66	2	9	1	target	1	680	660	158356	13.328	13.103	13.551
DTProbeTrack03	13	ProbeTrackDT	1.1	SCS215a	20101124.112820	20101124.113500	dt-shadow	8	0.013328	60	10	60-180	60	103	GapExp	0	67	2	1	1	target	1	627	687	159043	13.328	13.106	13.539
DTProbeTrack03	13	ProbeTrackDT	1.1	SCS215a	20101124.112820	20101124.113505	dt-shadow	8	0.013328	60	10	60-180	60	84	GapExp	0	68	2	45	0	distractor	1	640	680	159723	13.328	12.974	13.680
DTProbeTrack03	13	ProbeTrackDT	1.1	SCS215a	20101124.112820	20101124.113511	dt-shadow	8	0.013328	60	10	60-180	60	92	GapExp	0	69	2	45	0	distractor	1	667	667	160390	13.328	12.942	13.726
DTProbeTrack03	13	ProbeTrackDT	1.1	SCS215a	20101124.112820	20101124.113517	dt-shadow	8	0.013328	60	10	60-180	60	141	GapExp	0	70	2	6	1	target	1	627	687	161077	13.328	12.917	13.749
DTProbeTrack03	13	ProbeTrackDT	1.1	SCS215a	20101124.112820	20101124.113523	dt-shadow	8	0.013328	60	10	60-180	60	141	GapExp	0	71	2	6	0	distractor	1	574	713	161790	13.328	12.868	13.780
DTProbeTrack03	13	ProbeTrackDT	1.1	SCS215a	20101124.112820	20101124.113529	dt-shadow	8	0.013328	60	10	60-180	60	108	GapExp	0	72	2	1	1	target	1	467	767	162557	13.328	13.003	13.644
DTProbeTrack03	13	ProbeTrackDT	1.1	SCS215a	20101124.112820	20101124.113534	dt-shadow	8	0.013328	60	10	60-180	60	130	GapExp	0	73	2	9	0	distractor	1	627	687	163244	13.327	13.090	13.569
DTProbeTrack03	13	ProbeTrackDT	1.1	SCS215a	20101124.112820	20101124.113540	dt-shadow	8	0.013328	60	10	60-180	60	68	GapExp	0	74	2	6	1	target	1	1133	434	163678	13.328	13.037	13.617
DTProbeTrack03	13	ProbeTrackDT	1.1	SCS215a	20101124.112820	20101124.113546	dt-shadow	8	0.013328	60	10	60-180	60	157	GapExp	0	75	2	1	0	distractor	1	707	647	164325	13.328	12.886	13.766
DTProbeTrack03	13	ProbeTrackDT	1.1	SCS215a	20101124.112820	20101124.113552	dt-shadow	8	0.013328	60	10	60-180	60	103	GapExp	0	76	2	6	1	distractor	0	760	-1000	163325	13.328	13.308	13.347
DTProbeTrack03	13	ProbeTrackDT	1.1	SCS215a	20101124.112820	20101124.113557	dt-shadow	8	0.013328	60	10	60-180	60	75	GapExp	0	77	2	6	1	target	1	760	620	163945	13.328	13.308	13.359
DTProbeTrack03	13	ProbeTrackDT	1.1	SCS215a	20101124.112820	20101124.113603	dt-shadow	8	0.013328	60	10	60-180	60	128	GapExp	0	78	2	9	0	distractor	1	587	707	164652	13.328	12.973	13.689
DTProbeTrack03	13	ProbeTrackDT	1.1	SCS215a	20101124.112820	20101124.113608	dt-shadow	8	0.013328	60	10	60-180	60	129	GapExp	0	79	2	3	0	distractor	1	614	693	165345	13.328	12.975	13.687
DTProbeTrack03	13	ProbeTrackDT	1.1	SCS215a	20101124.112820	20101124.113614	dt-shadow	8	0.013328	60	10	60-180	60	94	GapExp	0	80	2	6	0	distractor	1	720	640	165985	13.328	13.001	13.651
DTProbeTrack03	13	ProbeTrackDT	1.1	SCS215a	20101124.112820	20101124.113620	dt-shadow	8	0.013328	60	10	60-180	60	127	GapExp	0	81	2	3	1	target	1	587	707	166692	13.328	12.931	13.726
DTProbeTrack03	13	ProbeTrackDT	1.1	SCS215a	20101124.112820	20101124.113625	dt-shadow	8	0.013328	60	10	60-180	60	168	GapExp	0	82	2	6	1	target	1	640	680	167372	13.328	12.929	13.730
DTProbeTrack03	13	ProbeTrackDT	1.1	SCS215a	20101124.112820	20101124.113632	dt-shadow	8	0.013328	60	10	60-180	60	160	GapExp	0	83	2	3	0	distractor	1	827	587	167959	13.328	13.023	13.638
DTProbeTrack03	13	ProbeTrackDT	1.1	SCS215a	20101124.112820	20101124.113638	dt-shadow	8	0.013328	60	10	60-180	60	152	GapExp	0	84	2	45	0	distractor	1	693	654	168613	13.328	12.972	13.688
DTProbeTrack03	13	ProbeTrackDT	1.1	SCS215a	20101124.112820	20101124.113645	dt-shadow	8	0.013328	60	10	60-180	60	136	GapExp	0	85	2	6	0	distractor	1	707	647	169260	13.328	12.979	13.671
DTProbeTrack03	13	ProbeTrackDT	1.1	SCS215a	20101124.112820	20101124.113651	dt-shadow	8	0.013328	60	10	60-180	60	98	GapExp	0	86	2	6	0	distractor	1	947	527	169787	13.328	13.304	13.350
DTProbeTrack03	13	ProbeTrackDT	1.1	SCS215a	20101124.112820	20101124.113657	dt-shadow	8	0.013328	60	10	60-180	60	157	GapExp	0	87	2	3	1	target	1	893	554	170341	13.328	12.885	13.783
DTProbeTrack03	13	ProbeTrackDT	1.1	SCS215a	20101124.112820	20101124.113703	dt-shadow	8	0.013328	60	10	60-180	60	122	GapExp	0	88	2	6	0	distractor	1	613	694	171035	13.328	13.310	13.347
DTProbeTrack03	13	ProbeTrackDT	1.1	SCS215a	20101124.112820	20101124.113709	dt-shadow	8	0.013328	60	10	60-180	60	135	GapExp	0	89	2	1	0	distractor	1	867	567	171602	13.328	13.305	13.346
DTProbeTrack03	13	ProbeTrackDT	1.1	SCS215a	20101124.112820	20101124.113715	dt-shadow	8	0.013328	60	10	60-180	60	84	GapExp	0	90	2	6	0	target	0	1533	-1000	170602	13.328	12.958	13.697
DTProbeTrack03	13	ProbeTrackDT	1.1	SCS215a	20101124.112820	20101124.113721	dt-shadow	8	0.013328	60	10	60-180	60	145	GapExp	0	91	2	9	1	target	1	853	574	171176	13.328	12.854	13.794
DTProbeTrack03	13	ProbeTrackDT	1.1	SCS215a	20101124.112820	20101124.113728	dt-shadow	8	0.013328	60	10	60-180	60	101	GapExp	0	92	2	3	1	target	1	547	727	171903	13.328	13.097	13.552
DTProbeTrack03	13	ProbeTrackDT	1.1	SCS215a	20101124.112820	20101124.113733	dt-shadow	8	0.013328	60	10	60-180	60	91	GapExp	0	93	2	1	1	target	1	587	707	172610	13.328	13.309	13.355
DTProbeTrack03	13	ProbeTrackDT	1.1	SCS215a	20101124.112820	20101124.113738	dt-shadow	8	0.013328	60	10	60-180	60	171	GapExp	0	94	2	1	0	distractor	1	587	707	173317	13.328	12.883	13.775
DTProbeTrack03	13	ProbeTrackDT	1.1	SCS215a	20101124.112820	20101124.113745	dt-shadow	8	0.013328	60	10	60-180	60	105	GapExp	0	95	2	9	1	distractor	0	773	-1000	172317	13.328	13.018	13.630
DTProbeTrack03	13	ProbeTrackDT	1.1	SCS215a	20101124.112820	20101124.113750	dt-shadow	8	0.013328	60	10	60-180	60	121	GapExp	0	96	2	3	1	distractor	0	813	-1000	171317	13.328	12.967	13.678
DTProbeTrack03	13	ProbeTrackDT	1.1	SCS215a	20101124.112820	20101124.113756	dt-shadow	8	0.013328	60	10	60-180	60	151	GapExp	0	97	2	6	0	distractor	1	800	600	171917	13.328	13.102	13.561
DTProbeTrack03	13	ProbeTrackDT	1.1	SCS215a	20101124.112820	20101124.113803	dt-shadow	8	0.013328	60	10	60-180	60	134	GapExp	0	98	2	6	1	distractor	0	1253	-1000	170917	13.328	13.100	13.560
DTProbeTrack03	13	ProbeTrackDT	1.1	SCS215a	20101124.112820	20101124.113809	dt-shadow	8	0.013328	60	10	60-180	60	140	GapExp	0	99	2	45	1	target	1	587	707	171624	13.412	12.960	39.872
DTProbeTrack03	13	ProbeTrackDT	1.1	SCS215a	20101124.112820	20101124.113816	dt-shadow	8	0.013328	60	10	60-180	60	121	GapExp	0	100	2	3	1	target	1	1506	247	171871	13.328	13.101	13.558
DTProbeTrack03	13	ProbeTrackDT	1.1	SCS215a	20101124.112820	20101124.113829	dt-shadow	8	0.013328	60	10	60-180	60	80	GapExp	0	101	2	1	1	target	1	933	534	172405	13.328	12.912	13.749
DTProbeTrack03	13	ProbeTrackDT	1.1	SCS215a	20101124.112820	20101124.113834	dt-shadow	8	0.013328	60	10	60-180	60	118	GapExp	0	102	2	1	0	target	0	693	-1000	171405	13.328	13.310	13.348
DTProbeTrack03	13	ProbeTrackDT	1.1	SCS215a	20101124.112820	20101124.113840	dt-shadow	8	0.013328	60	10	60-180	60	106	GapExp	0	103	2	3	0	distractor	1	733	634	172039	13.328	12.930	13.717
DTProbeTrack03	13	ProbeTrackDT	1.1	SCS215a	20101124.112820	20101124.113846	dt-shadow	8	0.013328	60	10	60-180	60	76	GapExp	0	104	2	45	0	distractor	1	534	733	172772	13.328	13.108	13.552
DTProbeTrack03	13	ProbeTrackDT	1.1	SCS215a	20101124.112820	20101124.113851	dt-shadow	8	0.013328	60	10	60-180	60	83	GapExp	0	105	2	3	0	distractor	1	707	647	173419	13.328	12.865	13.792
DTProbeTrack03	13	ProbeTrackDT	1.1	SCS215a	20101124.112820	20101124.113857	dt-shadow	8	0.013328	60	10	60-180	60	164	GapExp	0	106	2	6	1	target	1	587	707	174126	13.328	13.008	13.649
DTProbeTrack03	13	ProbeTrackDT	1.1	SCS215a	20101124.112820	20101124.113903	dt-shadow	8	0.013328	60	10	60-180	60	82	GapExp	0	107	2	3	1	target	1	813	594	174720	13.328	13.308	13.348
DTProbeTrack03	13	ProbeTrackDT	1.1	SCS215a	20101124.112820	20101124.113908	dt-shadow	8	0.013328	60	10	60-180	60	87	GapExp	0	108	2	45	0	distractor	1	667	667	175387	13.328	13.299	13.351
DTProbeTrack03	13	ProbeTrackDT	1.1	SCS215a	20101124.112820	20101124.113914	dt-shadow	8	0.013328	60	10	60-180	60	82	GapExp	0	109	2	45	1	target	1	574	713	176100	13.328	12.857	13.804
DTProbeTrack03	13	ProbeTrackDT	1.1	SCS215a	20101124.112820	20101124.113920	dt-shadow	8	0.013328	60	10	60-180	60	82	GapExp	0	110	2	1	0	distractor	1	787	607	176707	13.328	13.070	13.585
DTProbeTrack03	13	ProbeTrackDT	1.1	SCS215a	20101124.112820	20101124.113925	dt-shadow	8	0.013328	60	10	60-180	60	119	GapExp	0	111	2	9	0	distractor	1	933	534	177241	13.328	12.953	13.706
DTProbeTrack03	13	ProbeTrackDT	1.1	SCS215a	20101124.112820	20101124.113931	dt-shadow	8	0.013328	60	10	60-180	60	81	GapExp	0	112	2	45	1	target	1	827	587	177828	13.328	13.173	13.496
DTProbeTrack03	13	ProbeTrackDT	1.1	SCS215a	20101124.112820	20101124.113937	dt-shadow	8	0.013328	60	10	60-180	60	171	GapExp	0	113	2	9	1	target	1	1040	480	178308	13.328	12.930	13.708
DTProbeTrack03	13	ProbeTrackDT	1.1	SCS215a	20101124.112820	20101124.113944	dt-shadow	8	0.013328	60	10	60-180	60	141	GapExp	0	114	2	3	1	target	1	560	720	179028	13.328	13.022	13.648
DTProbeTrack03	13	ProbeTrackDT	1.1	SCS215a	20101124.112820	20101124.113950	dt-shadow	8	0.013328	60	10	60-180	60	125	GapExp	0	115	2	9	1	target	1	320	840	179868	13.328	13.308	13.355
DTProbeTrack03	13	ProbeTrackDT	1.1	SCS215a	20101124.112820	20101124.113955	dt-shadow	8	0.013328	60	10	60-180	60	169	GapExp	0	116	2	45	0	distractor	1	613	694	180562	13.328	13.097	13.543
DTProbeTrack03	13	ProbeTrackDT	1.1	SCS215a	20101124.112820	20101124.114002	dt-shadow	8	0.013328	60	10	60-180	60	116	GapExp	0	117	2	6	0	distractor	1	680	660	181222	13.328	12.984	13.675
DTProbeTrack03	13	ProbeTrackDT	1.1	SCS215a	20101124.112820	20101124.114008	dt-shadow	8	0.013328	60	10	60-180	60	141	GapExp	0	118	2	1	0	distractor	1	653	674	181896	13.376	12.875	26.652
DTProbeTrack03	13	ProbeTrackDT	1.1	SCS215a	20101124.112820	20101124.114014	dt-shadow	8	0.013328	60	10	60-180	60	90	GapExp	0	119	2	45	1	target	1	720	640	182536	13.328	13.055	13.612
DTProbeTrack03	13	ProbeTrackDT	1.1	SCS215a	20101124.112820	20101124.114020	dt-shadow	8	0.013328	60	10	60-180	60	164	GapExp	0	120	2	6	1	distractor	0	813	-1000	181536	13.328	12.916	13.714
DTProbeTrack03	13	ProbeTrackDT	1.1	SCS215a	20101124.112820	20101124.114026	dt-shadow	8	0.013328	60	10	60-180	60	69	GapExp	0	121	2	9	1	target	1	840	580	182116	13.328	12.967	13.684
DTProbeTrack03	13	ProbeTrackDT	1.1	SCS215a	20101124.112820	20101124.114032	dt-shadow	8	0.013328	60	10	60-180	60	83	GapExp	0	122	2	9	0	distractor	1	813	594	182710	13.328	13.308	13.358
DTProbeTrack03	13	ProbeTrackDT	1.1	SCS215a	20101124.112820	20101124.114037	dt-shadow	8	0.013328	60	10	60-180	60	157	GapExp	0	123	2	45	1	target	1	534	733	183443	13.328	13.116	13.544
DTProbeTrack03	13	ProbeTrackDT	1.1	SCS215a	20101124.112820	20101124.114044	dt-shadow	8	0.013328	60	10	60-180	60	99	GapExp	0	124	2	6	0	distractor	1	813	594	184037	13.328	12.897	13.771
DTProbeTrack03	13	ProbeTrackDT	1.1	SCS215a	20101124.112820	20101124.114050	dt-shadow	8	0.013328	60	10	60-180	60	153	GapExp	0	125	2	3	0	distractor	1	667	667	184704	13.328	13.018	13.643
DTProbeTrack03	13	ProbeTrackDT	1.1	SCS215a	20101124.112820	20101124.114056	dt-shadow	8	0.013328	60	10	60-180	60	76	GapExp	0	126	2	3	0	target	0	1093	-1000	183704	13.328	12.945	13.704
DTProbeTrack03	13	ProbeTrackDT	1.1	SCS215a	20101124.112820	20101124.114101	dt-shadow	8	0.013328	60	10	60-180	60	139	GapExp	0	127	2	6	1	target	1	1293	354	184058	13.328	13.134	13.523
DTProbeTrack03	13	ProbeTrackDT	1.1	SCS215a	20101124.112820	20101124.114108	dt-shadow	8	0.013328	60	10	60-180	60	72	GapExp	0	128	2	3	1	target	1	600	700	184758	13.328	13.307	13.344
DTProbeTrack03	13	ProbeTrackDT	1.1	SCS215a	20101124.112820	20101124.114113	dt-shadow	8	0.013328	60	10	60-180	60	157	GapExp	0	129	2	3	0	distractor	1	680	660	185418	13.328	12.935	13.729
DTProbeTrack03	13	ProbeTrackDT	1.1	SCS215a	20101124.112820	20101124.114119	dt-shadow	8	0.013328	60	10	60-180	60	114	GapExp	0	130	2	45	1	target	1	1120	440	185858	13.328	12.930	13.739
DTProbeTrack03	13	ProbeTrackDT	1.1	SCS215a	20101124.112820	20101124.114126	dt-shadow	8	0.013328	60	10	60-180	60	158	GapExp	0	131	2	3	0	distractor	1	547	727	186585	13.328	13.122	13.532
DTProbeTrack03	13	ProbeTrackDT	1.1	SCS215a	20101124.112820	20101124.114132	dt-shadow	8	0.013328	60	10	60-180	60	154	GapExp	0	132	2	1	0	distractor	1	1826	87	186672	13.328	12.879	13.767
DTProbeTrack03	13	ProbeTrackDT	1.1	SCS215a	20101124.112820	20101124.114139	dt-shadow	8	0.013328	60	10	60-180	60	120	GapExp	0	133	2	1	1	target	1	893	554	187226	13.328	13.109	13.560
DTProbeTrack03	13	ProbeTrackDT	1.1	SCS215a	20101124.112820	20101124.114145	dt-shadow	8	0.013328	60	10	60-180	60	175	GapExp	0	134	2	6	1	target	1	467	767	187993	13.328	13.059	13.606
DTProbeTrack03	13	ProbeTrackDT	1.1	SCS215a	20101124.112820	20101124.114152	dt-shadow	8	0.013328	60	10	60-180	60	100	GapExp	0	135	2	3	1	target	1	680	660	188653	13.328	13.033	13.617
DTProbeTrack03	13	ProbeTrackDT	1.1	SCS215a	20101124.112820	20101124.114157	dt-shadow	8	0.013328	60	10	60-180	60	81	GapExp	0	136	2	3	0	distractor	1	1386	307	188960	13.328	13.242	13.422
DTProbeTrack03	13	ProbeTrackDT	1.1	SCS215a	20101124.112820	20101124.114203	dt-shadow	8	0.013328	60	10	60-180	60	170	GapExp	0	137	2	6	0	distractor	1	773	614	189574	13.328	12.915	13.742
DTProbeTrack03	13	ProbeTrackDT	1.1	SCS215a	20101124.112820	20101124.114210	dt-shadow	8	0.013328	60	10	60-180	60	80	GapExp	0	138	2	6	1	target	1	1013	494	190068	13.328	12.911	13.749
DTProbeTrack03	13	ProbeTrackDT	1.1	SCS215a	20101124.112820	20101124.114215	dt-shadow	8	0.013328	60	10	60-180	60	123	GapExp	0	139	2	9	0	distractor	1	720	640	190708	13.328	12.989	13.539
DTProbeTrack03	13	ProbeTrackDT	1.1	SCS215a	20101124.112820	20101124.114221	dt-shadow	8	0.013328	60	10	60-180	60	95	GapExp	0	140	2	6	0	distractor	1	827	587	191295	13.328	13.111	13.545
DTProbeTrack03	13	ProbeTrackDT	1.1	SCS215a	20101124.112820	20101124.114227	dt-shadow	8	0.013328	60	10	60-180	60	153	GapExp	0	141	2	1	1	target	1	1053	474	191769	13.328	12.919	13.749
DTProbeTrack03	13	ProbeTrackDT	1.1	SCS215a	20101124.112820	20101124.114233	dt-shadow	8	0.013328	60	10	60-180	60	142	GapExp	0	142	2	1	0	target	0	1093	-1000	190769	13.328	13.057	13.603
DTProbeTrack03	13	ProbeTrackDT	1.1	SCS215a	20101124.112820	20101124.114240	dt-shadow	8	0.013328	60	10	60-180	60	146	GapExp	0	143	2	6	0	distractor	1	547	727	191496	13.328	12.860	13.784
DTProbeTrack03	13	ProbeTrackDT	1.1	SCS215a	20101124.112820	20101124.114246	dt-shadow	8	0.013328	60	10	60-180	60	69	GapExp	0	144	2	1	0	distractor	1	667	667	192163	13.328	13.289	13.350
DTProbeTrack03	13	ProbeTrackDT	1.1	SCS215a	20101124.112820	20101124.114251	dt-shadow	8	0.013328	60	10	60-180	60	87	GapExp	0	145	2	3	0	target	0	1240	-1000	191163	13.328	13.108	13.552
DTProbeTrack03	13	ProbeTrackDT	1.1	SCS215a	20101124.112820	20101124.114257	dt-shadow	8	0.013328	60	10	60-180	60	165	GapExp	0	146	2	9	0	distractor	1	693	654	191817	13.328	12.873	13.783
DTProbeTrack03	13	ProbeTrackDT	1.1	SCS215a	20101124.112820	20101124.114303	dt-shadow	8	0.013328	60	10	60-180	60	64	GapExp	0	147	2	6	1	distractor	0	614	-1000	190817	13.328	12.996	13.661
DTProbeTrack03	13	ProbeTrackDT	1.1	SCS215a	20101124.112820	20101124.114308	dt-shadow	8	0.013328	60	10	60-180	60	102	GapExp	0	148	2	1	0	distractor	1	880	560	191377	13.328	12.885	13.778
DTProbeTrack03	13	ProbeTrackDT	1.1	SCS215a	20101124.112820	20101124.114314	dt-shadow	8	0.013328	60	10	60-180	60	105	GapExp	0	149	2	1	1	target	1	507	747	192124	13.328	13.310	13.345
DTProbeTrack03	13	ProbeTrackDT	1.1	SCS215a	20101124.112820	20101124.114319	dt-shadow	8	0.013328	60	10	60-180	60	61	GapExp	0	150	2	45	0	distractor	1	747	627	192751	13.328	12.844	13.814
DTProbeTrack03	13	ProbeTrackDT	1.1	SCS215a	20101124.112820	20101124.114330	dt-shadow	8	0.013328	60	10	60-180	60	107	GapExp	0	151	2	6	0	distractor	1	600	700	193451	13.328	13.308	13.345
DTProbeTrack03	13	ProbeTrackDT	1.1	SCS215a	20101124.112820	20101124.114335	dt-shadow	8	0.013328	60	10	60-180	60	67	GapExp	0	152	2	3	0	distractor	1	747	627	194078	13.328	12.987	13.675
DTProbeTrack03	13	ProbeTrackDT	1.1	SCS215a	20101124.112820	20101124.114341	dt-shadow	8	0.013328	60	10	60-180	60	158	GapExp	0	153	2	9	1	target	1	760	620	194698	13.328	13.103	13.553
DTProbeTrack03	13	ProbeTrackDT	1.1	SCS215a	20101124.112820	20101124.114347	dt-shadow	8	0.013328	60	10	60-180	60	168	GapExp	0	154	2	45	0	distractor	1	573	714	195412	13.328	12.860	13.783
DTProbeTrack03	13	ProbeTrackDT	1.1	SCS215a	20101124.112820	20101124.114354	dt-shadow	8	0.013328	60	10	60-180	60	94	GapExp	0	155	2	45	1	target	1	614	693	196105	13.328	13.101	13.564
DTProbeTrack03	13	ProbeTrackDT	1.1	SCS215a	20101124.112820	20101124.114400	dt-shadow	8	0.013328	60	10	60-180	60	95	GapExp	0	156	2	45	0	distractor	1	1626	187	196292	13.750	12.916	40.335
DTProbeTrack03	13	ProbeTrackDT	1.1	SCS215a	20101124.112820	20101124.114407	dt-shadow	8	0.013328	60	10	60-180	60	97	GapExp	0	157	2	45	0	distractor	1	600	700	196992	13.328	13.097	13.567
DTProbeTrack03	13	ProbeTrackDT	1.1	SCS215a	20101124.112820	20101124.114413	dt-shadow	8	0.013328	60	10	60-180	60	148	GapExp	0	158	2	9	0	distractor	1	587	707	197699	13.328	13.155	13.511
DTProbeTrack03	13	ProbeTrackDT	1.1	SCS215a	20101124.112820	20101124.114419	dt-shadow	8	0.013328	60	10	60-180	60	135	GapExp	0	159	2	45	1	target	1	600	700	198399	13.328	13.082	13.579
DTProbeTrack03	13	ProbeTrackDT	1.1	SCS215a	20101124.112820	20101124.114425	dt-shadow	8	0.013328	60	10	60-180	60	153	GapExp	0	160	2	3	1	target	1	547	727	199126	13.421	12.852	39.725
DTProbeTrack03	13	ProbeTrackDT	1.1	SCS215a	20101124.112820	20101124.114431	dt-shadow	8	0.013328	60	10	60-180	60	131	GapExp	0	161	2	45	1	target	1	480	760	199886	13.328	12.920	13.736
DTProbeTrack03	13	ProbeTrackDT	1.1	SCS215a	20101124.112820	20101124.114438	dt-shadow	8	0.013328	60	10	60-180	60	83	GapExp	0	162	2	3	0	distractor	1	600	700	200586	13.328	12.882	13.776
DTProbeTrack03	13	ProbeTrackDT	1.1	SCS215a	20101124.112820	20101124.114443	dt-shadow	8	0.013328	60	10	60-180	60	164	GapExp	0	163	2	45	0	distractor	1	547	727	201313	13.328	12.925	13.731
DTProbeTrack03	13	ProbeTrackDT	1.1	SCS215a	20101124.112820	20101124.114450	dt-shadow	8	0.013328	60	10	60-180	60	102	GapExp	0	164	2	45	0	distractor	1	907	547	201860	13.328	12.872	13.776
DTProbeTrack03	13	ProbeTrackDT	1.1	SCS215a	20101124.112820	20101124.114456	dt-shadow	8	0.013328	60	10	60-180	60	174	GapExp	0	165	2	6	1	target	1	480	760	202620	13.328	12.847	13.809
DTProbeTrack03	13	ProbeTrackDT	1.1	SCS215a	20101124.112820	20101124.114502	dt-shadow	8	0.013328	60	10	60-180	60	159	GapExp	0	166	2	9	1	target	1	560	720	203340	13.328	12.913	13.748
DTProbeTrack03	13	ProbeTrackDT	1.1	SCS215a	20101124.112820	20101124.114509	dt-shadow	8	0.013328	60	10	60-180	60	176	GapExp	0	167	2	9	1	target	1	693	654	203994	13.328	12.874	13.765
DTProbeTrack03	13	ProbeTrackDT	1.1	SCS215a	20101124.112820	20101124.114515	dt-shadow	8	0.013328	60	10	60-180	60	156	GapExp	0	168	2	9	0	distractor	1	827	587	204581	13.328	12.873	13.783
DTProbeTrack03	13	ProbeTrackDT	1.1	SCS215a	20101124.112820	20101124.114522	dt-shadow	8	0.013328	60	10	60-180	60	80	GapExp	0	169	2	1	1	target	1	561	720	205301	13.328	12.893	13.750
DTProbeTrack03	13	ProbeTrackDT	1.1	SCS215a	20101124.112820	20101124.114527	dt-shadow	8	0.013328	60	10	60-180	60	110	GapExp	0	170	2	1	0	distractor	1	733	634	205935	13.328	12.925	13.727
DTProbeTrack03	13	ProbeTrackDT	1.1	SCS215a	20101124.112820	20101124.114532	dt-shadow	8	0.013328	60	10	60-180	60	171	GapExp	0	171	2	9	1	target	1	467	767	206702	13.328	12.922	13.736
DTProbeTrack03	13	ProbeTrackDT	1.1	SCS215a	20101124.112820	20101124.114539	dt-shadow	8	0.013328	60	10	60-180	60	76	GapExp	0	172	2	1	1	target	1	614	693	207395	13.328	12.895	13.766
DTProbeTrack03	13	ProbeTrackDT	1.1	SCS215a	20101124.112820	20101124.114544	dt-shadow	8	0.013328	60	10	60-180	60	125	GapExp	0	173	2	1	1	target	1	1187	407	207802	13.328	12.868	13.790
DTProbeTrack03	13	ProbeTrackDT	1.1	SCS215a	20101124.112820	20101124.114550	dt-shadow	8	0.013328	60	10	60-180	60	157	GapExp	0	174	2	9	1	target	1	454	773	208575	13.328	12.960	13.699
DTProbeTrack03	13	ProbeTrackDT	1.1	SCS215a	20101124.112820	20101124.114556	dt-shadow	8	0.013328	60	10	60-180	60	112	GapExp	0	175	2	45	1	target	1	454	773	209348	13.328	12.946	13.714
DTProbeTrack03	13	ProbeTrackDT	1.1	SCS215a	20101124.112820	20101124.114602	dt-shadow	8	0.013328	60	10	60-180	60	159	GapExp	0	176	2	45	1	target	1	440	780	210128	13.328	12.874	13.778
DTProbeTrack03	13	ProbeTrackDT	1.1	SCS215a	20101124.112820	20101124.114609	dt-shadow	8	0.013328	60	10	60-180	60	109	GapExp	0	177	2	3	1	target	1	421	790	210918	13.328	12.833	13.814
DTProbeTrack03	13	ProbeTrackDT	1.1	SCS215a	20101124.112820	20101124.114614	dt-shadow	8	0.013328	60	10	60-180	60	61	GapExp	0	178	2	3	0	distractor	1	773	614	211532	13.328	12.931	13.737
DTProbeTrack03	13	ProbeTrackDT	1.1	SCS215a	20101124.112820	20101124.114619	dt-shadow	8	0.013328	60	10	60-180	60	77	GapExp	0	179	2	45	1	target	1	520	740	212272	13.328	12.955	13.682
DTProbeTrack03	13	ProbeTrackDT	1.1	SCS215a	20101124.112820	20101124.114625	dt-shadow	8	0.013328	60	10	60-180	60	88	GapExp	0	180	2	9	0	distractor	1	640	680	212952	13.328	12.874	13.794
DTProbeTrack03	13	ProbeTrackDT	1.1	SCS215a	20101124.112820	20101124.114630	dt-shadow	8	0.013328	60	10	60-180	60	104	GapExp	0	181	2	6	1	target	1	787	607	213559	13.328	12.924	13.738
DTProbeTrack03	13	ProbeTrackDT	1.1	SCS215a	20101124.112820	20101124.114636	dt-shadow	8	0.013328	60	10	60-180	60	174	GapExp	0	182	2	3	1	target	1	680	660	214219	13.328	12.889	13.767
DTProbeTrack03	13	ProbeTrackDT	1.1	SCS215a	20101124.112820	20101124.114642	dt-shadow	8	0.013328	60	10	60-180	60	136	GapExp	0	183	2	1	1	target	1	987	507	214726	13.328	12.869	13.774
DTProbeTrack03	13	ProbeTrackDT	1.1	SCS215a	20101124.112820	20101124.114649	dt-shadow	8	0.013328	60	10	60-180	60	95	GapExp	0	184	2	45	1	target	1	534	733	215459	13.328	12.888	13.769
DTProbeTrack03	13	ProbeTrackDT	1.1	SCS215a	20101124.112820	20101124.114655	dt-shadow	8	0.013328	60	10	60-180	60	167	GapExp	0	185	2	3	1	target	1	507	747	216206	13.328	12.952	13.750
DTProbeTrack03	13	ProbeTrackDT	1.1	SCS215a	20101124.112820	20101124.114701	dt-shadow	8	0.013328	60	10	60-180	60	100	GapExp	0	186	2	6	1	target	1	467	767	216973	13.328	12.903	13.760
DTProbeTrack03	13	ProbeTrackDT	1.1	SCS215a	20101124.112820	20101124.114706	dt-shadow	8	0.013328	60	10	60-180	60	118	GapExp	0	187	2	6	0	distractor	1	667	667	217640	13.328	12.932	13.723
DTProbeTrack03	13	ProbeTrackDT	1.1	SCS215a	20101124.112820	20101124.114712	dt-shadow	8	0.013328	60	10	60-180	60	118	GapExp	0	188	2	6	0	distractor	1	467	767	218407	13.328	12.897	13.755
DTProbeTrack03	13	ProbeTrackDT	1.1	SCS215a	20101124.112820	20101124.114717	dt-shadow	8	0.013328	60	10	60-180	60	84	GapExp	0	189	2	1	1	distractor	0	720	-1000	217407	13.328	12.882	13.776
DTProbeTrack03	13	ProbeTrackDT	1.1	SCS215a	20101124.112820	20101124.114723	dt-shadow	8	0.013328	60	10	60-180	60	164	GapExp	0	190	2	9	1	target	1	240	880	218287	13.328	13.030	13.622
DTProbeTrack03	13	ProbeTrackDT	1.1	SCS215a	20101124.112820	20101124.114729	dt-shadow	8	0.013328	60	10	60-180	60	106	GapExp	0	191	2	9	1	target	1	627	687	218974	13.328	12.897	13.746
DTProbeTrack03	13	ProbeTrackDT	1.1	SCS215a	20101124.112820	20101124.114734	dt-shadow	8	0.013328	60	10	60-180	60	125	GapExp	0	192	2	9	0	distractor	1	626	687	219661	13.328	12.859	13.797
DTProbeTrack03	13	ProbeTrackDT	1.1	SCS215a	20101124.112820	20101124.114740	dt-shadow	8	0.013328	60	10	60-180	60	151	GapExp	0	193	2	3	0	distractor	1	600	700	220361	13.328	12.850	13.813
DTProbeTrack03	13	ProbeTrackDT	1.1	SCS215a	20101124.112820	20101124.114746	dt-shadow	8	0.013328	60	10	60-180	60	73	GapExp	0	194	2	45	0	distractor	1	507	747	221108	13.328	12.973	13.689
DTProbeTrack03	13	ProbeTrackDT	1.1	SCS215a	20101124.112820	20101124.114752	dt-shadow	8	0.013328	60	10	60-180	60	134	GapExp	0	195	2	6	0	distractor	1	587	707	221815	13.328	12.869	13.801
DTProbeTrack03	13	ProbeTrackDT	1.1	SCS215a	20101124.112820	20101124.114758	dt-shadow	8	0.013328	60	10	60-180	60	103	GapExp	0	196	2	9	1	target	1	520	740	222555	13.326	12.879	13.694
DTProbeTrack03	13	ProbeTrackDT	1.1	SCS215a	20101124.112820	20101124.114803	dt-shadow	8	0.013328	60	10	60-180	60	174	GapExp	0	197	2	6	1	target	1	360	820	223375	13.328	12.957	13.702
DTProbeTrack03	13	ProbeTrackDT	1.1	SCS215a	20101124.112820	20101124.114809	dt-shadow	8	0.013328	60	10	60-180	60	103	GapExp	0	198	2	3	0	distractor	1	520	740	224115	13.328	12.914	13.740
DTProbeTrack03	13	ProbeTrackDT	1.1	SCS215a	20101124.112820	20101124.114815	dt-shadow	8	0.013328	60	10	60-180	60	109	GapExp	0	199	2	6	0	distractor	1	574	713	224828	13.328	12.896	13.783
DTProbeTrack03	13	ProbeTrackDT	1.1	SCS215a	20101124.112820	20101124.114820	dt-shadow	8	0.013328	60	10	60-180	60	156	GapExp	0	200	2	3	0	distractor	1	640	680	225508	13.328	12.910	13.736
DTProbeTrack03	13	ProbeTrackDT	1.1	SCS215a	20101124.112820	20101124.114832	dt-shadow	8	0.013328	60	10	60-180	60	101	GapExp	0	201	2	45	0	distractor	1	667	667	226175	13.328	13.077	13.577
DTProbeTrack03	13	ProbeTrackDT	1.1	SCS215a	20101124.112820	20101124.114838	dt-shadow	8	0.013328	60	10	60-180	60	77	GapExp	0	202	2	9	1	target	1	494	753	226928	13.328	12.889	13.765
DTProbeTrack03	13	ProbeTrackDT	1.1	SCS215a	20101124.112820	20101124.114843	dt-shadow	8	0.013328	60	10	60-180	60	84	GapExp	0	203	2	1	0	distractor	1	614	693	227621	13.328	12.857	13.797
DTProbeTrack03	13	ProbeTrackDT	1.1	SCS215a	20101124.112820	20101124.114848	dt-shadow	8	0.013328	60	10	60-180	60	64	GapExp	0	204	2	9	1	target	1	440	780	228401	13.328	12.903	13.755
DTProbeTrack03	13	ProbeTrackDT	1.1	SCS215a	20101124.112820	20101124.114853	dt-shadow	8	0.013328	60	10	60-180	60	118	GapExp	0	205	2	1	0	distractor	1	654	673	229074	13.328	13.064	13.581
DTProbeTrack03	13	ProbeTrackDT	1.1	SCS215a	20101124.115131	20101124.115135	dt-generate	8	0.013328	60	10	60-180	60	143	GapPrac	1	1	2	1	0	target	0	627	-1000	228074	13.328	13.094	13.575
DTProbeTrack03	13	ProbeTrackDT	1.1	SCS215a	20101124.115131	20101124.115141	dt-generate	8	0.013328	60	10	60-180	60	95	GapPrac	1	2	2	6	0	distractor	1	1200	400	228474	13.328	13.096	13.569
DTProbeTrack03	13	ProbeTrackDT	1.1	SCS215a	20101124.115131	20101124.115147	dt-generate	8	0.013328	60	10	60-180	60	164	GapPrac	1	3	2	3	1	target	1	667	667	229141	13.328	13.082	13.644
DTProbeTrack03	13	ProbeTrackDT	1.1	SCS215a	20101124.115131	20101124.115154	dt-generate	8	0.013328	60	10	60-180	60	67	GapPrac	1	4	2	9	1	target	1	614	693	229834	13.328	13.307	13.347
DTProbeTrack03	13	ProbeTrackDT	1.1	SCS215a	20101124.115131	20101124.115159	dt-generate	8	0.013328	60	10	60-180	60	83	GapPrac	1	5	2	3	1	target	1	680	660	230494	13.328	13.071	13.571
DTProbeTrack03	13	ProbeTrackDT	1.1	SCS215a	20101124.115131	20101124.115204	dt-generate	8	0.013328	60	10	60-180	60	95	GapPrac	1	6	2	3	0	distractor	1	973	514	231008	13.328	13.305	13.349
DTProbeTrack03	13	ProbeTrackDT	1.1	SCS215a	20101124.115131	20101124.115209	dt-generate	8	0.013328	60	10	60-180	60	74	GapPrac	1	7	2	9	1	target	1	760	620	231628	13.328	13.087	13.560
DTProbeTrack03	13	ProbeTrackDT	1.1	SCS215a	20101124.115131	20101124.115215	dt-generate	8	0.013328	60	10	60-180	60	106	GapPrac	1	8	2	45	1	target	1	2040	0	231628	13.328	13.003	13.662
DTProbeTrack03	13	ProbeTrackDT	1.1	SCS215a	20101124.115131	20101124.115222	dt-generate	8	0.013328	60	10	60-180	60	88	GapPrac	1	9	2	6	0	distractor	1	1640	180	231808	13.329	13.307	13.542
DTProbeTrack03	13	ProbeTrackDT	1.1	SCS215a	20101124.115131	20101124.115229	dt-generate	8	0.013328	60	10	60-180	60	159	GapPrac	1	10	2	1	1	distractor	0	1986	-1000	230808	13.328	13.088	13.570
DTProbeTrack03	13	ProbeTrackDT	1.1	SCS215a	20101124.115131	20101124.115236	dt-generate	8	0.013328	60	10	60-180	60	177	GapPrac	1	11	2	9	0	distractor	1	1760	120	230928	13.328	12.967	13.684
DTProbeTrack03	13	ProbeTrackDT	1.1	SCS215a	20101124.115131	20101124.115244	dt-generate	8	0.013328	60	10	60-180	60	145	GapPrac	1	12	2	1	0	target	0	1600	-1000	229928	13.328	12.871	13.791
DTProbeTrack03	13	ProbeTrackDT	1.1	SCS215a	20101124.115131	20101124.115251	dt-generate	8	0.013328	60	10	60-180	60	105	GapPrac	1	13	2	3	0	distractor	1	600	700	230628	13.328	13.099	13.552
DTProbeTrack03	13	ProbeTrackDT	1.1	SCS215a	20101124.115131	20101124.115256	dt-generate	8	0.013328	60	10	60-180	60	113	GapPrac	1	14	2	45	1	target	1	1053	474	231102	13.328	12.861	13.810
DTProbeTrack03	13	ProbeTrackDT	1.1	SCS215a	20101124.115131	20101124.115303	dt-generate	8	0.013328	60	10	60-180	60	135	GapPrac	1	15	2	45	0	distractor	1	1013	494	231596	13.410	12.873	26.625
DTProbeTrack03	13	ProbeTrackDT	1.1	SCS215a	20101124.115131	20101124.115310	dt-generate	8	0.013328	60	10	60-180	60	117	GapPrac	1	16	2	9	0	target	0	893	-1000	230596	13.328	13.008	13.656
DTProbeTrack03	13	ProbeTrackDT	1.1	SCS215a	20101124.115131	20101124.115316	dt-generate	8	0.013328	60	10	60-180	60	91	GapPrac	1	17	2	6	1	distractor	0	2199	-1000	229596	13.328	12.982	13.587
DTProbeTrack03	13	ProbeTrackDT	1.1	SCS215a	20101124.115131	20101124.115322	dt-generate	8	0.013328	60	10	60-180	60	72	GapPrac	1	18	2	6	1	target	1	960	520	230116	13.328	13.238	13.411
DTProbeTrack03	13	ProbeTrackDT	1.1	SCS215a	20101124.115131	20101124.115328	dt-generate	8	0.013328	60	10	60-180	60	131	GapPrac	1	19	2	1	1	target	1	733	634	230750	13.328	13.104	13.537
DTProbeTrack03	13	ProbeTrackDT	1.1	SCS215a	20101124.115131	20101124.115334	dt-generate	8	0.013328	60	10	60-180	60	108	GapPrac	1	20	2	45	0	distractor	1	867	567	231317	13.328	13.089	13.556
DTProbeTrack03	13	ProbeTrackDT	1.1	SCS215a	20101124.115414	20101124.115418	dt-generate	8	0.013328	60	10	60-180	60	109	GapExp	1	1	2	9	1	target	1	747	627	231944	13.328	12.867	13.801
DTProbeTrack03	13	ProbeTrackDT	1.1	SCS215a	20101124.115414	20101124.115423	dt-generate	8	0.013328	60	10	60-180	60	154	GapExp	1	2	2	45	1	distractor	0	933	-1000	230944	13.328	13.117	13.543
DTProbeTrack03	13	ProbeTrackDT	1.1	SCS215a	20101124.115414	20101124.115430	dt-generate	8	0.013328	60	10	60-180	60	106	GapExp	1	3	2	3	1	target	1	467	767	231711	13.328	12.948	13.722
DTProbeTrack03	13	ProbeTrackDT	1.1	SCS215a	20101124.115414	20101124.115436	dt-generate	8	0.013328	60	10	60-180	60	94	GapExp	1	4	2	1	1	distractor	0	893	-1000	230711	13.328	13.094	13.555
DTProbeTrack03	13	ProbeTrackDT	1.1	SCS215a	20101124.115414	20101124.115441	dt-generate	8	0.013328	60	10	60-180	60	91	GapExp	1	5	2	3	0	distractor	1	840	580	231291	13.328	13.302	13.357
DTProbeTrack03	13	ProbeTrackDT	1.1	SCS215a	20101124.115414	20101124.115447	dt-generate	8	0.013328	60	10	60-180	60	117	GapExp	0	6	2	1	1	target	1	1253	374	231665	13.328	13.285	13.377
DTProbeTrack03	13	ProbeTrackDT	1.1	SCS215a	20101124.115414	20101124.115453	dt-generate	8	0.013328	60	10	60-180	60	150	GapExp	0	7	2	45	0	distractor	1	667	667	232332	13.328	13.301	13.360
DTProbeTrack03	13	ProbeTrackDT	1.1	SCS215a	20101124.115414	20101124.115500	dt-generate	8	0.013328	60	10	60-180	60	164	GapExp	0	8	2	6	0	distractor	1	2226	0	232332	13.328	12.883	13.767
DTProbeTrack03	13	ProbeTrackDT	1.1	SCS215a	20101124.115414	20101124.115507	dt-generate	8	0.013328	60	10	60-180	60	98	GapExp	0	9	2	9	1	distractor	0	1893	-1000	231332	13.328	12.976	13.676
DTProbeTrack03	13	ProbeTrackDT	1.1	SCS215a	20101124.115414	20101124.115514	dt-generate	8	0.013328	60	10	60-180	60	78	GapExp	0	10	2	45	1	target	1	1373	314	231646	13.328	13.296	13.370
DTProbeTrack03	13	ProbeTrackDT	1.1	SCS215a	20101124.115414	20101124.115521	dt-generate	8	0.013328	60	10	60-180	60	137	GapExp	0	11	2	45	1	distractor	0	574	-1000	230646	13.328	12.977	13.674
DTProbeTrack03	13	ProbeTrackDT	1.1	SCS215a	20101124.115414	20101124.115527	dt-generate	8	0.013328	60	10	60-180	60	159	GapExp	0	12	2	9	1	target	1	880	560	231206	13.328	13.153	13.504
DTProbeTrack03	13	ProbeTrackDT	1.1	SCS215a	20101124.115414	20101124.115534	dt-generate	8	0.013328	60	10	60-180	60	169	GapExp	0	13	2	3	1	distractor	0	1586	-1000	230206	13.328	12.973	13.677
DTProbeTrack03	13	ProbeTrackDT	1.1	SCS215a	20101124.115414	20101124.115541	dt-generate	8	0.013328	60	10	60-180	60	124	GapExp	0	14	2	3	0	target	0	3319	-1000	229206	13.328	13.093	13.583
DTProbeTrack03	13	ProbeTrackDT	1.1	SCS215a	20101124.115414	20101124.115549	dt-generate	8	0.013328	60	10	60-180	60	142	GapExp	0	15	2	9	1	target	1	2146	0	229206	13.328	12.990	13.664
DTProbeTrack03	13	ProbeTrackDT	1.1	SCS215a	20101124.115414	20101124.115557	dt-generate	8	0.013328	60	10	60-180	60	74	GapExp	0	16	2	6	0	distractor	1	853	574	229780	13.328	13.075	13.595
DTProbeTrack03	13	ProbeTrackDT	1.1	SCS215a	20101124.115414	20101124.115602	dt-generate	8	0.013328	60	10	60-180	60	145	GapExp	0	17	2	3	1	target	1	733	634	230414	13.328	13.115	13.545
DTProbeTrack03	13	ProbeTrackDT	1.1	SCS215a	20101124.115414	20101124.115608	dt-generate	8	0.013328	60	10	60-180	60	95	GapExp	0	18	2	9	1	target	1	2839	0	230414	13.328	13.103	13.552
DTProbeTrack03	13	ProbeTrackDT	1.1	SCS215a	20101124.115414	20101124.115616	dt-generate	8	0.013328	60	10	60-180	60	76	GapExp	0	19	2	6	0	distractor	1	680	660	231074	13.388	12.900	27.078
DTProbeTrack03	13	ProbeTrackDT	1.1	SCS215a	20101124.115414	20101124.115621	dt-generate	8	0.013328	60	10	60-180	60	121	GapExp	0	20	2	3	0	distractor	1	667	667	231741	13.328	13.086	13.560
DTProbeTrack03	13	ProbeTrackDT	1.1	SCS215a	20101124.115414	20101124.115627	dt-generate	8	0.013328	60	10	60-180	60	67	GapExp	0	21	2	6	0	target	0	1960	-1000	230741	13.328	13.306	13.354
DTProbeTrack03	13	ProbeTrackDT	1.1	SCS215a	20101124.115414	20101124.115633	dt-generate	8	0.013328	60	10	60-180	60	148	GapExp	0	22	2	9	0	distractor	1	1400	300	231041	13.328	12.991	13.658
DTProbeTrack03	13	ProbeTrackDT	1.1	SCS215a	20101124.115414	20101124.115640	dt-generate	8	0.013328	60	10	60-180	60	146	GapExp	0	23	2	3	1	target	1	800	600	231641	13.328	13.305	13.347
DTProbeTrack03	13	ProbeTrackDT	1.1	SCS215a	20101124.115414	20101124.115646	dt-generate	8	0.013328	60	10	60-180	60	162	GapExp	0	24	2	3	1	distractor	0	1626	-1000	230641	13.328	13.085	13.573
DTProbeTrack03	13	ProbeTrackDT	1.1	SCS215a	20101124.115414	20101124.115654	dt-generate	8	0.013328	60	10	60-180	60	159	GapExp	0	25	2	45	1	target	1	3279	0	230641	13.328	13.280	13.370
DTProbeTrack03	13	ProbeTrackDT	1.1	SCS215a	20101124.115414	20101124.115703	dt-generate	8	0.013328	60	10	60-180	60	127	GapExp	0	26	2	1	0	distractor	1	773	614	231255	13.328	13.308	13.358
DTProbeTrack03	13	ProbeTrackDT	1.1	SCS215a	20101124.115414	20101124.115709	dt-generate	8	0.013328	60	10	60-180	60	143	GapExp	0	27	2	1	0	distractor	1	773	614	231869	13.328	12.955	13.714
DTProbeTrack03	13	ProbeTrackDT	1.1	SCS215a	20101124.115414	20101124.115715	dt-generate	8	0.013328	60	10	60-180	60	132	GapExp	0	28	2	6	0	distractor	1	707	647	232516	13.328	12.996	13.662
DTProbeTrack03	13	ProbeTrackDT	1.1	SCS215a	20101124.115414	20101124.115721	dt-generate	8	0.013328	60	10	60-180	60	180	GapExp	0	29	2	45	0	distractor	1	560	720	233236	13.328	13.308	13.359
DTProbeTrack03	13	ProbeTrackDT	1.1	SCS215a	20101124.115414	20101124.115728	dt-generate	8	0.013328	60	10	60-180	60	157	GapExp	0	30	2	6	1	target	1	973	514	233750	13.328	13.309	13.351
DTProbeTrack03	13	ProbeTrackDT	1.1	SCS215a	20101124.115414	20101124.115735	dt-generate	8	0.013328	60	10	60-180	60	68	GapExp	0	31	2	3	1	target	1	947	527	234277	13.328	13.121	13.490
DTProbeTrack03	13	ProbeTrackDT	1.1	SCS215a	20101124.115414	20101124.115740	dt-generate	8	0.013328	60	10	60-180	60	64	GapExp	0	32	2	3	0	distractor	1	2013	0	234277	13.328	13.302	13.354
DTProbeTrack03	13	ProbeTrackDT	1.1	SCS215a	20101124.115414	20101124.115746	dt-generate	8	0.013328	60	10	60-180	60	86	GapExp	0	33	2	45	1	target	1	707	647	234924	13.328	12.859	13.801
DTProbeTrack03	13	ProbeTrackDT	1.1	SCS215a	20101124.115414	20101124.115752	dt-generate	8	0.013328	60	10	60-180	60	158	GapExp	0	34	2	6	1	target	1	1813	94	235018	13.328	13.072	13.589
DTProbeTrack03	13	ProbeTrackDT	1.1	SCS215a	20101124.115414	20101124.115759	dt-generate	8	0.013328	60	10	60-180	60	160	GapExp	0	35	2	9	1	target	1	520	740	235758	13.328	13.089	13.564
DTProbeTrack03	13	ProbeTrackDT	1.1	SCS215a	20101124.115414	20101124.115806	dt-generate	8	0.013328	60	10	60-180	60	113	GapExp	0	36	2	9	1	target	1	467	767	236525	13.328	13.111	13.552
DTProbeTrack03	13	ProbeTrackDT	1.1	SCS215a	20101124.115414	20101124.115811	dt-generate	8	0.013328	60	10	60-180	60	88	GapExp	0	37	2	9	1	target	1	520	740	237265	13.328	13.310	13.347
