exp	sub	code	rev	comp	runtime	trialtime	stdt	nstim	refreshdur	cuedur	gapdur	gapOnsetRange	durPostProbe	gapOnsetTime	blocktype	prac	trial	ntargets	soa	probeTarget	resp	acc	rt	pts	tpts	meanFrameDur	minFrameDur	maxFrameDur
DTProbeTrack03	16	ProbeTrackDT	1.1	SCS215a	20110121.124923	20110121.124940	single-task	8	0.013328	60	0	60-180	60	126	NoGap	1	1	2	9	0	distractor	1	3839	0	0	13.328	12.971	13.692
DTProbeTrack03	16	ProbeTrackDT	1.1	SCS215a	20110121.124923	20110121.124949	single-task	8	0.013328	60	0	60-180	60	127	NoGap	1	2	2	3	0	distractor	1	1013	494	494	13.328	13.095	13.563
DTProbeTrack03	16	ProbeTrackDT	1.1	SCS215a	20110121.124923	20110121.124955	single-task	8	0.013328	60	0	60-180	60	98	NoGap	1	3	2	45	1	target	1	1160	420	914	13.328	12.860	13.797
DTProbeTrack03	16	ProbeTrackDT	1.1	SCS215a	20110121.124923	20110121.125001	single-task	8	0.013328	60	0	60-180	60	156	NoGap	1	4	2	9	0	target	0	813	-1000	-86	13.328	12.874	13.765
DTProbeTrack03	16	ProbeTrackDT	1.1	SCS215a	20110121.124923	20110121.125008	single-task	8	0.013328	60	0	60-180	60	141	NoGap	1	5	2	3	0	distractor	1	1306	347	261	13.328	12.869	13.781
DTProbeTrack03	16	ProbeTrackDT	1.1	SCS215a	20110121.124923	20110121.125014	single-task	8	0.013328	60	0	60-180	60	154	NoGap	1	6	2	9	1	target	1	947	527	788	13.328	12.953	13.703
DTProbeTrack03	16	ProbeTrackDT	1.1	SCS215a	20110121.124923	20110121.125021	single-task	8	0.013328	60	0	60-180	60	167	NoGap	1	7	2	9	1	target	1	1160	420	1208	13.328	13.305	13.350
DTProbeTrack03	16	ProbeTrackDT	1.1	SCS215a	20110121.124923	20110121.125028	single-task	8	0.013328	60	0	60-180	60	175	NoGap	1	8	2	3	1	target	1	1040	480	1688	13.328	12.966	13.689
DTProbeTrack03	16	ProbeTrackDT	1.1	SCS215a	20110121.124923	20110121.125034	single-task	8	0.013328	60	0	60-180	60	64	NoGap	1	9	2	1	0	distractor	1	933	534	2222	13.328	12.851	13.818
DTProbeTrack03	16	ProbeTrackDT	1.1	SCS215a	20110121.124923	20110121.125039	single-task	8	0.013328	60	0	60-180	60	124	NoGap	1	10	2	6	0	distractor	1	1067	467	2689	13.328	13.085	13.570
DTProbeTrack03	16	ProbeTrackDT	1.1	SCS215a	20110121.124923	20110121.125045	single-task	8	0.013328	60	0	60-180	60	130	NoGap	1	11	2	1	0	distractor	1	1253	374	3063	13.328	12.909	13.744
DTProbeTrack03	16	ProbeTrackDT	1.1	SCS215a	20110121.124923	20110121.125052	single-task	8	0.013328	60	0	60-180	60	157	NoGap	1	12	2	6	0	distractor	1	973	514	3577	13.328	12.953	13.690
DTProbeTrack03	16	ProbeTrackDT	1.1	SCS215a	20110121.124923	20110121.125058	single-task	8	0.013328	60	0	60-180	60	129	NoGap	1	13	2	6	1	target	1	880	560	4137	13.328	12.916	13.747
DTProbeTrack03	16	ProbeTrackDT	1.1	SCS215a	20110121.124923	20110121.125104	single-task	8	0.013328	60	0	60-180	60	118	NoGap	1	14	2	6	1	target	1	880	560	4697	13.328	13.310	13.347
DTProbeTrack03	16	ProbeTrackDT	1.1	SCS215a	20110121.124923	20110121.125110	single-task	8	0.013328	60	0	60-180	60	87	NoGap	1	15	2	3	1	target	1	707	647	5344	13.328	12.974	13.676
DTProbeTrack03	16	ProbeTrackDT	1.1	SCS215a	20110121.124923	20110121.125115	single-task	8	0.013328	60	0	60-180	60	81	NoGap	1	16	2	1	1	target	1	760	620	5964	13.328	12.937	13.716
DTProbeTrack03	16	ProbeTrackDT	1.1	SCS215a	20110121.124923	20110121.125120	single-task	8	0.013328	60	0	60-180	60	96	NoGap	1	17	2	1	0	distractor	1	720	640	6604	13.328	12.989	13.668
DTProbeTrack03	16	ProbeTrackDT	1.1	SCS215a	20110121.124923	20110121.125125	single-task	8	0.013328	60	0	60-180	60	170	NoGap	1	18	2	45	0	distractor	1	1173	414	7018	13.328	12.892	13.772
DTProbeTrack03	16	ProbeTrackDT	1.1	SCS215a	20110121.124923	20110121.125133	single-task	8	0.013328	60	0	60-180	60	143	NoGap	1	19	2	45	0	distractor	1	1173	414	7432	13.328	12.937	13.725
DTProbeTrack03	16	ProbeTrackDT	1.1	SCS215a	20110121.124923	20110121.125140	single-task	8	0.013328	60	0	60-180	60	107	NoGap	1	20	2	45	1	target	1	667	667	8099	13.328	13.309	13.348
DTProbeTrack03	16	ProbeTrackDT	1.1	SCS215a	20110121.124923	20110121.125146	single-task	8	0.013328	60	0	60-180	60	116	NoGap	1	21	2	9	0	distractor	1	880	560	8659	13.328	13.311	13.347
DTProbeTrack03	16	ProbeTrackDT	1.1	SCS215a	20110121.124923	20110121.125152	single-task	8	0.013328	60	0	60-180	60	138	NoGap	1	22	2	45	0	distractor	1	1000	500	9159	13.328	13.054	13.611
DTProbeTrack03	16	ProbeTrackDT	1.1	SCS215a	20110121.124923	20110121.125158	single-task	8	0.013328	60	0	60-180	60	136	NoGap	1	23	2	3	0	distractor	1	840	580	9739	13.328	13.310	13.352
DTProbeTrack03	16	ProbeTrackDT	1.1	SCS215a	20110121.124923	20110121.125204	single-task	8	0.013328	60	0	60-180	60	116	NoGap	1	24	2	6	0	distractor	1	800	600	10339	13.328	12.911	13.742
DTProbeTrack03	16	ProbeTrackDT	1.1	SCS215a	20110121.124923	20110121.125210	single-task	8	0.013328	60	0	60-180	60	119	NoGap	1	25	2	3	1	target	1	827	587	10926	13.328	13.105	13.565
DTProbeTrack03	16	ProbeTrackDT	1.1	SCS215a	20110121.124923	20110121.125216	single-task	8	0.013328	60	0	60-180	60	140	NoGap	1	26	2	1	1	target	1	853	574	11500	13.328	13.099	13.552
DTProbeTrack03	16	ProbeTrackDT	1.1	SCS215a	20110121.124923	20110121.125222	single-task	8	0.013328	60	0	60-180	60	159	NoGap	1	27	2	9	1	target	1	1013	494	11994	13.328	12.916	13.736
DTProbeTrack03	16	ProbeTrackDT	1.1	SCS215a	20110121.124923	20110121.125228	single-task	8	0.013328	60	0	60-180	60	158	NoGap	1	28	2	45	0	distractor	1	800	600	12594	13.328	13.021	13.627
DTProbeTrack03	16	ProbeTrackDT	1.1	SCS215a	20110121.124923	20110121.125235	single-task	8	0.013328	60	0	60-180	60	95	NoGap	1	29	2	6	0	distractor	1	813	594	13188	13.328	13.310	13.347
DTProbeTrack03	16	ProbeTrackDT	1.1	SCS215a	20110121.124923	20110121.125240	single-task	8	0.013328	60	0	60-180	60	104	NoGap	1	30	2	45	1	target	1	827	587	13775	13.328	13.310	13.355
DTProbeTrack03	16	ProbeTrackDT	1.1	SCS215a	20110121.124923	20110121.125247	single-task	8	0.013328	60	0	60-180	60	145	NoGap	1	31	2	3	1	target	1	813	594	14369	13.328	12.847	13.802
DTProbeTrack03	16	ProbeTrackDT	1.1	SCS215a	20110121.124923	20110121.125253	single-task	8	0.013328	60	0	60-180	60	158	NoGap	1	32	2	6	1	target	1	827	587	14956	13.328	12.938	13.707
DTProbeTrack03	16	ProbeTrackDT	1.1	SCS215a	20110121.124923	20110121.125259	single-task	8	0.013328	60	0	60-180	60	157	NoGap	1	33	2	6	1	target	1	680	660	15616	13.328	13.100	13.556
DTProbeTrack03	16	ProbeTrackDT	1.1	SCS215a	20110121.124923	20110121.125305	single-task	8	0.013328	60	0	60-180	60	96	NoGap	1	34	2	9	0	distractor	1	813	594	16210	13.328	12.841	13.810
DTProbeTrack03	16	ProbeTrackDT	1.1	SCS215a	20110121.124923	20110121.125310	single-task	8	0.013328	60	0	60-180	60	64	NoGap	1	35	2	45	1	target	1	1080	460	16670	13.328	13.024	13.619
DTProbeTrack03	16	ProbeTrackDT	1.1	SCS215a	20110121.124923	20110121.125316	single-task	8	0.013328	60	0	60-180	60	114	NoGap	1	36	2	1	1	target	1	827	587	17257	13.328	12.849	13.816
DTProbeTrack03	16	ProbeTrackDT	1.1	SCS215a	20110121.124923	20110121.125322	single-task	8	0.013328	60	0	60-180	60	141	NoGap	1	37	2	3	0	distractor	1	720	640	17897	13.328	12.940	13.709
DTProbeTrack03	16	ProbeTrackDT	1.1	SCS215a	20110121.124923	20110121.125328	single-task	8	0.013328	60	0	60-180	60	110	NoGap	1	38	2	1	0	distractor	1	1240	380	18277	13.328	12.987	13.670
DTProbeTrack03	16	ProbeTrackDT	1.1	SCS215a	20110121.124923	20110121.125334	single-task	8	0.013328	60	0	60-180	60	115	NoGap	1	39	2	1	1	target	1	1680	160	18437	13.328	13.098	13.547
DTProbeTrack03	16	ProbeTrackDT	1.1	SCS215a	20110121.124923	20110121.125340	single-task	8	0.013328	60	0	60-180	60	97	NoGap	1	40	2	9	1	target	1	893	554	18991	13.328	13.310	13.347
DTProbeTrack03	16	ProbeTrackDT	1.1	SCS215a	20110121.125452	20110121.125503	dt-shadow	8	0.013328	60	10	60-180	60	152	GapPrac	1	1	2	6	1	target	1	1320	340	19331	13.328	13.091	13.557
DTProbeTrack03	16	ProbeTrackDT	1.1	SCS215a	20110121.125452	20110121.125510	dt-shadow	8	0.013328	60	10	60-180	60	92	GapPrac	1	2	2	3	1	target	1	1080	460	19791	13.328	13.114	13.540
DTProbeTrack03	16	ProbeTrackDT	1.1	SCS215a	20110121.125452	20110121.125516	dt-shadow	8	0.013328	60	10	60-180	60	171	GapPrac	1	3	2	45	0	distractor	1	827	587	20378	13.328	12.856	13.817
DTProbeTrack03	16	ProbeTrackDT	1.1	SCS215a	20110121.125452	20110121.125523	dt-shadow	8	0.013328	60	10	60-180	60	62	GapPrac	1	4	2	3	0	distractor	1	2540	0	20378	13.328	13.224	13.444
DTProbeTrack03	16	ProbeTrackDT	1.1	SCS215a	20110121.125452	20110121.125530	dt-shadow	8	0.013328	60	10	60-180	60	136	GapPrac	1	5	2	9	0	distractor	1	5065	0	20378	13.328	12.898	13.743
DTProbeTrack03	16	ProbeTrackDT	1.1	SCS215a	20110121.125452	20110121.125540	dt-shadow	8	0.013328	60	10	60-180	60	137	GapPrac	1	6	2	45	0	distractor	1	747	627	21005	13.328	13.065	13.598
DTProbeTrack03	16	ProbeTrackDT	1.1	SCS215a	20110121.125452	20110121.125547	dt-shadow	8	0.013328	60	10	60-180	60	95	GapPrac	1	7	2	1	0	distractor	1	1560	220	21225	13.328	13.099	13.549
DTProbeTrack03	16	ProbeTrackDT	1.1	SCS215a	20110121.125452	20110121.125553	dt-shadow	8	0.013328	60	10	60-180	60	134	GapPrac	1	8	2	1	1	distractor	0	1506	-1000	20225	13.328	13.307	13.346
DTProbeTrack03	16	ProbeTrackDT	1.1	SCS215a	20110121.125452	20110121.125600	dt-shadow	8	0.013328	60	10	60-180	60	100	GapPrac	1	9	2	6	0	distractor	1	2706	0	20225	13.328	12.856	13.730
DTProbeTrack03	16	ProbeTrackDT	1.1	SCS215a	20110121.125452	20110121.125608	dt-shadow	8	0.013328	60	10	60-180	60	130	GapPrac	1	10	2	45	1	target	1	4878	0	20225	13.328	12.938	13.728
DTProbeTrack03	16	ProbeTrackDT	1.1	SCS215a	20110121.125452	20110121.125618	dt-shadow	8	0.013328	60	10	60-180	60	159	GapPrac	1	11	2	9	1	target	1	7171	0	20225	13.328	12.871	13.782
DTProbeTrack03	16	ProbeTrackDT	1.1	SCS215a	20110121.125452	20110121.125631	dt-shadow	8	0.013328	60	10	60-180	60	111	GapPrac	1	12	2	3	0	distractor	1	853	574	20799	13.328	13.094	13.552
DTProbeTrack03	16	ProbeTrackDT	1.1	SCS215a	20110121.125452	20110121.125637	dt-shadow	8	0.013328	60	10	60-180	60	157	GapPrac	1	13	2	1	1	target	1	1320	340	21139	13.328	13.096	13.558
DTProbeTrack03	16	ProbeTrackDT	1.1	SCS215a	20110121.125452	20110121.125644	dt-shadow	8	0.013328	60	10	60-180	60	77	GapPrac	1	14	2	45	1	distractor	0	1240	-1000	20139	13.328	12.878	13.782
DTProbeTrack03	16	ProbeTrackDT	1.1	SCS215a	20110121.125452	20110121.125650	dt-shadow	8	0.013328	60	10	60-180	60	141	GapPrac	1	15	2	6	0	distractor	1	1053	474	20613	13.328	13.109	13.554
DTProbeTrack03	16	ProbeTrackDT	1.1	SCS215a	20110121.125452	20110121.125656	dt-shadow	8	0.013328	60	10	60-180	60	124	GapPrac	1	16	2	1	0	distractor	1	1280	360	20973	13.328	13.295	13.361
DTProbeTrack03	16	ProbeTrackDT	1.1	SCS215a	20110121.125452	20110121.125703	dt-shadow	8	0.013328	60	10	60-180	60	151	GapPrac	1	17	2	6	1	target	1	1480	260	21233	13.328	13.115	13.539
DTProbeTrack03	16	ProbeTrackDT	1.1	SCS215a	20110121.125452	20110121.125710	dt-shadow	8	0.013328	60	10	60-180	60	127	GapPrac	1	18	2	9	1	target	1	3039	0	21233	13.328	12.964	13.682
DTProbeTrack03	16	ProbeTrackDT	1.1	SCS215a	20110121.125452	20110121.125718	dt-shadow	8	0.013328	60	10	60-180	60	114	GapPrac	1	19	2	3	1	target	1	987	507	21740	13.328	12.998	13.649
DTProbeTrack03	16	ProbeTrackDT	1.1	SCS215a	20110121.125452	20110121.125724	dt-shadow	8	0.013328	60	10	60-180	60	139	GapPrac	1	20	2	9	0	distractor	1	867	567	22307	13.328	13.099	13.556
DTProbeTrack03	16	ProbeTrackDT	1.1	SCS215a	20110121.125811	20110121.125817	dt-shadow	8	0.013328	60	10	60-180	60	102	GapExp	1	1	2	6	0	distractor	1	1920	40	22347	13.328	13.296	13.347
DTProbeTrack03	16	ProbeTrackDT	1.1	SCS215a	20110121.125811	20110121.125824	dt-shadow	8	0.013328	60	10	60-180	60	155	GapExp	1	2	2	3	0	distractor	1	1266	367	22714	13.328	13.240	13.428
DTProbeTrack03	16	ProbeTrackDT	1.1	SCS215a	20110121.125811	20110121.125830	dt-shadow	8	0.013328	60	10	60-180	60	113	GapExp	1	3	2	45	0	distractor	1	787	607	23321	13.328	13.309	13.349
DTProbeTrack03	16	ProbeTrackDT	1.1	SCS215a	20110121.125811	20110121.125837	dt-shadow	8	0.013328	60	10	60-180	60	171	GapExp	1	4	2	1	1	target	1	1133	434	23755	13.328	13.108	13.542
DTProbeTrack03	16	ProbeTrackDT	1.1	SCS215a	20110121.125811	20110121.125844	dt-shadow	8	0.013328	60	10	60-180	60	95	GapExp	1	5	2	6	1	target	1	1560	220	23975	13.328	12.947	13.709
DTProbeTrack03	16	ProbeTrackDT	1.1	SCS215a	20110121.125811	20110121.125850	dt-shadow	8	0.013328	60	10	60-180	60	170	GapExp	0	6	2	45	0	distractor	1	1520	240	24215	13.328	12.856	13.801
DTProbeTrack03	16	ProbeTrackDT	1.1	SCS215a	20110121.125811	20110121.125858	dt-shadow	8	0.013328	60	10	60-180	60	106	GapExp	0	7	2	6	0	distractor	1	1320	340	24555	13.328	12.866	13.777
DTProbeTrack03	16	ProbeTrackDT	1.1	SCS215a	20110121.125811	20110121.125904	dt-shadow	8	0.013328	60	10	60-180	60	91	GapExp	0	8	2	3	0	distractor	1	1600	200	24755	13.328	13.096	13.562
DTProbeTrack03	16	ProbeTrackDT	1.1	SCS215a	20110121.125811	20110121.125910	dt-shadow	8	0.013328	60	10	60-180	60	134	GapExp	0	9	2	6	1	target	1	1067	467	25222	13.328	13.308	13.348
DTProbeTrack03	16	ProbeTrackDT	1.1	SCS215a	20110121.125811	20110121.125917	dt-shadow	8	0.013328	60	10	60-180	60	166	GapExp	0	10	2	6	0	distractor	1	2079	0	25222	13.328	12.864	13.687
DTProbeTrack03	16	ProbeTrackDT	1.1	SCS215a	20110121.125811	20110121.125924	dt-shadow	8	0.013328	60	10	60-180	60	69	GapExp	0	11	2	9	0	distractor	1	1866	67	25289	13.328	12.973	13.675
DTProbeTrack03	16	ProbeTrackDT	1.1	SCS215a	20110121.125811	20110121.125931	dt-shadow	8	0.013328	60	10	60-180	60	173	GapExp	0	12	2	1	1	target	1	1653	174	25463	13.328	12.943	13.711
DTProbeTrack03	16	ProbeTrackDT	1.1	SCS215a	20110121.125811	20110121.125938	dt-shadow	8	0.013328	60	10	60-180	60	149	GapExp	0	13	2	45	0	distractor	1	1373	314	25777	13.328	12.963	13.682
DTProbeTrack03	16	ProbeTrackDT	1.1	SCS215a	20110121.125811	20110121.125946	dt-shadow	8	0.013328	60	10	60-180	60	178	GapExp	0	14	2	9	0	target	0	1946	-1000	24777	13.328	13.184	13.461
DTProbeTrack03	16	ProbeTrackDT	1.1	SCS215a	20110121.125811	20110121.125953	dt-shadow	8	0.013328	60	10	60-180	60	95	GapExp	0	15	2	45	0	distractor	1	1253	374	25151	13.328	13.111	13.546
DTProbeTrack03	16	ProbeTrackDT	1.1	SCS215a	20110121.125811	20110121.130000	dt-shadow	8	0.013328	60	10	60-180	60	124	GapExp	0	16	2	1	1	target	1	1107	447	25598	13.328	13.086	13.559
DTProbeTrack03	16	ProbeTrackDT	1.1	SCS215a	20110121.125811	20110121.130006	dt-shadow	8	0.013328	60	10	60-180	60	119	GapExp	0	17	2	3	1	distractor	0	1986	-1000	24598	13.328	12.894	13.755
DTProbeTrack03	16	ProbeTrackDT	1.1	SCS215a	20110121.125811	20110121.130013	dt-shadow	8	0.013328	60	10	60-180	60	85	GapExp	0	18	2	6	1	target	1	1360	320	24918	13.328	13.016	13.640
DTProbeTrack03	16	ProbeTrackDT	1.1	SCS215a	20110121.125811	20110121.130019	dt-shadow	8	0.013328	60	10	60-180	60	143	GapExp	0	19	2	45	1	target	1	947	527	25445	13.328	12.867	13.773
DTProbeTrack03	16	ProbeTrackDT	1.1	SCS215a	20110121.125811	20110121.130026	dt-shadow	8	0.013328	60	10	60-180	60	102	GapExp	0	20	2	9	1	target	1	840	580	26025	13.328	12.877	13.779
DTProbeTrack03	16	ProbeTrackDT	1.1	SCS215a	20110121.125811	20110121.130032	dt-shadow	8	0.013328	60	10	60-180	60	109	GapExp	0	21	2	1	1	target	1	787	607	26632	13.328	13.300	13.364
DTProbeTrack03	16	ProbeTrackDT	1.1	SCS215a	20110121.125811	20110121.130037	dt-shadow	8	0.013328	60	10	60-180	60	163	GapExp	0	22	2	6	0	distractor	1	1120	440	27072	13.328	12.956	13.706
DTProbeTrack03	16	ProbeTrackDT	1.1	SCS215a	20110121.125811	20110121.130044	dt-shadow	8	0.013328	60	10	60-180	60	85	GapExp	0	23	2	3	0	distractor	1	1213	394	27466	13.328	13.311	13.355
DTProbeTrack03	16	ProbeTrackDT	1.1	SCS215a	20110121.125811	20110121.130050	dt-shadow	8	0.013328	60	10	60-180	60	105	GapExp	0	24	2	45	1	target	1	827	587	28053	13.328	12.884	13.769
DTProbeTrack03	16	ProbeTrackDT	1.1	SCS215a	20110121.125811	20110121.130056	dt-shadow	8	0.013328	60	10	60-180	60	70	GapExp	0	25	2	3	0	distractor	1	1146	427	28480	13.328	12.828	13.820
DTProbeTrack03	16	ProbeTrackDT	1.1	SCS215a	20110121.125811	20110121.130102	dt-shadow	8	0.013328	60	10	60-180	60	91	GapExp	0	26	2	3	0	distractor	1	987	507	28987	13.328	12.865	13.792
DTProbeTrack03	16	ProbeTrackDT	1.1	SCS215a	20110121.125811	20110121.130107	dt-shadow	8	0.013328	60	10	60-180	60	160	GapExp	0	27	2	3	0	distractor	1	973	514	29501	13.328	12.856	13.788
DTProbeTrack03	16	ProbeTrackDT	1.1	SCS215a	20110121.125811	20110121.130114	dt-shadow	8	0.013328	60	10	60-180	60	163	GapExp	0	28	2	6	0	distractor	1	933	534	30035	13.328	12.862	13.802
DTProbeTrack03	16	ProbeTrackDT	1.1	SCS215a	20110121.125811	20110121.130121	dt-shadow	8	0.013328	60	10	60-180	60	106	GapExp	0	29	2	1	1	target	1	1253	374	30409	13.328	12.961	13.778
DTProbeTrack03	16	ProbeTrackDT	1.1	SCS215a	20110121.125811	20110121.130127	dt-shadow	8	0.013328	60	10	60-180	60	98	GapExp	0	30	2	6	0	distractor	1	1506	247	30656	13.328	13.307	13.353
DTProbeTrack03	16	ProbeTrackDT	1.1	SCS215a	20110121.125811	20110121.130133	dt-shadow	8	0.013328	60	10	60-180	60	177	GapExp	0	31	2	45	0	distractor	1	1160	420	31076	13.328	13.062	13.593
DTProbeTrack03	16	ProbeTrackDT	1.1	SCS215a	20110121.125811	20110121.130140	dt-shadow	8	0.013328	60	10	60-180	60	163	GapExp	0	32	2	6	1	target	1	1293	354	31430	13.328	13.307	13.346
DTProbeTrack03	16	ProbeTrackDT	1.1	SCS215a	20110121.125811	20110121.130147	dt-shadow	8	0.013328	60	10	60-180	60	85	GapExp	0	33	2	6	0	distractor	1	2079	0	31430	13.328	13.308	13.348
DTProbeTrack03	16	ProbeTrackDT	1.1	SCS215a	20110121.125811	20110121.130154	dt-shadow	8	0.013328	60	10	60-180	60	123	GapExp	0	34	2	1	1	target	1	893	554	31984	13.328	13.310	13.349
DTProbeTrack03	16	ProbeTrackDT	1.1	SCS215a	20110121.125811	20110121.130200	dt-shadow	8	0.013328	60	10	60-180	60	85	GapExp	0	35	2	3	0	distractor	1	853	574	32558	13.328	12.932	13.719
DTProbeTrack03	16	ProbeTrackDT	1.1	SCS215a	20110121.125811	20110121.130206	dt-shadow	8	0.013328	60	10	60-180	60	172	GapExp	0	36	2	1	0	distractor	1	1187	407	32965	13.328	12.883	13.764
DTProbeTrack03	16	ProbeTrackDT	1.1	SCS215a	20110121.125811	20110121.130212	dt-shadow	8	0.013328	60	10	60-180	60	176	GapExp	0	37	2	45	1	distractor	0	907	-1000	31965	13.328	12.831	13.817
DTProbeTrack03	16	ProbeTrackDT	1.1	SCS215a	20110121.125811	20110121.130220	dt-shadow	8	0.013328	60	10	60-180	60	158	GapExp	0	38	2	45	0	distractor	1	1546	227	32192	13.328	13.099	13.564
DTProbeTrack03	16	ProbeTrackDT	1.1	SCS215a	20110121.125811	20110121.130227	dt-shadow	8	0.013328	60	10	60-180	60	123	GapExp	0	39	2	3	1	target	1	973	514	32706	13.328	13.100	13.564
DTProbeTrack03	16	ProbeTrackDT	1.1	SCS215a	20110121.125811	20110121.130233	dt-shadow	8	0.013328	60	10	60-180	60	92	GapExp	0	40	2	9	1	target	1	1067	467	33173	13.328	13.308	13.345
DTProbeTrack03	16	ProbeTrackDT	1.1	SCS215a	20110121.125811	20110121.130239	dt-shadow	8	0.013328	60	10	60-180	60	74	GapExp	0	41	2	1	0	distractor	1	880	560	33733	13.329	12.886	13.771
DTProbeTrack03	16	ProbeTrackDT	1.1	SCS215a	20110121.125811	20110121.130245	dt-shadow	8	0.013328	60	10	60-180	60	78	GapExp	0	42	2	9	1	target	1	774	613	34346	13.328	13.094	13.556
DTProbeTrack03	16	ProbeTrackDT	1.1	SCS215a	20110121.125811	20110121.130250	dt-shadow	8	0.013328	60	10	60-180	60	138	GapExp	0	43	2	6	0	distractor	1	920	540	34886	13.328	12.899	13.760
DTProbeTrack03	16	ProbeTrackDT	1.1	SCS215a	20110121.125811	20110121.130256	dt-shadow	8	0.013328	60	10	60-180	60	135	GapExp	0	44	2	6	1	target	1	773	614	35500	13.328	13.097	13.551
DTProbeTrack03	16	ProbeTrackDT	1.1	SCS215a	20110121.125811	20110121.130302	dt-shadow	8	0.013328	60	10	60-180	60	80	GapExp	0	45	2	1	1	target	1	867	567	36067	13.328	13.110	13.562
DTProbeTrack03	16	ProbeTrackDT	1.1	SCS215a	20110121.125811	20110121.130308	dt-shadow	8	0.013328	60	10	60-180	60	66	GapExp	0	46	2	3	1	target	1	1000	500	36567	13.328	13.105	13.552
DTProbeTrack03	16	ProbeTrackDT	1.1	SCS215a	20110121.125811	20110121.130313	dt-shadow	8	0.013328	60	10	60-180	60	83	GapExp	0	47	2	6	1	target	1	827	587	37154	13.328	13.256	13.392
DTProbeTrack03	16	ProbeTrackDT	1.1	SCS215a	20110121.125811	20110121.130318	dt-shadow	8	0.013328	60	10	60-180	60	137	GapExp	0	48	2	1	1	target	1	760	620	37774	13.328	13.309	13.360
DTProbeTrack03	16	ProbeTrackDT	1.1	SCS215a	20110121.125811	20110121.130324	dt-shadow	8	0.013328	60	10	60-180	60	83	GapExp	0	49	2	6	0	distractor	1	853	574	38348	13.328	12.873	13.785
DTProbeTrack03	16	ProbeTrackDT	1.1	SCS215a	20110121.125811	20110121.130330	dt-shadow	8	0.013328	60	10	60-180	60	155	GapExp	0	50	2	3	1	target	1	1360	320	38668	13.328	13.100	13.571
DTProbeTrack03	16	ProbeTrackDT	1.1	SCS215a	20110121.125811	20110121.130352	dt-shadow	8	0.013328	60	10	60-180	60	177	GapExp	0	51	2	45	0	distractor	1	960	520	39188	13.328	13.105	13.549
DTProbeTrack03	16	ProbeTrackDT	1.1	SCS215a	20110121.125811	20110121.130359	dt-shadow	8	0.013328	60	10	60-180	60	154	GapExp	0	52	2	9	0	distractor	1	1307	347	39535	13.328	12.942	13.707
DTProbeTrack03	16	ProbeTrackDT	1.1	SCS215a	20110121.125811	20110121.130406	dt-shadow	8	0.013328	60	10	60-180	60	165	GapExp	0	53	2	3	0	distractor	1	827	587	40122	13.328	12.878	13.768
DTProbeTrack03	16	ProbeTrackDT	1.1	SCS215a	20110121.125811	20110121.130413	dt-shadow	8	0.013328	60	10	60-180	60	168	GapExp	0	54	2	1	0	target	0	1013	-1000	39122	13.328	13.307	13.347
DTProbeTrack03	16	ProbeTrackDT	1.1	SCS215a	20110121.125811	20110121.130419	dt-shadow	8	0.013328	60	10	60-180	60	86	GapExp	0	55	2	9	0	distractor	1	1067	467	39589	13.328	13.085	13.572
DTProbeTrack03	16	ProbeTrackDT	1.1	SCS215a	20110121.125811	20110121.130425	dt-shadow	8	0.013328	60	10	60-180	60	87	GapExp	0	56	2	6	0	distractor	1	920	540	40129	13.328	13.103	13.558
DTProbeTrack03	16	ProbeTrackDT	1.1	SCS215a	20110121.125811	20110121.130431	dt-shadow	8	0.013328	60	10	60-180	60	78	GapExp	0	57	2	1	1	target	1	1040	480	40609	13.328	13.308	13.348
DTProbeTrack03	16	ProbeTrackDT	1.1	SCS215a	20110121.125811	20110121.130436	dt-shadow	8	0.013328	60	10	60-180	60	61	GapExp	0	58	2	45	0	distractor	1	1027	487	41096	13.328	13.113	13.534
DTProbeTrack03	16	ProbeTrackDT	1.1	SCS215a	20110121.125811	20110121.130442	dt-shadow	8	0.013328	60	10	60-180	60	111	GapExp	0	59	2	3	0	distractor	1	960	520	41616	13.328	12.944	13.718
DTProbeTrack03	16	ProbeTrackDT	1.1	SCS215a	20110121.125811	20110121.130448	dt-shadow	8	0.013328	60	10	60-180	60	158	GapExp	0	60	2	3	1	target	1	1826	87	41703	13.328	13.277	13.381
DTProbeTrack03	16	ProbeTrackDT	1.1	SCS215a	20110121.125811	20110121.130455	dt-shadow	8	0.013328	60	10	60-180	60	108	GapExp	0	61	2	1	1	target	1	947	527	42230	13.328	12.849	13.814
DTProbeTrack03	16	ProbeTrackDT	1.1	SCS215a	20110121.125811	20110121.130501	dt-shadow	8	0.013328	60	10	60-180	60	100	GapExp	0	62	2	45	0	distractor	1	827	587	42817	13.328	12.969	13.692
DTProbeTrack03	16	ProbeTrackDT	1.1	SCS215a	20110121.125811	20110121.130507	dt-shadow	8	0.013328	60	10	60-180	60	137	GapExp	0	63	2	9	0	distractor	1	720	640	43457	13.328	13.092	13.551
DTProbeTrack03	16	ProbeTrackDT	1.1	SCS215a	20110121.125811	20110121.130513	dt-shadow	8	0.013328	60	10	60-180	60	107	GapExp	0	64	2	45	0	distractor	1	813	594	44051	13.328	12.875	13.781
DTProbeTrack03	16	ProbeTrackDT	1.1	SCS215a	20110121.125811	20110121.130520	dt-shadow	8	0.013328	60	10	60-180	60	112	GapExp	0	65	2	45	1	target	1	1333	334	44385	13.328	12.924	13.738
DTProbeTrack03	16	ProbeTrackDT	1.1	SCS215a	20110121.125811	20110121.130526	dt-shadow	8	0.013328	60	10	60-180	60	107	GapExp	0	66	2	6	0	distractor	1	1880	60	44445	13.328	13.025	13.623
DTProbeTrack03	16	ProbeTrackDT	1.1	SCS215a	20110121.125811	20110121.130533	dt-shadow	8	0.013328	60	10	60-180	60	67	GapExp	0	67	2	3	0	distractor	1	1653	174	44619	13.328	13.033	13.617
DTProbeTrack03	16	ProbeTrackDT	1.1	SCS215a	20110121.125811	20110121.130539	dt-shadow	8	0.013328	60	10	60-180	60	134	GapExp	0	68	2	6	1	target	1	907	547	45166	13.328	12.880	13.792
DTProbeTrack03	16	ProbeTrackDT	1.1	SCS215a	20110121.125811	20110121.130545	dt-shadow	8	0.013328	60	10	60-180	60	161	GapExp	0	69	2	9	1	target	1	1200	400	45566	13.328	13.307	13.351
DTProbeTrack03	16	ProbeTrackDT	1.1	SCS215a	20110121.125811	20110121.130552	dt-shadow	8	0.013328	60	10	60-180	60	101	GapExp	0	70	2	6	0	distractor	1	1306	347	45913	13.328	12.962	13.707
DTProbeTrack03	16	ProbeTrackDT	1.1	SCS215a	20110121.125811	20110121.130558	dt-shadow	8	0.013328	60	10	60-180	60	81	GapExp	0	71	2	9	1	target	1	800	600	46513	13.328	12.855	13.788
DTProbeTrack03	16	ProbeTrackDT	1.1	SCS215a	20110121.125811	20110121.130604	dt-shadow	8	0.013328	60	10	60-180	60	108	GapExp	0	72	2	3	0	distractor	1	1147	427	46940	13.328	12.964	13.690
DTProbeTrack03	16	ProbeTrackDT	1.1	SCS215a	20110121.125811	20110121.130610	dt-shadow	8	0.013328	60	10	60-180	60	97	GapExp	0	73	2	45	1	target	1	867	567	47507	13.328	13.070	13.587
DTProbeTrack03	16	ProbeTrackDT	1.1	SCS215a	20110121.125811	20110121.130616	dt-shadow	8	0.013328	60	10	60-180	60	76	GapExp	0	74	2	9	0	distractor	1	1346	327	47834	13.328	12.875	13.768
DTProbeTrack03	16	ProbeTrackDT	1.1	SCS215a	20110121.125811	20110121.130622	dt-shadow	8	0.013328	60	10	60-180	60	151	GapExp	0	75	2	1	0	distractor	1	1453	274	48108	13.328	13.309	13.346
DTProbeTrack03	16	ProbeTrackDT	1.1	SCS215a	20110121.125811	20110121.130629	dt-shadow	8	0.013328	60	10	60-180	60	134	GapExp	0	76	2	6	1	target	1	760	620	48728	13.328	12.865	13.794
DTProbeTrack03	16	ProbeTrackDT	1.1	SCS215a	20110121.125811	20110121.130635	dt-shadow	8	0.013328	60	10	60-180	60	82	GapExp	0	77	2	6	0	distractor	1	2506	0	48728	13.328	13.095	13.556
DTProbeTrack03	16	ProbeTrackDT	1.1	SCS215a	20110121.125811	20110121.130642	dt-shadow	8	0.013328	60	10	60-180	60	169	GapExp	0	78	2	9	0	distractor	1	800	600	49328	13.328	13.309	13.348
DTProbeTrack03	16	ProbeTrackDT	1.1	SCS215a	20110121.125811	20110121.130648	dt-shadow	8	0.013328	60	10	60-180	60	140	GapExp	0	79	2	6	0	distractor	1	1346	327	49655	13.328	13.302	13.354
DTProbeTrack03	16	ProbeTrackDT	1.1	SCS215a	20110121.125811	20110121.130655	dt-shadow	8	0.013328	60	10	60-180	60	153	GapExp	0	80	2	3	1	target	1	827	587	50242	13.328	12.852	13.813
DTProbeTrack03	16	ProbeTrackDT	1.1	SCS215a	20110121.125811	20110121.130701	dt-shadow	8	0.013328	60	10	60-180	60	98	GapExp	0	81	2	45	1	target	1	1160	420	50662	13.328	12.965	13.681
DTProbeTrack03	16	ProbeTrackDT	1.1	SCS215a	20110121.125811	20110121.130708	dt-shadow	8	0.013328	60	10	60-180	60	116	GapExp	0	82	2	9	0	distractor	1	1053	474	51136	13.328	13.100	13.571
DTProbeTrack03	16	ProbeTrackDT	1.1	SCS215a	20110121.125811	20110121.130714	dt-shadow	8	0.013328	60	10	60-180	60	83	GapExp	0	83	2	9	0	distractor	1	1107	447	51583	13.328	13.067	13.602
DTProbeTrack03	16	ProbeTrackDT	1.1	SCS215a	20110121.125811	20110121.130720	dt-shadow	8	0.013328	60	10	60-180	60	147	GapExp	0	84	2	45	1	target	1	973	514	52097	13.328	12.956	13.701
DTProbeTrack03	16	ProbeTrackDT	1.1	SCS215a	20110121.125811	20110121.130727	dt-shadow	8	0.013328	60	10	60-180	60	138	GapExp	0	85	2	9	0	distractor	1	1213	394	52491	13.328	13.117	13.552
DTProbeTrack03	16	ProbeTrackDT	1.1	SCS215a	20110121.125811	20110121.130733	dt-shadow	8	0.013328	60	10	60-180	60	102	GapExp	0	86	2	3	1	target	1	840	580	53071	13.328	12.938	13.721
DTProbeTrack03	16	ProbeTrackDT	1.1	SCS215a	20110121.125811	20110121.130739	dt-shadow	8	0.013328	60	10	60-180	60	136	GapExp	0	87	2	1	1	target	1	2213	0	53071	13.328	12.885	13.789
DTProbeTrack03	16	ProbeTrackDT	1.1	SCS215a	20110121.125811	20110121.130746	dt-shadow	8	0.013328	60	10	60-180	60	120	GapExp	0	88	2	45	0	distractor	1	773	614	53685	13.328	13.086	13.571
DTProbeTrack03	16	ProbeTrackDT	1.1	SCS215a	20110121.125811	20110121.130753	dt-shadow	8	0.013328	60	10	60-180	60	176	GapExp	0	89	2	1	0	distractor	1	1613	194	53879	13.328	13.173	13.483
DTProbeTrack03	16	ProbeTrackDT	1.1	SCS215a	20110121.125811	20110121.130800	dt-shadow	8	0.013328	60	10	60-180	60	99	GapExp	0	90	2	1	0	distractor	1	2173	0	53879	13.328	13.293	13.365
DTProbeTrack03	16	ProbeTrackDT	1.1	SCS215a	20110121.125811	20110121.130807	dt-shadow	8	0.013328	60	10	60-180	60	168	GapExp	0	91	2	3	0	distractor	1	840	580	54459	13.328	12.970	13.676
DTProbeTrack03	16	ProbeTrackDT	1.1	SCS215a	20110121.125811	20110121.130814	dt-shadow	8	0.013328	60	10	60-180	60	168	GapExp	0	92	2	9	1	target	1	787	607	55066	13.328	13.087	13.564
DTProbeTrack03	16	ProbeTrackDT	1.1	SCS215a	20110121.125811	20110121.130820	dt-shadow	8	0.013328	60	10	60-180	60	109	GapExp	0	93	2	3	0	distractor	1	1307	347	55413	13.328	13.114	13.537
DTProbeTrack03	16	ProbeTrackDT	1.1	SCS215a	20110121.125811	20110121.130826	dt-shadow	8	0.013328	60	10	60-180	60	84	GapExp	0	94	2	3	0	distractor	1	1000	500	55913	13.328	12.902	13.754
DTProbeTrack03	16	ProbeTrackDT	1.1	SCS215a	20110121.125811	20110121.130832	dt-shadow	8	0.013328	60	10	60-180	60	90	GapExp	0	95	2	45	1	target	1	653	674	56587	13.328	12.876	13.791
DTProbeTrack03	16	ProbeTrackDT	1.1	SCS215a	20110121.125811	20110121.130838	dt-shadow	8	0.013328	60	10	60-180	60	110	GapExp	0	96	2	9	1	target	1	760	620	57207	13.328	13.306	13.358
DTProbeTrack03	16	ProbeTrackDT	1.1	SCS215a	20110121.125811	20110121.130844	dt-shadow	8	0.013328	60	10	60-180	60	101	GapExp	0	97	2	3	1	target	1	1373	314	57521	13.328	13.100	13.553
DTProbeTrack03	16	ProbeTrackDT	1.1	SCS215a	20110121.125811	20110121.130850	dt-shadow	8	0.013328	60	10	60-180	60	64	GapExp	0	98	2	1	0	distractor	1	1173	414	57935	13.328	13.308	13.347
DTProbeTrack03	16	ProbeTrackDT	1.1	SCS215a	20110121.125811	20110121.130855	dt-shadow	8	0.013328	60	10	60-180	60	165	GapExp	0	99	2	45	0	distractor	1	760	620	58555	13.328	13.050	13.602
DTProbeTrack03	16	ProbeTrackDT	1.1	SCS215a	20110121.125811	20110121.130902	dt-shadow	8	0.013328	60	10	60-180	60	127	GapExp	0	100	2	1	1	target	1	1080	460	59015	13.328	12.930	13.728
DTProbeTrack03	16	ProbeTrackDT	1.1	SCS215a	20110121.125811	20110121.130934	dt-shadow	8	0.013328	60	10	60-180	60	117	GapExp	0	101	2	1	1	target	1	2013	0	59015	13.328	13.104	13.551
DTProbeTrack03	16	ProbeTrackDT	1.1	SCS215a	20110121.125811	20110121.130942	dt-shadow	8	0.013328	60	10	60-180	60	88	GapExp	0	102	2	1	0	distractor	1	880	560	59575	13.328	13.005	13.646
DTProbeTrack03	16	ProbeTrackDT	1.1	SCS215a	20110121.125811	20110121.130947	dt-shadow	8	0.013328	60	10	60-180	60	178	GapExp	0	103	2	1	0	distractor	1	17966	0	59575	13.328	13.089	13.565
DTProbeTrack03	16	ProbeTrackDT	1.1	SCS215a	20110121.125811	20110121.131011	dt-shadow	8	0.013328	60	10	60-180	60	106	GapExp	0	104	2	9	1	target	1	1466	267	59842	13.328	13.307	13.348
DTProbeTrack03	16	ProbeTrackDT	1.1	SCS215a	20110121.125811	20110121.131017	dt-shadow	8	0.013328	60	10	60-180	60	105	GapExp	0	105	2	3	1	target	1	2066	0	59842	13.328	13.152	13.497
DTProbeTrack03	16	ProbeTrackDT	1.1	SCS215a	20110121.125811	20110121.131024	dt-shadow	8	0.013328	60	10	60-180	60	93	GapExp	0	106	2	6	1	target	1	1253	374	60216	13.328	12.907	13.734
DTProbeTrack03	16	ProbeTrackDT	1.1	SCS215a	20110121.125811	20110121.131030	dt-shadow	8	0.013328	60	10	60-180	60	144	GapExp	0	107	2	6	1	target	1	1173	414	60630	13.328	12.856	13.808
DTProbeTrack03	16	ProbeTrackDT	1.1	SCS215a	20110121.125811	20110121.131037	dt-shadow	8	0.013328	60	10	60-180	60	79	GapExp	0	108	2	9	1	target	1	1453	274	60904	13.328	12.906	13.737
DTProbeTrack03	16	ProbeTrackDT	1.1	SCS215a	20110121.125811	20110121.131043	dt-shadow	8	0.013328	60	10	60-180	60	87	GapExp	0	109	2	3	0	distractor	1	787	607	61511	13.328	12.934	13.715
DTProbeTrack03	16	ProbeTrackDT	1.1	SCS215a	20110121.125811	20110121.131048	dt-shadow	8	0.013328	60	10	60-180	60	120	GapExp	0	110	2	9	0	distractor	1	960	520	62031	13.328	12.993	13.658
DTProbeTrack03	16	ProbeTrackDT	1.1	SCS215a	20110121.125811	20110121.131054	dt-shadow	8	0.013328	60	10	60-180	60	140	GapExp	0	111	2	45	0	distractor	1	920	540	62571	13.328	13.307	13.347
DTProbeTrack03	16	ProbeTrackDT	1.1	SCS215a	20110121.125811	20110121.131101	dt-shadow	8	0.013328	60	10	60-180	60	150	GapExp	0	112	2	1	0	distractor	1	987	507	63078	13.328	13.308	13.348
DTProbeTrack03	16	ProbeTrackDT	1.1	SCS215a	20110121.125811	20110121.131107	dt-shadow	8	0.013328	60	10	60-180	60	73	GapExp	0	113	2	9	1	target	1	1453	274	63352	13.328	13.307	13.348
DTProbeTrack03	16	ProbeTrackDT	1.1	SCS215a	20110121.125811	20110121.131113	dt-shadow	8	0.013328	60	10	60-180	60	137	GapExp	0	114	2	1	0	distractor	1	1680	160	63512	13.328	12.874	13.799
DTProbeTrack03	16	ProbeTrackDT	1.1	SCS215a	20110121.125811	20110121.131120	dt-shadow	8	0.013328	60	10	60-180	60	128	GapExp	0	115	2	6	1	target	1	1640	180	63692	13.328	12.848	13.801
DTProbeTrack03	16	ProbeTrackDT	1.1	SCS215a	20110121.125811	20110121.131127	dt-shadow	8	0.013328	60	10	60-180	60	134	GapExp	0	116	2	3	1	target	1	813	594	64286	13.328	13.024	13.626
DTProbeTrack03	16	ProbeTrackDT	1.1	SCS215a	20110121.125811	20110121.131133	dt-shadow	8	0.013328	60	10	60-180	60	118	GapExp	0	117	2	6	0	distractor	1	733	634	64920	13.328	13.099	13.564
DTProbeTrack03	16	ProbeTrackDT	1.1	SCS215a	20110121.125811	20110121.131139	dt-shadow	8	0.013328	60	10	60-180	60	99	GapExp	0	118	2	3	0	distractor	1	973	514	65434	13.328	13.098	13.552
DTProbeTrack03	16	ProbeTrackDT	1.1	SCS215a	20110121.125811	20110121.131145	dt-shadow	8	0.013328	60	10	60-180	60	170	GapExp	0	119	2	9	1	target	1	1320	340	65774	13.328	12.952	13.703
DTProbeTrack03	16	ProbeTrackDT	1.1	SCS215a	20110121.125811	20110121.131152	dt-shadow	8	0.013328	60	10	60-180	60	121	GapExp	0	120	2	45	1	target	1	987	507	66281	13.328	12.938	13.702
DTProbeTrack03	16	ProbeTrackDT	1.1	SCS215a	20110121.125811	20110121.131158	dt-shadow	8	0.013328	60	10	60-180	60	62	GapExp	0	121	2	3	0	distractor	1	1000	500	66781	13.328	12.931	13.725
DTProbeTrack03	16	ProbeTrackDT	1.1	SCS215a	20110121.125811	20110121.131204	dt-shadow	8	0.013328	60	10	60-180	60	82	GapExp	0	122	2	1	1	target	1	1400	300	67081	13.327	13.052	13.349
DTProbeTrack03	16	ProbeTrackDT	1.1	SCS215a	20110121.125811	20110121.131210	dt-shadow	8	0.013328	60	10	60-180	60	90	GapExp	0	123	2	1	0	distractor	1	1346	327	67408	13.328	13.309	13.348
DTProbeTrack03	16	ProbeTrackDT	1.1	SCS215a	20110121.125811	20110121.131216	dt-shadow	8	0.013328	60	10	60-180	60	162	GapExp	0	124	2	9	1	target	1	1253	374	67782	13.328	13.107	13.563
DTProbeTrack03	16	ProbeTrackDT	1.1	SCS215a	20110121.125811	20110121.131223	dt-shadow	8	0.013328	60	10	60-180	60	132	GapExp	0	125	2	9	0	distractor	1	707	647	68429	13.328	13.088	13.568
DTProbeTrack03	16	ProbeTrackDT	1.1	SCS215a	20110121.125811	20110121.131229	dt-shadow	8	0.013328	60	10	60-180	60	125	GapExp	0	126	2	9	1	target	1	1067	467	68896	13.328	12.873	13.782
DTProbeTrack03	16	ProbeTrackDT	1.1	SCS215a	20110121.125811	20110121.131235	dt-shadow	8	0.013328	60	10	60-180	60	147	GapExp	0	127	2	45	1	target	1	933	534	69430	13.328	13.106	13.552
DTProbeTrack03	16	ProbeTrackDT	1.1	SCS215a	20110121.125811	20110121.131242	dt-shadow	8	0.013328	60	10	60-180	60	87	GapExp	0	128	2	6	1	target	1	1613	194	69624	13.328	13.090	13.557
DTProbeTrack03	16	ProbeTrackDT	1.1	SCS215a	20110121.125811	20110121.131248	dt-shadow	8	0.013328	60	10	60-180	60	64	GapExp	0	129	2	45	1	distractor	0	827	-1000	68624	13.328	13.105	13.543
DTProbeTrack03	16	ProbeTrackDT	1.1	SCS215a	20110121.125811	20110121.131254	dt-shadow	8	0.013328	60	10	60-180	60	180	GapExp	0	130	2	1	0	distractor	1	1000	500	69124	13.328	13.160	13.505
DTProbeTrack03	16	ProbeTrackDT	1.1	SCS215a	20110121.125811	20110121.131301	dt-shadow	8	0.013328	60	10	60-180	60	175	GapExp	0	131	2	9	0	distractor	1	1160	420	69544	13.328	12.912	13.731
DTProbeTrack03	16	ProbeTrackDT	1.1	SCS215a	20110121.125811	20110121.131308	dt-shadow	8	0.013328	60	10	60-180	60	162	GapExp	0	132	2	9	1	target	1	947	527	70071	13.328	13.307	13.348
DTProbeTrack03	16	ProbeTrackDT	1.1	SCS215a	20110121.125811	20110121.131314	dt-shadow	8	0.013328	60	10	60-180	60	113	GapExp	0	133	2	6	0	distractor	1	1027	487	70558	13.328	13.306	13.348
DTProbeTrack03	16	ProbeTrackDT	1.1	SCS215a	20110121.125811	20110121.131320	dt-shadow	8	0.013328	60	10	60-180	60	81	GapExp	0	134	2	3	1	distractor	0	1440	-1000	69558	13.328	13.298	13.354
DTProbeTrack03	16	ProbeTrackDT	1.1	SCS215a	20110121.125811	20110121.131326	dt-shadow	8	0.013328	60	10	60-180	60	145	GapExp	0	135	2	9	1	target	1	840	580	70138	13.328	13.204	13.444
DTProbeTrack03	16	ProbeTrackDT	1.1	SCS215a	20110121.125811	20110121.131333	dt-shadow	8	0.013328	60	10	60-180	60	122	GapExp	0	136	2	45	1	target	1	1480	260	70398	13.328	13.108	13.548
DTProbeTrack03	16	ProbeTrackDT	1.1	SCS215a	20110121.125811	20110121.131340	dt-shadow	8	0.013328	60	10	60-180	60	146	GapExp	0	137	2	6	1	target	1	800	600	70998	13.418	12.954	39.992
DTProbeTrack03	16	ProbeTrackDT	1.1	SCS215a	20110121.125811	20110121.131346	dt-shadow	8	0.013328	60	10	60-180	60	62	GapExp	0	138	2	1	1	target	1	920	540	71538	13.328	13.000	13.643
DTProbeTrack03	16	ProbeTrackDT	1.1	SCS215a	20110121.125811	20110121.131351	dt-shadow	8	0.013328	60	10	60-180	60	174	GapExp	0	139	2	1	0	distractor	1	853	574	72112	13.328	12.860	13.789
DTProbeTrack03	16	ProbeTrackDT	1.1	SCS215a	20110121.125811	20110121.131358	dt-shadow	8	0.013328	60	10	60-180	60	161	GapExp	0	140	2	3	0	distractor	1	1733	134	72246	13.328	13.093	13.563
DTProbeTrack03	16	ProbeTrackDT	1.1	SCS215a	20110121.125811	20110121.131405	dt-shadow	8	0.013328	60	10	60-180	60	95	GapExp	0	141	2	3	1	target	1	987	507	72753	13.328	12.869	13.791
DTProbeTrack03	16	ProbeTrackDT	1.1	SCS215a	20110121.125811	20110121.131411	dt-shadow	8	0.013328	60	10	60-180	60	99	GapExp	0	142	2	9	1	target	1	1267	367	73120	13.328	13.306	13.354
DTProbeTrack03	16	ProbeTrackDT	1.1	SCS215a	20110121.125811	20110121.131417	dt-shadow	8	0.013328	60	10	60-180	60	141	GapExp	0	143	2	1	0	distractor	1	1000	500	73620	13.328	13.300	13.360
DTProbeTrack03	16	ProbeTrackDT	1.1	SCS215a	20110121.125811	20110121.131423	dt-shadow	8	0.013328	60	10	60-180	60	120	GapExp	0	144	2	45	1	target	1	1560	220	73840	13.328	12.882	13.760
DTProbeTrack03	16	ProbeTrackDT	1.1	SCS215a	20110121.125811	20110121.131430	dt-shadow	8	0.013328	60	10	60-180	60	72	GapExp	0	145	2	45	0	distractor	1	1213	394	74234	13.328	13.309	13.350
DTProbeTrack03	16	ProbeTrackDT	1.1	SCS215a	20110121.125811	20110121.131437	dt-shadow	8	0.013328	60	10	60-180	60	126	GapExp	0	146	2	45	0	distractor	1	1813	94	74328	13.328	13.309	13.348
DTProbeTrack03	16	ProbeTrackDT	1.1	SCS215a	20110121.125811	20110121.131444	dt-shadow	8	0.013328	60	10	60-180	60	120	GapExp	0	147	2	9	0	distractor	1	933	534	74862	13.328	13.295	13.359
DTProbeTrack03	16	ProbeTrackDT	1.1	SCS215a	20110121.125811	20110121.131450	dt-shadow	8	0.013328	60	10	60-180	60	174	GapExp	0	148	2	45	0	distractor	1	1520	240	75102	13.328	12.855	13.811
DTProbeTrack03	16	ProbeTrackDT	1.1	SCS215a	20110121.125811	20110121.131458	dt-shadow	8	0.013328	60	10	60-180	60	124	GapExp	0	149	2	45	1	distractor	0	1440	-1000	74102	13.328	13.057	13.602
DTProbeTrack03	16	ProbeTrackDT	1.1	SCS215a	20110121.125811	20110121.131505	dt-shadow	8	0.013328	60	10	60-180	60	136	GapExp	0	150	2	6	1	target	1	813	594	74696	13.328	13.308	13.354
DTProbeTrack03	16	ProbeTrackDT	1.1	SCS215a	20110121.125811	20110121.131542	dt-shadow	8	0.013328	60	10	60-180	60	136	GapExp	0	151	2	1	1	target	1	933	534	75230	13.328	13.174	13.482
DTProbeTrack03	16	ProbeTrackDT	1.1	SCS215a	20110121.125811	20110121.131548	dt-shadow	8	0.013328	60	10	60-180	60	80	GapExp	0	152	2	9	0	distractor	1	1000	500	75730	13.328	13.308	13.347
DTProbeTrack03	16	ProbeTrackDT	1.1	SCS215a	20110121.125811	20110121.131554	dt-shadow	8	0.013328	60	10	60-180	60	80	GapExp	0	153	2	6	0	distractor	1	1840	80	75810	13.328	12.953	13.710
DTProbeTrack03	16	ProbeTrackDT	1.1	SCS215a	20110121.125811	20110121.131600	dt-shadow	8	0.013328	60	10	60-180	60	75	GapExp	0	154	2	6	0	distractor	1	1573	214	76024	13.328	13.230	13.433
DTProbeTrack03	16	ProbeTrackDT	1.1	SCS215a	20110121.125811	20110121.131606	dt-shadow	8	0.013328	60	10	60-180	60	178	GapExp	0	155	2	1	0	distractor	1	1933	34	76058	13.328	12.870	13.794
DTProbeTrack03	16	ProbeTrackDT	1.1	SCS215a	20110121.125811	20110121.131614	dt-shadow	8	0.013328	60	10	60-180	60	150	GapExp	0	156	2	3	0	distractor	1	960	520	76578	13.328	13.106	13.499
DTProbeTrack03	16	ProbeTrackDT	1.1	SCS215a	20110121.125811	20110121.131621	dt-shadow	8	0.013328	60	10	60-180	60	93	GapExp	0	157	2	45	0	distractor	1	933	534	77112	13.328	12.946	13.715
DTProbeTrack03	16	ProbeTrackDT	1.1	SCS215a	20110121.125811	20110121.131627	dt-shadow	8	0.013328	60	10	60-180	60	82	GapExp	0	158	2	1	0	distractor	1	1306	347	77459	13.328	13.105	13.544
DTProbeTrack03	16	ProbeTrackDT	1.1	SCS215a	20110121.125811	20110121.131633	dt-shadow	8	0.013328	60	10	60-180	60	64	GapExp	0	159	2	6	1	distractor	0	1320	-1000	76459	13.328	12.887	13.776
DTProbeTrack03	16	ProbeTrackDT	1.1	SCS215a	20110121.125811	20110121.131638	dt-shadow	8	0.013328	60	10	60-180	60	65	GapExp	0	160	2	1	0	distractor	1	2346	0	76459	13.328	13.302	13.345
DTProbeTrack03	16	ProbeTrackDT	1.1	SCS215a	20110121.125811	20110121.131645	dt-shadow	8	0.013328	60	10	60-180	60	122	GapExp	0	161	2	6	0	distractor	1	1840	80	76539	13.328	13.235	13.401
DTProbeTrack03	16	ProbeTrackDT	1.1	SCS215a	20110121.125811	20110121.131652	dt-shadow	8	0.013328	60	10	60-180	60	163	GapExp	0	162	2	3	1	target	1	907	547	77086	13.328	12.851	13.805
DTProbeTrack03	16	ProbeTrackDT	1.1	SCS215a	20110121.125811	20110121.131658	dt-shadow	8	0.013328	60	10	60-180	60	145	GapExp	0	163	2	3	1	target	1	800	600	77686	13.328	13.307	13.349
DTProbeTrack03	16	ProbeTrackDT	1.1	SCS215a	20110121.125811	20110121.131704	dt-shadow	8	0.013328	60	10	60-180	60	101	GapExp	0	164	2	6	0	distractor	1	1933	34	77720	13.328	13.310	13.346
DTProbeTrack03	16	ProbeTrackDT	1.1	SCS215a	20110121.125811	20110121.131711	dt-shadow	8	0.013328	60	10	60-180	60	106	GapExp	0	165	2	1	1	target	1	1200	400	78120	13.328	12.846	13.796
DTProbeTrack03	16	ProbeTrackDT	1.1	SCS215a	20110121.125811	20110121.131717	dt-shadow	8	0.013328	60	10	60-180	60	167	GapExp	0	166	2	6	1	target	1	1333	334	78454	13.328	13.074	13.592
DTProbeTrack03	16	ProbeTrackDT	1.1	SCS215a	20110121.125811	20110121.131724	dt-shadow	8	0.013328	60	10	60-180	60	173	GapExp	0	167	2	6	1	target	1	1400	300	78754	13.328	13.093	13.569
DTProbeTrack03	16	ProbeTrackDT	1.1	SCS215a	20110121.125811	20110121.131731	dt-shadow	8	0.013328	60	10	60-180	60	167	GapExp	0	168	2	45	1	distractor	0	733	-1000	77754	13.328	13.181	13.477
DTProbeTrack03	16	ProbeTrackDT	1.1	SCS215a	20110121.125811	20110121.131738	dt-shadow	8	0.013328	60	10	60-180	60	93	GapExp	0	169	2	3	0	distractor	1	960	520	78274	13.328	13.262	13.383
DTProbeTrack03	16	ProbeTrackDT	1.1	SCS215a	20110121.125811	20110121.131744	dt-shadow	8	0.013328	60	10	60-180	60	99	GapExp	0	170	2	1	1	target	1	1440	280	78554	13.328	12.933	13.718
DTProbeTrack03	16	ProbeTrackDT	1.1	SCS215a	20110121.125811	20110121.131750	dt-shadow	8	0.013328	60	10	60-180	60	93	GapExp	0	171	2	3	1	target	1	1013	494	79048	13.328	13.085	13.556
DTProbeTrack03	16	ProbeTrackDT	1.1	SCS215a	20110121.125811	20110121.131756	dt-shadow	8	0.013328	60	10	60-180	60	135	GapExp	0	172	2	3	1	target	1	1187	407	79455	13.328	13.096	13.549
DTProbeTrack03	16	ProbeTrackDT	1.1	SCS215a	20110121.125811	20110121.131802	dt-shadow	8	0.013328	60	10	60-180	60	138	GapExp	0	173	2	9	0	distractor	1	1973	14	79469	13.328	12.998	13.644
DTProbeTrack03	16	ProbeTrackDT	1.1	SCS215a	20110121.125811	20110121.131810	dt-shadow	8	0.013328	60	10	60-180	60	99	GapExp	0	174	2	9	0	distractor	1	1946	27	79496	13.328	13.310	13.344
DTProbeTrack03	16	ProbeTrackDT	1.1	SCS215a	20110121.125811	20110121.131816	dt-shadow	8	0.013328	60	10	60-180	60	117	GapExp	0	175	2	9	1	target	1	1360	320	79816	13.328	13.215	13.454
DTProbeTrack03	16	ProbeTrackDT	1.1	SCS215a	20110121.125811	20110121.131823	dt-shadow	8	0.013328	60	10	60-180	60	155	GapExp	0	176	2	45	0	distractor	1	813	594	80410	13.328	13.119	13.538
DTProbeTrack03	16	ProbeTrackDT	1.1	SCS215a	20110121.125811	20110121.131830	dt-shadow	8	0.013328	60	10	60-180	60	92	GapExp	0	177	2	45	1	target	1	960	520	80930	13.328	12.873	13.777
DTProbeTrack03	16	ProbeTrackDT	1.1	SCS215a	20110121.125811	20110121.131836	dt-shadow	8	0.013328	60	10	60-180	60	108	GapExp	0	178	2	3	1	target	1	1080	460	81390	13.328	12.946	13.723
DTProbeTrack03	16	ProbeTrackDT	1.1	SCS215a	20110121.125811	20110121.131842	dt-shadow	8	0.013328	60	10	60-180	60	62	GapExp	0	179	2	9	1	target	1	707	647	82037	13.328	12.968	13.696
DTProbeTrack03	16	ProbeTrackDT	1.1	SCS215a	20110121.125811	20110121.131847	dt-shadow	8	0.013328	60	10	60-180	60	66	GapExp	0	180	2	6	1	target	1	813	594	82631	13.328	13.092	13.551
DTProbeTrack03	16	ProbeTrackDT	1.1	SCS215a	20110121.125811	20110121.131852	dt-shadow	8	0.013328	60	10	60-180	60	62	GapExp	0	181	2	9	0	distractor	1	707	647	83278	13.328	12.917	13.731
DTProbeTrack03	16	ProbeTrackDT	1.1	SCS215a	20110121.125811	20110121.131857	dt-shadow	8	0.013328	60	10	60-180	60	161	GapExp	0	182	2	1	1	target	1	840	580	83858	13.328	12.864	13.791
DTProbeTrack03	16	ProbeTrackDT	1.1	SCS215a	20110121.125811	20110121.131903	dt-shadow	8	0.013328	60	10	60-180	60	69	GapExp	0	183	2	45	0	distractor	1	733	634	84492	13.328	13.304	13.347
DTProbeTrack03	16	ProbeTrackDT	1.1	SCS215a	20110121.125811	20110121.131909	dt-shadow	8	0.013328	60	10	60-180	60	101	GapExp	0	184	2	6	1	target	1	1453	274	84766	13.328	12.862	13.792
DTProbeTrack03	16	ProbeTrackDT	1.1	SCS215a	20110121.125811	20110121.131915	dt-shadow	8	0.013328	60	10	60-180	60	167	GapExp	0	185	2	3	1	target	1	613	694	85460	13.328	12.871	13.773
DTProbeTrack03	16	ProbeTrackDT	1.1	SCS215a	20110121.125811	20110121.131922	dt-shadow	8	0.013328	60	10	60-180	60	162	GapExp	0	186	2	3	0	distractor	1	987	507	85967	13.328	12.925	13.753
DTProbeTrack03	16	ProbeTrackDT	1.1	SCS215a	20110121.125811	20110121.131928	dt-shadow	8	0.013328	60	10	60-180	60	98	GapExp	0	187	2	45	0	distractor	1	760	620	86587	13.328	13.091	13.556
DTProbeTrack03	16	ProbeTrackDT	1.1	SCS215a	20110121.125811	20110121.131934	dt-shadow	8	0.013328	60	10	60-180	60	178	GapExp	0	188	2	45	1	target	1	640	680	87267	13.328	12.856	13.788
DTProbeTrack03	16	ProbeTrackDT	1.1	SCS215a	20110121.125811	20110121.131941	dt-shadow	8	0.013328	60	10	60-180	60	113	GapExp	0	189	2	45	1	target	1	733	634	87901	13.328	13.308	13.347
DTProbeTrack03	16	ProbeTrackDT	1.1	SCS215a	20110121.125811	20110121.131948	dt-shadow	8	0.013328	60	10	60-180	60	73	GapExp	0	190	2	3	1	target	1	667	667	88568	13.328	12.895	13.765
DTProbeTrack03	16	ProbeTrackDT	1.1	SCS215a	20110121.125811	20110121.131953	dt-shadow	8	0.013328	60	10	60-180	60	98	GapExp	0	191	2	1	0	distractor	1	693	654	89222	13.328	12.992	13.664
DTProbeTrack03	16	ProbeTrackDT	1.1	SCS215a	20110121.125811	20110121.131958	dt-shadow	8	0.013328	60	10	60-180	60	176	GapExp	0	192	2	3	1	target	1	1373	314	89536	13.328	13.025	13.640
DTProbeTrack03	16	ProbeTrackDT	1.1	SCS215a	20110121.125811	20110121.132005	dt-shadow	8	0.013328	60	10	60-180	60	164	GapExp	0	193	2	9	0	distractor	1	720	640	90176	13.328	13.102	13.558
DTProbeTrack03	16	ProbeTrackDT	1.1	SCS215a	20110121.125811	20110121.132012	dt-shadow	8	0.013328	60	10	60-180	60	142	GapExp	0	194	2	45	1	target	1	773	614	90790	13.328	13.115	13.543
DTProbeTrack03	16	ProbeTrackDT	1.1	SCS215a	20110121.125811	20110121.132018	dt-shadow	8	0.013328	60	10	60-180	60	117	GapExp	0	195	2	6	1	target	1	693	654	91444	13.328	13.074	13.570
DTProbeTrack03	16	ProbeTrackDT	1.1	SCS215a	20110121.125811	20110121.132024	dt-shadow	8	0.013328	60	10	60-180	60	170	GapExp	0	196	2	45	0	distractor	1	787	607	92051	13.328	13.105	13.551
DTProbeTrack03	16	ProbeTrackDT	1.1	SCS215a	20110121.125811	20110121.132031	dt-shadow	8	0.013328	60	10	60-180	60	84	GapExp	0	197	2	9	1	target	1	614	693	92744	13.328	12.862	13.794
DTProbeTrack03	16	ProbeTrackDT	1.1	SCS215a	20110121.125811	20110121.132036	dt-shadow	8	0.013328	60	10	60-180	60	127	GapExp	0	198	2	45	1	target	1	747	627	93371	13.328	13.097	13.544
DTProbeTrack03	16	ProbeTrackDT	1.1	SCS215a	20110121.125811	20110121.132043	dt-shadow	8	0.013328	60	10	60-180	60	135	GapExp	0	199	2	1	0	distractor	1	813	594	93965	13.328	12.962	13.693
DTProbeTrack03	16	ProbeTrackDT	1.1	SCS215a	20110121.125811	20110121.132049	dt-shadow	8	0.013328	60	10	60-180	60	116	GapExp	0	200	2	9	1	target	1	1520	240	94205	13.328	12.857	13.786
DTProbeTrack03	16	ProbeTrackDT	1.1	SCS215a	20110121.125811	20110121.132101	dt-shadow	8	0.013328	60	10	60-180	60	68	GapExp	0	201	2	1	1	target	1	640	680	94885	13.328	13.088	13.563
DTProbeTrack03	16	ProbeTrackDT	1.1	SCS215a	20110121.125811	20110121.132105	dt-shadow	8	0.013328	60	10	60-180	60	100	GapExp	0	202	2	6	1	target	1	707	647	95532	13.328	13.028	13.642
DTProbeTrack03	16	ProbeTrackDT	1.1	SCS215a	20110121.125811	20110121.132111	dt-shadow	8	0.013328	60	10	60-180	60	178	GapExp	0	203	2	6	0	distractor	1	627	687	96219	13.328	12.998	13.652
DTProbeTrack03	16	ProbeTrackDT	1.1	SCS215a	20110121.125811	20110121.132117	dt-shadow	8	0.013328	60	10	60-180	60	73	GapExp	0	204	2	1	1	target	1	800	600	96819	13.328	13.184	13.460
DTProbeTrack03	16	ProbeTrackDT	1.1	SCS215a	20110121.125811	20110121.132123	dt-shadow	8	0.013328	60	10	60-180	60	82	GapExp	0	205	2	9	0	distractor	1	720	640	97459	13.328	13.309	13.348
DTProbeTrack03	16	ProbeTrackDT	1.1	SCS215a	20110121.132406	20110121.132414	dt-generate	8	0.013328	60	10	60-180	60	105	GapPrac	1	1	2	3	1	target	1	2959	0	97459	13.328	13.090	13.566
DTProbeTrack03	16	ProbeTrackDT	1.1	SCS215a	20110121.132406	20110121.132422	dt-generate	8	0.013328	60	10	60-180	60	150	GapPrac	1	2	2	1	1	target	1	640	680	98139	13.328	13.162	13.545
DTProbeTrack03	16	ProbeTrackDT	1.1	SCS215a	20110121.132406	20110121.132428	dt-generate	8	0.013328	60	10	60-180	60	78	GapPrac	1	3	2	1	0	distractor	1	614	693	98832	13.328	13.091	13.571
DTProbeTrack03	16	ProbeTrackDT	1.1	SCS215a	20110121.132406	20110121.132433	dt-generate	8	0.013328	60	10	60-180	60	162	GapPrac	1	4	2	1	1	distractor	0	693	-1000	97832	13.328	13.141	13.525
DTProbeTrack03	16	ProbeTrackDT	1.1	SCS215a	20110121.132406	20110121.132439	dt-generate	8	0.013328	60	10	60-180	60	137	GapPrac	1	5	2	45	1	target	1	1000	500	98332	13.328	13.162	13.491
DTProbeTrack03	16	ProbeTrackDT	1.1	SCS215a	20110121.132406	20110121.132446	dt-generate	8	0.013328	60	10	60-180	60	124	GapPrac	1	6	2	3	1	target	1	747	627	98959	13.328	13.006	13.661
DTProbeTrack03	16	ProbeTrackDT	1.1	SCS215a	20110121.132406	20110121.132452	dt-generate	8	0.013328	60	10	60-180	60	103	GapPrac	1	7	2	9	0	distractor	1	1466	267	99226	13.328	13.098	13.553
DTProbeTrack03	16	ProbeTrackDT	1.1	SCS215a	20110121.132406	20110121.132458	dt-generate	8	0.013328	60	10	60-180	60	124	GapPrac	1	8	2	9	1	target	1	787	607	99833	13.328	13.091	13.565
DTProbeTrack03	16	ProbeTrackDT	1.1	SCS215a	20110121.132406	20110121.132504	dt-generate	8	0.013328	60	10	60-180	60	61	GapPrac	1	9	2	45	1	distractor	0	1133	-1000	98833	13.328	13.087	13.569
DTProbeTrack03	16	ProbeTrackDT	1.1	SCS215a	20110121.132406	20110121.132510	dt-generate	8	0.013328	60	10	60-180	60	76	GapPrac	1	10	2	3	0	distractor	1	1306	347	99180	13.328	13.296	13.348
DTProbeTrack03	16	ProbeTrackDT	1.1	SCS215a	20110121.132406	20110121.132516	dt-generate	8	0.013328	60	10	60-180	60	68	GapPrac	1	11	2	1	0	distractor	1	2613	0	99180	13.328	13.311	13.347
DTProbeTrack03	16	ProbeTrackDT	1.1	SCS215a	20110121.132406	20110121.132523	dt-generate	8	0.013328	60	10	60-180	60	96	GapPrac	1	12	2	6	0	distractor	1	1213	394	99574	13.328	12.860	13.791
DTProbeTrack03	16	ProbeTrackDT	1.1	SCS215a	20110121.132406	20110121.132529	dt-generate	8	0.013328	60	10	60-180	60	79	GapPrac	1	13	2	6	1	target	1	1107	447	100021	13.328	13.021	13.646
DTProbeTrack03	16	ProbeTrackDT	1.1	SCS215a	20110121.132406	20110121.132534	dt-generate	8	0.013328	60	10	60-180	60	62	GapPrac	1	14	2	9	1	target	1	1306	347	100368	13.328	13.224	13.426
DTProbeTrack03	16	ProbeTrackDT	1.1	SCS215a	20110121.132406	20110121.132540	dt-generate	8	0.013328	60	10	60-180	60	67	GapPrac	1	15	2	3	0	distractor	1	2253	0	100368	13.328	13.107	13.554
DTProbeTrack03	16	ProbeTrackDT	1.1	SCS215a	20110121.132406	20110121.132546	dt-generate	8	0.013328	60	10	60-180	60	146	GapPrac	1	16	2	45	0	distractor	1	2239	0	100368	13.328	13.111	13.545
DTProbeTrack03	16	ProbeTrackDT	1.1	SCS215a	20110121.132406	20110121.132555	dt-generate	8	0.013328	60	10	60-180	60	141	GapPrac	1	17	2	6	1	target	1	2013	0	100368	13.328	13.082	13.564
DTProbeTrack03	16	ProbeTrackDT	1.1	SCS215a	20110121.132406	20110121.132602	dt-generate	8	0.013328	60	10	60-180	60	114	GapPrac	1	18	2	9	0	distractor	1	653	674	101042	13.328	13.109	13.552
DTProbeTrack03	16	ProbeTrackDT	1.1	SCS215a	20110121.132406	20110121.132608	dt-generate	8	0.013328	60	10	60-180	60	122	GapPrac	1	19	2	45	0	distractor	1	774	613	101655	13.328	13.090	13.571
DTProbeTrack03	16	ProbeTrackDT	1.1	SCS215a	20110121.132406	20110121.132614	dt-generate	8	0.013328	60	10	60-180	60	68	GapPrac	1	20	2	6	0	distractor	1	893	554	102209	13.328	12.902	13.762
DTProbeTrack03	16	ProbeTrackDT	1.1	SCS215a	20110121.132650	20110121.132701	dt-generate	8	0.013328	60	10	60-180	60	176	GapExp	1	1	2	45	1	target	1	920	540	102749	13.328	12.877	13.773
DTProbeTrack03	16	ProbeTrackDT	1.1	SCS215a	20110121.132650	20110121.132708	dt-generate	8	0.013328	60	10	60-180	60	107	GapExp	1	2	2	9	1	target	1	1733	134	102883	13.328	12.937	13.727
DTProbeTrack03	16	ProbeTrackDT	1.1	SCS215a	20110121.132650	20110121.132715	dt-generate	8	0.013328	60	10	60-180	60	112	GapExp	1	3	2	3	0	distractor	1	1293	354	103237	13.328	13.227	13.429
DTProbeTrack03	16	ProbeTrackDT	1.1	SCS215a	20110121.132650	20110121.132721	dt-generate	8	0.013328	60	10	60-180	60	152	GapExp	1	4	2	1	1	target	1	1320	340	103577	13.328	13.079	13.570
DTProbeTrack03	16	ProbeTrackDT	1.1	SCS215a	20110121.132650	20110121.132728	dt-generate	8	0.013328	60	10	60-180	60	124	GapExp	1	5	2	3	1	target	1	1866	67	103644	13.328	13.310	13.347
DTProbeTrack03	16	ProbeTrackDT	1.1	SCS215a	20110121.132650	20110121.132735	dt-generate	8	0.013328	60	10	60-180	60	128	GapExp	0	6	2	3	0	distractor	1	800	600	104244	13.328	13.308	13.347
DTProbeTrack03	16	ProbeTrackDT	1.1	SCS215a	20110121.132650	20110121.132741	dt-generate	8	0.013328	60	10	60-180	60	174	GapExp	0	7	2	3	1	target	1	773	614	104858	13.328	13.309	13.347
DTProbeTrack03	16	ProbeTrackDT	1.1	SCS215a	20110121.132650	20110121.132747	dt-generate	8	0.013328	60	10	60-180	60	65	GapExp	0	8	2	9	1	target	1	800	600	105458	13.328	13.308	13.348
DTProbeTrack03	16	ProbeTrackDT	1.1	SCS215a	20110121.132650	20110121.132752	dt-generate	8	0.013328	60	10	60-180	60	125	GapExp	0	9	2	6	1	target	1	2199	0	105458	13.328	13.105	13.564
DTProbeTrack03	16	ProbeTrackDT	1.1	SCS215a	20110121.132650	20110121.132800	dt-generate	8	0.013328	60	10	60-180	60	130	GapExp	0	10	2	9	1	target	1	800	600	106058	13.328	12.840	13.804
DTProbeTrack03	16	ProbeTrackDT	1.1	SCS215a	20110121.132650	20110121.132806	dt-generate	8	0.013328	60	10	60-180	60	71	GapExp	0	11	2	1	1	target	1	827	587	106645	13.328	13.097	13.565
DTProbeTrack03	16	ProbeTrackDT	1.1	SCS215a	20110121.132650	20110121.132811	dt-generate	8	0.013328	60	10	60-180	60	69	GapExp	0	12	2	3	1	target	1	1147	427	107072	13.328	13.268	13.381
DTProbeTrack03	16	ProbeTrackDT	1.1	SCS215a	20110121.132650	20110121.132816	dt-generate	8	0.013328	60	10	60-180	60	116	GapExp	0	13	2	9	0	distractor	1	1493	254	107326	13.328	12.893	13.768
DTProbeTrack03	16	ProbeTrackDT	1.1	SCS215a	20110121.132650	20110121.132823	dt-generate	8	0.013328	60	10	60-180	60	158	GapExp	0	14	2	6	1	target	1	987	507	107833	13.328	12.847	13.795
DTProbeTrack03	16	ProbeTrackDT	1.1	SCS215a	20110121.132650	20110121.132830	dt-generate	8	0.013328	60	10	60-180	60	180	GapExp	0	15	2	45	0	distractor	1	1613	194	108027	13.328	12.917	13.759
DTProbeTrack03	16	ProbeTrackDT	1.1	SCS215a	20110121.132650	20110121.132838	dt-generate	8	0.013328	60	10	60-180	60	94	GapExp	0	16	2	1	1	target	1	1520	240	108267	13.328	12.891	13.753
DTProbeTrack03	16	ProbeTrackDT	1.1	SCS215a	20110121.132650	20110121.132844	dt-generate	8	0.013328	60	10	60-180	60	65	GapExp	0	17	2	3	1	target	1	707	647	108914	13.328	12.853	13.794
DTProbeTrack03	16	ProbeTrackDT	1.1	SCS215a	20110121.132650	20110121.132849	dt-generate	8	0.013328	60	10	60-180	60	83	GapExp	0	18	2	3	0	distractor	1	1360	320	109234	13.328	13.110	13.539
DTProbeTrack03	16	ProbeTrackDT	1.1	SCS215a	20110121.132650	20110121.132855	dt-generate	8	0.013328	60	10	60-180	60	108	GapExp	0	19	2	45	0	distractor	1	853	574	109808	13.328	13.049	13.608
DTProbeTrack03	16	ProbeTrackDT	1.1	SCS215a	20110121.132650	20110121.132901	dt-generate	8	0.013328	60	10	60-180	60	65	GapExp	0	20	2	3	1	distractor	0	1173	-1000	108808	13.390	13.183	26.657
DTProbeTrack03	16	ProbeTrackDT	1.1	SCS215a	20110121.132650	20110121.132906	dt-generate	8	0.013328	60	10	60-180	60	91	GapExp	0	21	2	3	1	target	1	733	634	109442	13.328	13.137	13.534
DTProbeTrack03	16	ProbeTrackDT	1.1	SCS215a	20110121.132650	20110121.132912	dt-generate	8	0.013328	60	10	60-180	60	173	GapExp	0	22	2	9	0	target	0	2573	-1000	108442	13.328	12.895	13.761
DTProbeTrack03	16	ProbeTrackDT	1.1	SCS215a	20110121.132650	20110121.132920	dt-generate	8	0.013328	60	10	60-180	60	137	GapExp	0	23	2	45	1	target	1	1080	460	108902	13.328	12.882	13.789
DTProbeTrack03	16	ProbeTrackDT	1.1	SCS215a	20110121.132650	20110121.132927	dt-generate	8	0.013328	60	10	60-180	60	157	GapExp	0	24	2	9	0	distractor	1	587	707	109609	13.328	13.309	13.356
DTProbeTrack03	16	ProbeTrackDT	1.1	SCS215a	20110121.132650	20110121.132933	dt-generate	8	0.013328	60	10	60-180	60	146	GapExp	0	25	2	6	0	distractor	1	1067	467	110076	13.328	13.308	13.360
DTProbeTrack03	16	ProbeTrackDT	1.1	SCS215a	20110121.132650	20110121.132940	dt-generate	8	0.013328	60	10	60-180	60	109	GapExp	0	26	2	1	1	target	1	1053	474	110550	13.328	13.045	13.619
DTProbeTrack03	16	ProbeTrackDT	1.1	SCS215a	20110121.132650	20110121.132946	dt-generate	8	0.013328	60	10	60-180	60	153	GapExp	0	27	2	1	1	target	1	1293	354	110904	13.328	13.104	13.563
DTProbeTrack03	16	ProbeTrackDT	1.1	SCS215a	20110121.132650	20110121.132952	dt-generate	8	0.013328	60	10	60-180	60	91	GapExp	0	28	2	9	1	distractor	0	667	-1000	109904	13.328	12.886	13.772
DTProbeTrack03	16	ProbeTrackDT	1.1	SCS215a	20110121.132650	20110121.132958	dt-generate	8	0.013328	60	10	60-180	60	140	GapExp	0	29	2	6	0	distractor	1	1266	367	110271	13.328	13.093	13.557
DTProbeTrack03	16	ProbeTrackDT	1.1	SCS215a	20110121.132650	20110121.133004	dt-generate	8	0.013328	60	10	60-180	60	107	GapExp	0	30	2	6	1	target	1	813	594	110865	13.328	13.030	13.630
DTProbeTrack03	16	ProbeTrackDT	1.1	SCS215a	20110121.132650	20110121.133010	dt-generate	8	0.013328	60	10	60-180	60	164	GapExp	0	31	2	6	1	target	1	1613	194	111059	13.328	13.309	13.349
DTProbeTrack03	16	ProbeTrackDT	1.1	SCS215a	20110121.132650	20110121.133017	dt-generate	8	0.013328	60	10	60-180	60	89	GapExp	0	32	2	3	1	target	1	1253	374	111433	13.328	13.305	13.356
DTProbeTrack03	16	ProbeTrackDT	1.1	SCS215a	20110121.132650	20110121.133023	dt-generate	8	0.013328	60	10	60-180	60	72	GapExp	0	33	2	1	0	distractor	1	2053	0	111433	13.328	13.310	13.345
DTProbeTrack03	16	ProbeTrackDT	1.1	SCS215a	20110121.132650	20110121.133030	dt-generate	8	0.013328	60	10	60-180	60	126	GapExp	0	34	2	3	1	distractor	0	4598	-1000	110433	13.328	13.245	13.413
DTProbeTrack03	16	ProbeTrackDT	1.1	SCS215a	20110121.132650	20110121.133039	dt-generate	8	0.013328	60	10	60-180	60	169	GapExp	0	35	2	9	1	target	1	1893	54	110487	13.328	12.718	13.938
DTProbeTrack03	16	ProbeTrackDT	1.1	SCS215a	20110121.132650	20110121.133047	dt-generate	8	0.013328	60	10	60-180	60	165	GapExp	0	36	2	6	0	target	0	1027	-1000	109487	13.328	13.308	13.358
DTProbeTrack03	16	ProbeTrackDT	1.1	SCS215a	20110121.132650	20110121.133054	dt-generate	8	0.013328	60	10	60-180	60	112	GapExp	0	37	2	1	0	distractor	1	1200	400	109887	13.328	13.098	13.565
DTProbeTrack03	16	ProbeTrackDT	1.1	SCS215a	20110121.132650	20110121.133100	dt-generate	8	0.013328	60	10	60-180	60	120	GapExp	0	38	2	1	0	distractor	1	1280	360	110247	13.328	13.108	13.547
DTProbeTrack03	16	ProbeTrackDT	1.1	SCS215a	20110121.132650	20110121.133106	dt-generate	8	0.013328	60	10	60-180	60	108	GapExp	0	39	2	9	1	target	1	2266	0	110247	13.328	13.311	13.347
DTProbeTrack03	16	ProbeTrackDT	1.1	SCS215a	20110121.132650	20110121.133114	dt-generate	8	0.013328	60	10	60-180	60	141	GapExp	0	40	2	6	1	target	1	734	633	110880	13.328	12.948	13.711
DTProbeTrack03	16	ProbeTrackDT	1.1	SCS215a	20110121.132650	20110121.133120	dt-generate	8	0.013328	60	10	60-180	60	110	GapExp	0	41	2	9	0	distractor	1	1466	267	111147	13.328	13.308	13.347
DTProbeTrack03	16	ProbeTrackDT	1.1	SCS215a	20110121.132650	20110121.133126	dt-generate	8	0.013328	60	10	60-180	60	137	GapExp	0	42	2	6	1	target	1	2559	0	111147	13.328	12.855	13.802
DTProbeTrack03	16	ProbeTrackDT	1.1	SCS215a	20110121.132650	20110121.133134	dt-generate	8	0.013328	60	10	60-180	60	76	GapExp	0	43	2	1	0	distractor	1	6118	0	111147	13.328	13.015	13.654
DTProbeTrack03	16	ProbeTrackDT	1.1	SCS215a	20110121.132650	20110121.133144	dt-generate	8	0.013328	60	10	60-180	60	82	GapExp	0	44	2	6	0	distractor	1	2439	0	111147	13.328	13.096	13.561
DTProbeTrack03	16	ProbeTrackDT	1.1	SCS215a	20110121.132650	20110121.133151	dt-generate	8	0.013328	60	10	60-180	60	80	GapExp	0	45	2	9	0	distractor	1	2573	0	111147	13.328	13.098	13.552
DTProbeTrack03	16	ProbeTrackDT	1.1	SCS215a	20110121.132650	20110121.133159	dt-generate	8	0.013328	60	10	60-180	60	75	GapExp	0	46	2	1	1	target	1	4918	0	111147	13.328	13.095	13.554
DTProbeTrack03	16	ProbeTrackDT	1.1	SCS215a	20110121.132650	20110121.133208	dt-generate	8	0.013328	60	10	60-180	60	174	GapExp	0	47	2	45	1	distractor	0	973	-1000	110147	13.328	12.866	13.796
DTProbeTrack03	16	ProbeTrackDT	1.1	SCS215a	20110121.132650	20110121.133215	dt-generate	8	0.013328	60	10	60-180	60	173	GapExp	0	48	2	3	0	distractor	1	1320	340	110487	13.328	13.117	13.530
DTProbeTrack03	16	ProbeTrackDT	1.1	SCS215a	20110121.132650	20110121.133222	dt-generate	8	0.013328	60	10	60-180	60	149	GapExp	0	49	2	3	0	distractor	1	1013	494	110981	13.328	12.898	13.763
DTProbeTrack03	16	ProbeTrackDT	1.1	SCS215a	20110121.132650	20110121.133229	dt-generate	8	0.013328	60	10	60-180	60	127	GapExp	0	50	2	3	0	distractor	1	880	560	111541	13.328	13.307	13.349
DTProbeTrack03	16	ProbeTrackDT	1.1	SCS215a	20110121.132650	20110121.133253	dt-generate	8	0.013328	60	10	60-180	60	107	GapExp	0	51	2	9	0	distractor	1	3492	0	111541	13.328	12.954	13.712
DTProbeTrack03	16	ProbeTrackDT	1.1	SCS215a	20110121.132650	20110121.133302	dt-generate	8	0.013328	60	10	60-180	60	175	GapExp	0	52	2	45	1	target	1	1240	380	111921	13.328	12.897	13.761
DTProbeTrack03	16	ProbeTrackDT	1.1	SCS215a	20110121.132650	20110121.133309	dt-generate	8	0.013328	60	10	60-180	60	98	GapExp	0	53	2	3	0	distractor	1	1160	420	112341	13.328	13.094	13.357
DTProbeTrack03	16	ProbeTrackDT	1.1	SCS215a	20110121.132650	20110121.133315	dt-generate	8	0.013328	60	10	60-180	60	76	GapExp	0	54	2	9	0	target	0	3719	-1000	111341	13.386	12.945	27.041
DTProbeTrack03	16	ProbeTrackDT	1.1	SCS215a	20110121.132650	20110121.133323	dt-generate	8	0.013328	60	10	60-180	60	110	GapExp	0	55	2	9	1	target	1	720	640	111981	13.328	13.296	13.372
DTProbeTrack03	16	ProbeTrackDT	1.1	SCS215a	20110121.132650	20110121.133329	dt-generate	8	0.013328	60	10	60-180	60	132	GapExp	0	56	2	9	1	target	1	800	600	112581	13.328	13.100	13.557
DTProbeTrack03	16	ProbeTrackDT	1.1	SCS215a	20110121.132650	20110121.133335	dt-generate	8	0.013328	60	10	60-180	60	138	GapExp	0	57	2	45	1	target	1	1920	40	112621	13.409	12.960	27.033
DTProbeTrack03	16	ProbeTrackDT	1.1	SCS215a	20110121.132650	20110121.133343	dt-generate	8	0.013328	60	10	60-180	60	99	GapExp	0	58	2	1	0	target	0	1320	-1000	111621	13.328	13.099	13.538
DTProbeTrack03	16	ProbeTrackDT	1.1	SCS215a	20110121.132650	20110121.133349	dt-generate	8	0.013328	60	10	60-180	60	64	GapExp	0	59	2	3	1	target	1	1253	374	111995	13.328	13.099	13.545
DTProbeTrack03	16	ProbeTrackDT	1.1	SCS215a	20110121.132650	20110121.133354	dt-generate	8	0.013328	60	10	60-180	60	105	GapExp	0	60	2	9	1	target	1	2466	0	111995	13.328	13.175	13.493
DTProbeTrack03	16	ProbeTrackDT	1.1	SCS215a	20110121.132650	20110121.133402	dt-generate	8	0.013328	60	10	60-180	60	175	GapExp	0	61	2	9	1	target	1	653	674	112669	13.328	12.876	13.764
DTProbeTrack03	16	ProbeTrackDT	1.1	SCS215a	20110121.132650	20110121.133408	dt-generate	8	0.013328	60	10	60-180	60	159	GapExp	0	62	2	1	1	distractor	0	1320	-1000	111669	13.503	12.888	39.953
DTProbeTrack03	16	ProbeTrackDT	1.1	SCS215a	20110121.132650	20110121.133415	dt-generate	8	0.013328	60	10	60-180	60	108	GapExp	0	63	2	1	1	target	1	640	680	112349	13.874	12.994	53.311
DTProbeTrack03	16	ProbeTrackDT	1.1	SCS215a	20110121.132650	20110121.133421	dt-generate	8	0.013328	60	10	60-180	60	179	GapExp	0	64	2	3	1	distractor	0	1306	-1000	111349	13.328	13.196	13.474
DTProbeTrack03	16	ProbeTrackDT	1.1	SCS215a	20110121.132650	20110121.133428	dt-generate	8	0.013328	60	10	60-180	60	141	GapExp	0	65	2	6	1	target	1	2972	0	111349	13.328	13.049	13.621
DTProbeTrack03	16	ProbeTrackDT	1.1	SCS215a	20110121.132650	20110121.133436	dt-generate	8	0.013328	60	10	60-180	60	83	GapExp	0	66	2	6	0	distractor	1	1000	500	111849	13.328	12.467	14.147
DTProbeTrack03	16	ProbeTrackDT	1.1	SCS215a	20110121.132650	20110121.133442	dt-generate	8	0.013328	60	10	60-180	60	81	GapExp	0	67	2	1	1	target	1	2053	0	111849	13.328	13.305	13.352
DTProbeTrack03	16	ProbeTrackDT	1.1	SCS215a	20110121.132650	20110121.133448	dt-generate	8	0.013328	60	10	60-180	60	101	GapExp	0	68	2	9	1	distractor	0	1266	-1000	110849	13.328	13.300	13.347
DTProbeTrack03	16	ProbeTrackDT	1.1	SCS215a	20110121.132650	20110121.133455	dt-generate	8	0.013328	60	10	60-180	60	68	GapExp	0	69	2	45	0	distractor	1	2972	0	110849	13.328	13.287	13.372
DTProbeTrack03	16	ProbeTrackDT	1.1	SCS215a	20110121.132650	20110121.133502	dt-generate	8	0.013328	60	10	60-180	60	146	GapExp	0	70	2	6	1	target	1	653	674	111523	13.328	12.873	13.777
DTProbeTrack03	16	ProbeTrackDT	1.1	SCS215a	20110121.132650	20110121.133508	dt-generate	8	0.013328	60	10	60-180	60	158	GapExp	0	71	2	3	1	target	1	1040	480	112003	13.328	12.919	13.731
DTProbeTrack03	16	ProbeTrackDT	1.1	SCS215a	20110121.132650	20110121.133515	dt-generate	8	0.013328	60	10	60-180	60	93	GapExp	0	72	2	9	0	distractor	1	787	607	112610	13.328	13.162	13.500
DTProbeTrack03	16	ProbeTrackDT	1.1	SCS215a	20110121.132650	20110121.133521	dt-generate	8	0.013328	60	10	60-180	60	71	GapExp	0	73	2	45	1	target	1	3186	0	112610	13.330	13.112	13.811
DTProbeTrack03	16	ProbeTrackDT	1.1	SCS215a	20110121.132650	20110121.133529	dt-generate	8	0.013328	60	10	60-180	60	179	GapExp	0	74	2	45	1	target	1	973	514	113124	13.328	13.125	13.552
DTProbeTrack03	16	ProbeTrackDT	1.1	SCS215a	20110121.132650	20110121.133536	dt-generate	8	0.013328	60	10	60-180	60	124	GapExp	0	75	2	6	1	target	1	973	514	113638	13.328	13.007	13.649
DTProbeTrack03	16	ProbeTrackDT	1.1	SCS215a	20110121.132650	20110121.133542	dt-generate	8	0.013328	60	10	60-180	60	168	GapExp	0	76	2	1	0	distractor	1	1733	134	113772	13.328	13.097	13.560
DTProbeTrack03	16	ProbeTrackDT	1.1	SCS215a	20110121.132650	20110121.133550	dt-generate	8	0.013328	60	10	60-180	60	162	GapExp	0	77	2	1	1	target	1	1160	420	114192	13.328	13.294	13.371
DTProbeTrack03	16	ProbeTrackDT	1.1	SCS215a	20110121.132650	20110121.133556	dt-generate	8	0.013328	60	10	60-180	60	148	GapExp	0	78	2	9	0	distractor	1	947	527	114719	13.328	13.105	13.556
DTProbeTrack03	16	ProbeTrackDT	1.1	SCS215a	20110121.132650	20110121.133603	dt-generate	8	0.013328	60	10	60-180	60	107	GapExp	0	79	2	6	1	target	1	867	567	115286	13.328	12.889	13.790
DTProbeTrack03	16	ProbeTrackDT	1.1	SCS215a	20110121.132650	20110121.133608	dt-generate	8	0.013328	60	10	60-180	60	85	GapExp	0	80	2	45	1	distractor	0	1226	-1000	114286	13.328	12.893	13.770
DTProbeTrack03	16	ProbeTrackDT	1.1	SCS215a	20110121.132650	20110121.133615	dt-generate	8	0.013328	60	10	60-180	60	150	GapExp	0	81	2	6	1	target	1	1933	34	114320	13.328	13.095	13.548
DTProbeTrack03	16	ProbeTrackDT	1.1	SCS215a	20110121.132650	20110121.133622	dt-generate	8	0.013328	60	10	60-180	60	162	GapExp	0	82	2	45	1	target	1	2306	0	114320	13.328	12.969	13.682
DTProbeTrack03	16	ProbeTrackDT	1.1	SCS215a	20110121.132650	20110121.133631	dt-generate	8	0.013328	60	10	60-180	60	132	GapExp	0	83	2	6	0	distractor	1	2693	0	114320	13.328	13.084	13.575
DTProbeTrack03	16	ProbeTrackDT	1.1	SCS215a	20110121.132650	20110121.133639	dt-generate	8	0.013328	60	10	60-180	60	118	GapExp	0	84	2	9	0	distractor	1	1293	354	114674	13.328	12.950	13.710
DTProbeTrack03	16	ProbeTrackDT	1.1	SCS215a	20110121.132650	20110121.133645	dt-generate	8	0.013328	60	10	60-180	60	178	GapExp	0	85	2	1	0	target	0	1120	-1000	113674	13.328	12.983	13.672
DTProbeTrack03	16	ProbeTrackDT	1.1	SCS215a	20110121.132650	20110121.133652	dt-generate	8	0.013328	60	10	60-180	60	77	GapExp	0	86	2	45	1	target	1	1147	427	114101	13.328	12.900	13.748
DTProbeTrack03	16	ProbeTrackDT	1.1	SCS215a	20110121.132650	20110121.133658	dt-generate	8	0.013328	60	10	60-180	60	180	GapExp	0	87	2	6	1	target	1	3319	0	114101	13.328	12.989	13.668
DTProbeTrack03	16	ProbeTrackDT	1.1	SCS215a	20110121.132650	20110121.133707	dt-generate	8	0.013328	60	10	60-180	60	134	GapExp	0	88	2	9	0	distractor	1	747	627	114728	13.328	13.296	13.351
DTProbeTrack03	16	ProbeTrackDT	1.1	SCS215a	20110121.132650	20110121.133713	dt-generate	8	0.013328	60	10	60-180	60	73	GapExp	0	89	2	45	1	distractor	0	654	-1000	113728	13.328	13.060	13.583
DTProbeTrack03	16	ProbeTrackDT	1.1	SCS215a	20110121.132650	20110121.133719	dt-generate	8	0.013328	60	10	60-180	60	67	GapExp	0	90	2	1	1	target	1	1573	214	113942	13.328	13.101	13.555
DTProbeTrack03	16	ProbeTrackDT	1.1	SCS215a	20110121.132650	20110121.133725	dt-generate	8	0.013328	60	10	60-180	60	136	GapExp	0	91	2	9	1	target	1	1466	267	114209	13.328	13.307	13.356
DTProbeTrack03	16	ProbeTrackDT	1.1	SCS215a	20110121.132650	20110121.133732	dt-generate	8	0.013328	60	10	60-180	60	68	GapExp	0	92	2	3	1	distractor	0	1600	-1000	113209	13.328	13.305	13.350
DTProbeTrack03	16	ProbeTrackDT	1.1	SCS215a	20110121.132650	20110121.133738	dt-generate	8	0.013328	60	10	60-180	60	151	GapExp	0	93	2	1	0	target	0	2319	-1000	112209	13.328	13.109	13.546
DTProbeTrack03	16	ProbeTrackDT	1.1	SCS215a	20110121.132650	20110121.133745	dt-generate	8	0.013328	60	10	60-180	60	103	GapExp	0	94	2	1	0	distractor	1	1720	140	112349	13.328	12.929	13.729
DTProbeTrack03	16	ProbeTrackDT	1.1	SCS215a	20110121.132650	20110121.133752	dt-generate	8	0.013328	60	10	60-180	60	71	GapExp	0	95	2	9	0	distractor	1	1266	367	112716	13.328	12.925	13.725
DTProbeTrack03	16	ProbeTrackDT	1.1	SCS215a	20110121.132650	20110121.133758	dt-generate	8	0.013328	60	10	60-180	60	114	GapExp	0	96	2	45	1	target	1	1133	434	113150	13.328	13.253	13.403
DTProbeTrack03	16	ProbeTrackDT	1.1	SCS215a	20110121.132650	20110121.133804	dt-generate	8	0.013328	60	10	60-180	60	72	GapExp	0	97	2	1	1	target	1	1067	467	113617	13.328	13.289	13.355
DTProbeTrack03	16	ProbeTrackDT	1.1	SCS215a	20110121.132650	20110121.133810	dt-generate	8	0.013328	60	10	60-180	60	163	GapExp	0	98	2	1	0	distractor	1	1187	407	114024	13.328	12.945	13.707
DTProbeTrack03	16	ProbeTrackDT	1.1	SCS215a	20110121.132650	20110121.133816	dt-generate	8	0.013328	60	10	60-180	60	80	GapExp	0	99	2	45	0	distractor	1	1480	260	114284	13.328	13.110	13.560
DTProbeTrack03	16	ProbeTrackDT	1.1	SCS215a	20110121.132650	20110121.133823	dt-generate	8	0.013328	60	10	60-180	60	157	GapExp	0	100	2	45	1	target	1	880	560	114844	13.328	13.085	13.563
DTProbeTrack03	16	ProbeTrackDT	1.1	SCS215a	20110121.132650	20110121.133834	dt-generate	8	0.013328	60	10	60-180	60	124	GapExp	0	101	2	3	0	distractor	1	2932	0	114844	13.328	13.292	13.371
DTProbeTrack03	16	ProbeTrackDT	1.1	SCS215a	20110121.132650	20110121.133842	dt-generate	8	0.013328	60	10	60-180	60	136	GapExp	0	102	2	9	0	distractor	1	747	627	115471	13.328	12.503	14.168
DTProbeTrack03	16	ProbeTrackDT	1.1	SCS215a	20110121.132650	20110121.133848	dt-generate	8	0.013328	60	10	60-180	60	173	GapExp	0	103	2	3	1	target	1	627	687	116158	13.328	13.100	13.543
DTProbeTrack03	16	ProbeTrackDT	1.1	SCS215a	20110121.132650	20110121.133855	dt-generate	8	0.013328	60	10	60-180	60	166	GapExp	0	104	2	1	0	distractor	1	1040	480	116638	13.328	13.308	13.356
DTProbeTrack03	16	ProbeTrackDT	1.1	SCS215a	20110121.132650	20110121.133901	dt-generate	8	0.013328	60	10	60-180	60	123	GapExp	0	105	2	3	0	distractor	1	1520	240	116878	13.328	12.874	13.784
DTProbeTrack03	16	ProbeTrackDT	1.1	SCS215a	20110121.132650	20110121.133908	dt-generate	8	0.013328	60	10	60-180	60	73	GapExp	0	106	2	9	0	distractor	1	800	600	117478	13.328	13.159	13.490
DTProbeTrack03	16	ProbeTrackDT	1.1	SCS215a	20110121.132650	20110121.133913	dt-generate	8	0.013328	60	10	60-180	60	81	GapExp	0	107	2	45	0	target	0	1413	-1000	116478	13.328	13.100	13.550
DTProbeTrack03	16	ProbeTrackDT	1.1	SCS215a	20110121.132650	20110121.133920	dt-generate	8	0.013328	60	10	60-180	60	153	GapExp	0	108	2	9	1	target	1	787	607	117085	13.328	13.106	13.543
DTProbeTrack03	16	ProbeTrackDT	1.1	SCS215a	20110121.132650	20110121.133926	dt-generate	8	0.013328	60	10	60-180	60	83	GapExp	0	109	2	3	0	distractor	1	680	660	117745	13.328	13.101	13.543
DTProbeTrack03	16	ProbeTrackDT	1.1	SCS215a	20110121.132650	20110121.133931	dt-generate	8	0.013328	60	10	60-180	60	77	GapExp	0	110	2	1	0	distractor	1	1466	267	118012	13.328	13.310	13.346
DTProbeTrack03	16	ProbeTrackDT	1.1	SCS215a	20110121.132650	20110121.133937	dt-generate	8	0.013328	60	10	60-180	60	145	GapExp	0	111	2	6	0	distractor	1	1746	127	118139	13.328	13.276	13.388
DTProbeTrack03	16	ProbeTrackDT	1.1	SCS215a	20110121.132650	20110121.133944	dt-generate	8	0.013328	60	10	60-180	60	111	GapExp	0	112	2	6	1	target	1	760	620	118759	13.328	12.870	13.790
DTProbeTrack03	16	ProbeTrackDT	1.1	SCS215a	20110121.132650	20110121.133950	dt-generate	8	0.013328	60	10	60-180	60	113	GapExp	0	113	2	9	0	distractor	1	1347	327	119086	13.328	13.228	13.422
DTProbeTrack03	16	ProbeTrackDT	1.1	SCS215a	20110121.132650	20110121.133956	dt-generate	8	0.013328	60	10	60-180	60	130	GapExp	0	114	2	1	1	target	1	840	580	119666	13.328	12.920	13.750
DTProbeTrack03	16	ProbeTrackDT	1.1	SCS215a	20110121.132650	20110121.134002	dt-generate	8	0.013328	60	10	60-180	60	80	GapExp	0	115	2	9	1	target	1	1853	74	119740	13.328	13.306	13.346
DTProbeTrack03	16	ProbeTrackDT	1.1	SCS215a	20110121.132650	20110121.134009	dt-generate	8	0.013328	60	10	60-180	60	175	GapExp	0	116	2	6	0	distractor	1	733	634	120374	13.328	12.968	13.674
DTProbeTrack03	16	ProbeTrackDT	1.1	SCS215a	20110121.132650	20110121.134015	dt-generate	8	0.013328	60	10	60-180	60	154	GapExp	0	117	2	3	0	distractor	1	947	527	120901	13.328	12.861	13.792
DTProbeTrack03	16	ProbeTrackDT	1.1	SCS215a	20110121.132650	20110121.134022	dt-generate	8	0.013328	60	10	60-180	60	113	GapExp	0	118	2	3	1	target	1	1240	380	121281	13.328	13.096	13.549
DTProbeTrack03	16	ProbeTrackDT	1.1	SCS215a	20110121.132650	20110121.134028	dt-generate	8	0.013328	60	10	60-180	60	128	GapExp	0	119	2	45	1	target	1	733	634	121915	13.328	13.094	13.547
DTProbeTrack03	16	ProbeTrackDT	1.1	SCS215a	20110121.132650	20110121.134034	dt-generate	8	0.013328	60	10	60-180	60	164	GapExp	0	120	2	3	0	distractor	1	693	654	122569	13.328	13.107	13.554
DTProbeTrack03	16	ProbeTrackDT	1.1	SCS215a	20110121.132650	20110121.134041	dt-generate	8	0.013328	60	10	60-180	60	66	GapExp	0	121	2	3	1	target	1	2599	0	122569	13.328	13.308	13.343
DTProbeTrack03	16	ProbeTrackDT	1.1	SCS215a	20110121.132650	20110121.134048	dt-generate	8	0.013328	60	10	60-180	60	68	GapExp	0	122	2	45	1	target	1	1546	227	122796	13.328	12.915	13.737
DTProbeTrack03	16	ProbeTrackDT	1.1	SCS215a	20110121.132650	20110121.134054	dt-generate	8	0.013328	60	10	60-180	60	68	GapExp	0	123	2	9	0	distractor	1	987	507	123303	13.328	13.309	13.347
DTProbeTrack03	16	ProbeTrackDT	1.1	SCS215a	20110121.132650	20110121.134059	dt-generate	8	0.013328	60	10	60-180	60	74	GapExp	0	124	2	3	0	distractor	1	1866	67	123370	13.328	13.308	13.348
DTProbeTrack03	16	ProbeTrackDT	1.1	SCS215a	20110121.132650	20110121.134105	dt-generate	8	0.013328	60	10	60-180	60	74	GapExp	0	125	2	1	1	target	1	947	527	123897	13.328	13.307	13.347
DTProbeTrack03	16	ProbeTrackDT	1.1	SCS215a	20110121.132650	20110121.134111	dt-generate	8	0.013328	60	10	60-180	60	66	GapExp	0	126	2	45	0	distractor	1	707	647	124544	13.328	13.117	13.548
DTProbeTrack03	16	ProbeTrackDT	1.1	SCS215a	20110121.132650	20110121.134116	dt-generate	8	0.013328	60	10	60-180	60	167	GapExp	0	127	2	3	1	target	1	827	587	125131	13.328	13.308	13.347
DTProbeTrack03	16	ProbeTrackDT	1.1	SCS215a	20110121.132650	20110121.134123	dt-generate	8	0.013328	60	10	60-180	60	110	GapExp	0	128	2	45	1	target	1	1147	427	125558	13.328	13.071	13.584
DTProbeTrack03	16	ProbeTrackDT	1.1	SCS215a	20110121.132650	20110121.134130	dt-generate	8	0.013328	60	10	60-180	60	88	GapExp	0	129	2	6	0	distractor	1	1266	367	125925	13.328	13.305	13.346
DTProbeTrack03	16	ProbeTrackDT	1.1	SCS215a	20110121.132650	20110121.134135	dt-generate	8	0.013328	60	10	60-180	60	132	GapExp	0	130	2	3	0	distractor	1	1067	467	126392	13.328	13.300	13.350
DTProbeTrack03	16	ProbeTrackDT	1.1	SCS215a	20110121.132650	20110121.134142	dt-generate	8	0.013328	60	10	60-180	60	128	GapExp	0	131	2	6	1	target	1	640	680	127072	13.328	12.986	13.660
DTProbeTrack03	16	ProbeTrackDT	1.1	SCS215a	20110121.132650	20110121.134147	dt-generate	8	0.013328	60	10	60-180	60	94	GapExp	0	132	2	9	0	distractor	1	760	620	127692	13.328	12.867	13.783
DTProbeTrack03	16	ProbeTrackDT	1.1	SCS215a	20110121.132650	20110121.134153	dt-generate	8	0.013328	60	10	60-180	60	150	GapExp	0	133	2	6	1	target	1	560	720	128412	13.328	13.115	13.540
DTProbeTrack03	16	ProbeTrackDT	1.1	SCS215a	20110121.132650	20110121.134159	dt-generate	8	0.013328	60	10	60-180	60	161	GapExp	0	134	2	3	1	target	1	560	720	129132	13.328	13.085	13.564
DTProbeTrack03	16	ProbeTrackDT	1.1	SCS215a	20110121.132650	20110121.134205	dt-generate	8	0.013328	60	10	60-180	60	107	GapExp	0	135	2	1	0	distractor	1	1426	287	129419	13.328	12.993	13.661
DTProbeTrack03	16	ProbeTrackDT	1.1	SCS215a	20110121.132650	20110121.134211	dt-generate	8	0.013328	60	10	60-180	60	168	GapExp	0	136	2	3	0	distractor	1	1200	400	129819	13.328	13.091	13.576
DTProbeTrack03	16	ProbeTrackDT	1.1	SCS215a	20110121.132650	20110121.134218	dt-generate	8	0.013328	60	10	60-180	60	93	GapExp	0	137	2	6	0	distractor	1	1013	494	130313	13.328	13.308	13.344
DTProbeTrack03	16	ProbeTrackDT	1.1	SCS215a	20110121.132650	20110121.134224	dt-generate	8	0.013328	60	10	60-180	60	86	GapExp	0	138	2	1	0	target	0	1346	-1000	129313	13.328	13.282	13.379
DTProbeTrack03	16	ProbeTrackDT	1.1	SCS215a	20110121.132650	20110121.134230	dt-generate	8	0.013328	60	10	60-180	60	80	GapExp	0	139	2	45	0	distractor	1	1187	407	129720	13.328	12.873	13.785
DTProbeTrack03	16	ProbeTrackDT	1.1	SCS215a	20110121.132650	20110121.134236	dt-generate	8	0.013328	60	10	60-180	60	130	GapExp	0	140	2	45	0	distractor	1	627	687	130407	13.328	13.099	13.558
DTProbeTrack03	16	ProbeTrackDT	1.1	SCS215a	20110121.132650	20110121.134242	dt-generate	8	0.013328	60	10	60-180	60	154	GapExp	0	141	2	45	0	distractor	1	747	627	131034	13.328	13.111	13.552
DTProbeTrack03	16	ProbeTrackDT	1.1	SCS215a	20110121.132650	20110121.134249	dt-generate	8	0.013328	60	10	60-180	60	107	GapExp	0	142	2	45	1	target	1	1280	360	131394	13.328	12.998	13.667
DTProbeTrack03	16	ProbeTrackDT	1.1	SCS215a	20110121.132650	20110121.134256	dt-generate	8	0.013328	60	10	60-180	60	87	GapExp	0	143	2	9	1	target	1	827	587	131981	13.328	13.030	13.722
DTProbeTrack03	16	ProbeTrackDT	1.1	SCS215a	20110121.132650	20110121.134301	dt-generate	8	0.013328	60	10	60-180	60	147	GapExp	0	144	2	9	1	target	1	1813	94	132075	13.328	13.104	13.565
DTProbeTrack03	16	ProbeTrackDT	1.1	SCS215a	20110121.132650	20110121.134309	dt-generate	8	0.013328	60	10	60-180	60	113	GapExp	0	145	2	1	1	distractor	0	1400	-1000	131075	13.328	13.110	13.557
DTProbeTrack03	16	ProbeTrackDT	1.1	SCS215a	20110121.132650	20110121.134315	dt-generate	8	0.013328	60	10	60-180	60	87	GapExp	0	146	2	3	0	distractor	1	1027	487	131562	13.328	13.310	13.348
DTProbeTrack03	16	ProbeTrackDT	1.1	SCS215a	20110121.132650	20110121.134321	dt-generate	8	0.013328	60	10	60-180	60	175	GapExp	0	147	2	45	0	distractor	1	1413	294	131856	13.328	13.036	13.639
DTProbeTrack03	16	ProbeTrackDT	1.1	SCS215a	20110121.132650	20110121.134328	dt-generate	8	0.013328	60	10	60-180	60	144	GapExp	0	148	2	3	0	distractor	1	2026	0	131856	13.328	13.308	13.347
DTProbeTrack03	16	ProbeTrackDT	1.1	SCS215a	20110121.132650	20110121.134336	dt-generate	8	0.013328	60	10	60-180	60	156	GapExp	0	149	2	3	1	target	1	773	614	132470	13.328	13.111	13.536
DTProbeTrack03	16	ProbeTrackDT	1.1	SCS215a	20110121.132650	20110121.134342	dt-generate	8	0.013328	60	10	60-180	60	179	GapExp	0	150	2	45	1	distractor	0	560	-1000	131470	13.328	13.089	13.563
DTProbeTrack03	16	ProbeTrackDT	1.1	SCS215a	20110121.132650	20110121.134402	dt-generate	8	0.013328	60	10	60-180	60	150	GapExp	0	151	2	1	1	target	1	1053	474	131944	13.328	12.880	13.787
DTProbeTrack03	16	ProbeTrackDT	1.1	SCS215a	20110121.132650	20110121.134408	dt-generate	8	0.013328	60	10	60-180	60	142	GapExp	0	152	2	6	1	target	1	1333	334	132278	13.328	13.306	13.347
DTProbeTrack03	16	ProbeTrackDT	1.1	SCS215a	20110121.132650	20110121.134415	dt-generate	8	0.013328	60	10	60-180	60	104	GapExp	0	153	2	3	0	target	0	840	-1000	131278	13.328	13.306	13.345
DTProbeTrack03	16	ProbeTrackDT	1.1	SCS215a	20110121.132650	20110121.134421	dt-generate	8	0.013328	60	10	60-180	60	172	GapExp	0	154	2	9	1	target	1	613	694	131972	13.328	12.971	13.684
DTProbeTrack03	16	ProbeTrackDT	1.1	SCS215a	20110121.132650	20110121.134427	dt-generate	8	0.013328	60	10	60-180	60	179	GapExp	0	155	2	6	1	target	1	813	594	132566	13.328	12.862	13.800
DTProbeTrack03	16	ProbeTrackDT	1.1	SCS215a	20110121.132650	20110121.134434	dt-generate	8	0.013328	60	10	60-180	60	64	GapExp	0	156	2	45	1	distractor	0	960	-1000	131566	13.328	13.102	13.560
DTProbeTrack03	16	ProbeTrackDT	1.1	SCS215a	20110121.132650	20110121.134440	dt-generate	8	0.013328	60	10	60-180	60	125	GapExp	0	157	2	6	0	distractor	1	1067	467	132033	13.328	12.890	13.767
DTProbeTrack03	16	ProbeTrackDT	1.1	SCS215a	20110121.132650	20110121.134446	dt-generate	8	0.013328	60	10	60-180	60	166	GapExp	0	158	2	3	0	distractor	1	720	640	132673	13.328	13.104	13.553
DTProbeTrack03	16	ProbeTrackDT	1.1	SCS215a	20110121.132650	20110121.134452	dt-generate	8	0.013328	60	10	60-180	60	156	GapExp	0	159	2	45	0	distractor	1	534	733	133406	13.328	13.106	13.552
DTProbeTrack03	16	ProbeTrackDT	1.1	SCS215a	20110121.132650	20110121.134459	dt-generate	8	0.013328	60	10	60-180	60	163	GapExp	0	160	2	3	1	target	1	867	567	133973	13.328	13.308	13.350
DTProbeTrack03	16	ProbeTrackDT	1.1	SCS215a	20110121.132650	20110121.134505	dt-generate	8	0.013328	60	10	60-180	60	131	GapExp	0	161	2	6	0	distractor	1	787	607	134580	13.328	12.853	13.792
DTProbeTrack03	16	ProbeTrackDT	1.1	SCS215a	20110121.132650	20110121.134511	dt-generate	8	0.013328	60	10	60-180	60	179	GapExp	0	162	2	6	0	distractor	1	813	594	135174	13.328	13.092	13.555
DTProbeTrack03	16	ProbeTrackDT	1.1	SCS215a	20110121.132650	20110121.134518	dt-generate	8	0.013328	60	10	60-180	60	83	GapExp	0	163	2	6	0	distractor	1	1546	227	135401	13.328	13.309	13.351
DTProbeTrack03	16	ProbeTrackDT	1.1	SCS215a	20110121.132650	20110121.134524	dt-generate	8	0.013328	60	10	60-180	60	63	GapExp	0	164	2	6	1	distractor	0	987	-1000	134401	13.328	12.883	13.775
DTProbeTrack03	16	ProbeTrackDT	1.1	SCS215a	20110121.132650	20110121.134529	dt-generate	8	0.013328	60	10	60-180	60	114	GapExp	0	165	2	45	0	target	0	1493	-1000	133401	13.328	12.932	13.737
DTProbeTrack03	16	ProbeTrackDT	1.1	SCS215a	20110121.132650	20110121.134536	dt-generate	8	0.013328	60	10	60-180	60	132	GapExp	0	166	2	1	1	target	1	3052	0	133401	13.328	13.108	13.552
DTProbeTrack03	16	ProbeTrackDT	1.1	SCS215a	20110121.132650	20110121.134545	dt-generate	8	0.013328	60	10	60-180	60	121	GapExp	0	167	2	6	0	distractor	1	787	607	134008	13.328	13.308	13.345
DTProbeTrack03	16	ProbeTrackDT	1.1	SCS215a	20110121.132650	20110121.134551	dt-generate	8	0.013328	60	10	60-180	60	159	GapExp	0	168	2	3	0	distractor	1	2159	0	134008	13.328	13.097	13.574
DTProbeTrack03	16	ProbeTrackDT	1.1	SCS215a	20110121.132650	20110121.134558	dt-generate	8	0.013328	60	10	60-180	60	67	GapExp	0	169	2	45	1	target	1	667	667	134675	13.328	13.088	13.562
DTProbeTrack03	16	ProbeTrackDT	1.1	SCS215a	20110121.132650	20110121.134604	dt-generate	8	0.013328	60	10	60-180	60	132	GapExp	0	170	2	3	0	distractor	1	733	634	135309	13.328	13.108	13.560
DTProbeTrack03	16	ProbeTrackDT	1.1	SCS215a	20110121.132650	20110121.134610	dt-generate	8	0.013328	60	10	60-180	60	100	GapExp	0	171	2	6	0	distractor	1	1360	320	135629	13.328	13.306	13.358
DTProbeTrack03	16	ProbeTrackDT	1.1	SCS215a	20110121.132650	20110121.134616	dt-generate	8	0.013328	60	10	60-180	60	64	GapExp	0	172	2	6	0	distractor	1	2213	0	135629	13.328	13.296	13.359
DTProbeTrack03	16	ProbeTrackDT	1.1	SCS215a	20110121.132650	20110121.134622	dt-generate	8	0.013328	60	10	60-180	60	151	GapExp	0	173	2	1	0	distractor	1	3679	0	135629	13.328	12.868	13.795
DTProbeTrack03	16	ProbeTrackDT	1.1	SCS215a	20110121.132650	20110121.134632	dt-generate	8	0.013328	60	10	60-180	60	85	GapExp	0	174	2	3	1	distractor	0	2013	-1000	134629	13.328	12.944	13.713
DTProbeTrack03	16	ProbeTrackDT	1.1	SCS215a	20110121.132650	20110121.134638	dt-generate	8	0.013328	60	10	60-180	60	70	GapExp	0	175	2	6	1	target	1	520	740	135369	13.328	13.310	13.348
DTProbeTrack03	16	ProbeTrackDT	1.1	SCS215a	20110121.132650	20110121.134643	dt-generate	8	0.013328	60	10	60-180	60	77	GapExp	0	176	2	6	0	distractor	1	733	634	136003	13.328	13.290	13.350
DTProbeTrack03	16	ProbeTrackDT	1.1	SCS215a	20110121.132650	20110121.134648	dt-generate	8	0.013328	60	10	60-180	60	98	GapExp	0	177	2	45	1	distractor	0	1080	-1000	135003	13.328	12.928	13.709
DTProbeTrack03	16	ProbeTrackDT	1.1	SCS215a	20110121.132650	20110121.134655	dt-generate	8	0.013328	60	10	60-180	60	112	GapExp	0	178	2	3	1	target	1	880	560	135563	13.328	12.865	13.788
DTProbeTrack03	16	ProbeTrackDT	1.1	SCS215a	20110121.132650	20110121.134700	dt-generate	8	0.013328	60	10	60-180	60	127	GapExp	0	179	2	1	1	target	1	1480	260	135823	13.328	13.105	13.544
DTProbeTrack03	16	ProbeTrackDT	1.1	SCS215a	20110121.132650	20110121.134707	dt-generate	8	0.013328	60	10	60-180	60	163	GapExp	0	180	2	9	1	target	1	1573	214	136037	13.328	13.032	13.625
DTProbeTrack03	16	ProbeTrackDT	1.1	SCS215a	20110121.132650	20110121.134714	dt-generate	8	0.013328	60	10	60-180	60	92	GapExp	0	181	2	45	0	distractor	1	1173	414	136451	13.328	12.855	13.797
DTProbeTrack03	16	ProbeTrackDT	1.1	SCS215a	20110121.132650	20110121.134721	dt-generate	8	0.013328	60	10	60-180	60	93	GapExp	0	182	2	1	0	target	0	2759	-1000	135451	13.328	13.093	13.569
DTProbeTrack03	16	ProbeTrackDT	1.1	SCS215a	20110121.132650	20110121.134728	dt-generate	8	0.013328	60	10	60-180	60	62	GapExp	0	183	2	45	0	distractor	1	933	534	135985	13.328	13.096	13.556
DTProbeTrack03	16	ProbeTrackDT	1.1	SCS215a	20110121.132650	20110121.134734	dt-generate	8	0.013328	60	10	60-180	60	147	GapExp	0	184	2	45	0	distractor	1	1067	467	136452	13.328	12.978	13.688
DTProbeTrack03	16	ProbeTrackDT	1.1	SCS215a	20110121.132650	20110121.134741	dt-generate	8	0.013328	60	10	60-180	60	94	GapExp	0	185	2	9	0	distractor	1	2413	0	136452	13.328	13.149	13.501
DTProbeTrack03	16	ProbeTrackDT	1.1	SCS215a	20110121.132650	20110121.134748	dt-generate	8	0.013328	60	10	60-180	60	169	GapExp	0	186	2	6	1	distractor	0	1320	-1000	135452	13.328	13.116	13.554
DTProbeTrack03	16	ProbeTrackDT	1.1	SCS215a	20110121.132650	20110121.134755	dt-generate	8	0.013328	60	10	60-180	60	138	GapExp	0	187	2	45	0	distractor	1	800	600	136052	13.328	13.307	13.351
DTProbeTrack03	16	ProbeTrackDT	1.1	SCS215a	20110121.132650	20110121.134802	dt-generate	8	0.013328	60	10	60-180	60	154	GapExp	0	188	2	45	0	distractor	1	907	547	136599	13.328	12.976	13.674
DTProbeTrack03	16	ProbeTrackDT	1.1	SCS215a	20110121.132650	20110121.134809	dt-generate	8	0.013328	60	10	60-180	60	86	GapExp	0	189	2	6	0	distractor	1	1826	87	136686	13.328	13.306	13.354
DTProbeTrack03	16	ProbeTrackDT	1.1	SCS215a	20110121.132650	20110121.134815	dt-generate	8	0.013328	60	10	60-180	60	63	GapExp	0	190	2	1	0	distractor	1	3052	0	136686	13.328	13.306	13.346
DTProbeTrack03	16	ProbeTrackDT	1.1	SCS215a	20110121.132650	20110121.134823	dt-generate	8	0.013328	60	10	60-180	60	158	GapExp	0	191	2	9	1	distractor	0	1973	-1000	135686	13.328	12.895	13.762
DTProbeTrack03	16	ProbeTrackDT	1.1	SCS215a	20110121.132650	20110121.134830	dt-generate	8	0.013328	60	10	60-180	60	126	GapExp	0	192	2	9	1	target	1	653	674	136360	13.328	13.308	13.346
DTProbeTrack03	16	ProbeTrackDT	1.1	SCS215a	20110121.132650	20110121.134836	dt-generate	8	0.013328	60	10	60-180	60	118	GapExp	0	193	2	45	0	distractor	1	947	527	136887	13.328	13.308	13.347
DTProbeTrack03	16	ProbeTrackDT	1.1	SCS215a	20110121.132650	20110121.134842	dt-generate	8	0.013328	60	10	60-180	60	170	GapExp	0	194	2	1	0	distractor	1	987	507	137394	13.328	13.303	13.359
DTProbeTrack03	16	ProbeTrackDT	1.1	SCS215a	20110121.132650	20110121.134849	dt-generate	8	0.013328	60	10	60-180	60	85	GapExp	0	195	2	6	0	distractor	1	1986	7	137401	13.328	13.302	13.359
DTProbeTrack03	16	ProbeTrackDT	1.1	SCS215a	20110121.132650	20110121.134856	dt-generate	8	0.013328	60	10	60-180	60	165	GapExp	0	196	2	1	1	target	1	907	547	137948	13.328	13.309	13.345
DTProbeTrack03	16	ProbeTrackDT	1.1	SCS215a	20110121.132650	20110121.134902	dt-generate	8	0.013328	60	10	60-180	60	121	GapExp	0	197	2	1	1	target	1	720	640	138588	13.328	13.300	13.369
DTProbeTrack03	16	ProbeTrackDT	1.1	SCS215a	20110121.132650	20110121.134908	dt-generate	8	0.013328	60	10	60-180	60	90	GapExp	0	198	2	1	0	distractor	1	6104	0	138588	13.328	12.850	13.794
DTProbeTrack03	16	ProbeTrackDT	1.1	SCS215a	20110121.132650	20110121.134919	dt-generate	8	0.013328	60	10	60-180	60	81	GapExp	0	199	2	45	0	distractor	1	1227	387	138975	13.328	12.862	13.801
DTProbeTrack03	16	ProbeTrackDT	1.1	SCS215a	20110121.132650	20110121.134925	dt-generate	8	0.013328	60	10	60-180	60	161	GapExp	0	200	2	1	0	distractor	1	1746	127	139102	13.328	12.880	13.793
DTProbeTrack03	16	ProbeTrackDT	1.1	SCS215a	20110121.132650	20110121.135044	dt-generate	8	0.013328	60	10	60-180	60	93	GapExp	0	201	2	9	0	distractor	1	3759	0	139102	13.328	12.960	13.699
DTProbeTrack03	16	ProbeTrackDT	1.1	SCS215a	20110121.132650	20110121.135053	dt-generate	8	0.013328	60	10	60-180	60	141	GapExp	0	202	2	45	0	distractor	1	800	600	139702	13.328	13.093	13.558
DTProbeTrack03	16	ProbeTrackDT	1.1	SCS215a	20110121.132650	20110121.135100	dt-generate	8	0.013328	60	10	60-180	60	81	GapExp	0	203	2	9	1	distractor	0	560	-1000	138702	13.328	12.899	13.758
DTProbeTrack03	16	ProbeTrackDT	1.1	SCS215a	20110121.132650	20110121.135105	dt-generate	8	0.013328	60	10	60-180	60	110	GapExp	0	204	2	9	0	distractor	1	1853	74	138776	13.328	13.100	13.565
DTProbeTrack03	16	ProbeTrackDT	1.1	SCS215a	20110121.132650	20110121.135112	dt-generate	8	0.013328	60	10	60-180	60	65	GapExp	0	205	2	1	1	target	1	2333	0	138776	13.328	13.306	13.348
DTProbeTrack03	16	ProbeTrackDT	1.1	SCS215a	20110121.135200	20110121.135207	single-task	8	0.013328	60	10	60-180	60	161	GapPrac	1	1	2	1	1	target	1	1400	300	139076	13.328	12.899	13.761
DTProbeTrack03	16	ProbeTrackDT	1.1	SCS215a	20110121.135200	20110121.135214	single-task	8	0.013328	60	10	60-180	60	80	GapPrac	1	2	2	45	1	target	1	640	680	139756	13.328	13.310	13.347
DTProbeTrack03	16	ProbeTrackDT	1.1	SCS215a	20110121.135200	20110121.135219	single-task	8	0.013328	60	10	60-180	60	104	GapPrac	1	3	2	3	1	target	1	1013	494	140250	13.328	12.845	13.816
DTProbeTrack03	16	ProbeTrackDT	1.1	SCS215a	20110121.135200	20110121.135225	single-task	8	0.013328	60	10	60-180	60	156	GapPrac	1	4	2	45	1	target	1	733	634	140884	13.328	13.310	13.349
DTProbeTrack03	16	ProbeTrackDT	1.1	SCS215a	20110121.135200	20110121.135232	single-task	8	0.013328	60	10	60-180	60	167	GapPrac	1	5	2	9	0	distractor	1	707	647	141531	13.328	13.107	13.537
DTProbeTrack03	16	ProbeTrackDT	1.1	SCS215a	20110121.135200	20110121.135238	single-task	8	0.013328	60	10	60-180	60	116	GapPrac	1	6	2	6	0	distractor	1	920	540	142071	13.328	13.094	13.561
DTProbeTrack03	16	ProbeTrackDT	1.1	SCS215a	20110121.135200	20110121.135244	single-task	8	0.013328	60	10	60-180	60	179	GapPrac	1	7	2	45	0	distractor	1	600	700	142771	13.328	13.114	13.555
DTProbeTrack03	16	ProbeTrackDT	1.1	SCS215a	20110121.135200	20110121.135251	single-task	8	0.013328	60	10	60-180	60	174	GapPrac	1	8	2	9	1	target	1	960	520	143291	13.328	13.106	13.553
DTProbeTrack03	16	ProbeTrackDT	1.1	SCS215a	20110121.135200	20110121.135258	single-task	8	0.013328	60	10	60-180	60	139	GapPrac	1	9	2	6	1	target	1	1067	467	143758	13.328	12.999	13.664
DTProbeTrack03	16	ProbeTrackDT	1.1	SCS215a	20110121.135200	20110121.135305	single-task	8	0.013328	60	10	60-180	60	101	GapPrac	1	10	2	3	0	distractor	1	707	647	144405	13.328	12.903	13.762
DTProbeTrack03	16	ProbeTrackDT	1.1	SCS215a	20110121.135200	20110121.135310	single-task	8	0.013328	60	10	60-180	60	170	GapPrac	1	11	2	3	0	distractor	1	1560	220	144625	13.328	13.032	13.610
DTProbeTrack03	16	ProbeTrackDT	1.1	SCS215a	20110121.135200	20110121.135317	single-task	8	0.013328	60	10	60-180	60	141	GapPrac	1	12	2	6	0	target	0	2679	-1000	143625	13.328	12.937	13.732
DTProbeTrack03	16	ProbeTrackDT	1.1	SCS215a	20110121.135200	20110121.135325	single-task	8	0.013328	60	10	60-180	60	117	GapPrac	1	13	2	1	0	distractor	1	867	567	144192	13.328	13.086	13.551
DTProbeTrack03	16	ProbeTrackDT	1.1	SCS215a	20110121.135200	20110121.135331	single-task	8	0.013328	60	10	60-180	60	144	GapPrac	1	14	2	1	0	distractor	1	1906	47	144239	13.328	13.237	13.406
DTProbeTrack03	16	ProbeTrackDT	1.1	SCS215a	20110121.135200	20110121.135338	single-task	8	0.013328	60	10	60-180	60	92	GapPrac	1	15	2	9	0	distractor	1	1107	447	144686	13.328	13.299	13.348
DTProbeTrack03	16	ProbeTrackDT	1.1	SCS215a	20110121.135200	20110121.135344	single-task	8	0.013328	60	10	60-180	60	105	GapPrac	1	16	2	3	1	target	1	813	594	145280	13.328	13.308	13.347
DTProbeTrack03	16	ProbeTrackDT	1.1	SCS215a	20110121.135200	20110121.135350	single-task	8	0.013328	60	10	60-180	60	152	GapPrac	1	17	2	45	0	distractor	1	987	507	145787	13.328	13.155	13.508
DTProbeTrack03	16	ProbeTrackDT	1.1	SCS215a	20110121.135200	20110121.135357	single-task	8	0.013328	60	10	60-180	60	162	GapPrac	1	18	2	6	1	target	1	1080	460	146247	13.328	13.302	13.363
DTProbeTrack03	16	ProbeTrackDT	1.1	SCS215a	20110121.135200	20110121.135404	single-task	8	0.013328	60	10	60-180	60	98	GapPrac	1	19	2	1	1	target	1	827	587	146834	13.328	13.308	13.348
DTProbeTrack03	16	ProbeTrackDT	1.1	SCS215a	20110121.135200	20110121.135409	single-task	8	0.013328	60	10	60-180	60	175	GapPrac	1	20	2	9	1	target	1	760	620	147454	13.328	13.106	13.544
DTProbeTrack03	16	ProbeTrackDT	1.1	SCS215a	20110121.135441	20110121.135519	single-task	8	0.013327	60	10	60-180	60	168	GapExp	1	1	2	3	1	target	1	1600	200	147654	13.328	13.100	13.557
DTProbeTrack03	16	ProbeTrackDT	1.1	SCS215a	20110121.135441	20110121.135526	single-task	8	0.013327	60	10	60-180	60	132	GapExp	1	2	2	6	1	distractor	0	1160	-1000	146654	13.328	13.097	13.561
DTProbeTrack03	16	ProbeTrackDT	1.1	SCS215a	20110121.135441	20110121.135533	single-task	8	0.013327	60	10	60-180	60	120	GapExp	1	3	2	3	0	distractor	1	680	660	147314	13.328	13.105	13.538
DTProbeTrack03	16	ProbeTrackDT	1.1	SCS215a	20110121.135441	20110121.135538	single-task	8	0.013327	60	10	60-180	60	161	GapExp	1	4	2	45	0	distractor	1	1226	387	147701	13.328	13.005	13.650
DTProbeTrack03	16	ProbeTrackDT	1.1	SCS215a	20110121.135441	20110121.135546	single-task	8	0.013327	60	10	60-180	60	64	GapExp	1	5	2	1	1	target	1	933	534	148235	13.328	13.229	13.435
DTProbeTrack03	16	ProbeTrackDT	1.1	SCS215a	20110121.135441	20110121.135551	single-task	8	0.013327	60	10	60-180	60	135	GapExp	0	6	2	6	1	target	1	840	580	148815	13.328	12.983	13.664
DTProbeTrack03	16	ProbeTrackDT	1.1	SCS215a	20110121.135441	20110121.135557	single-task	8	0.013327	60	10	60-180	60	147	GapExp	0	7	2	6	1	target	1	560	720	149535	13.328	12.927	13.729
DTProbeTrack03	16	ProbeTrackDT	1.1	SCS215a	20110121.135441	20110121.135603	single-task	8	0.013327	60	10	60-180	60	123	GapExp	0	8	2	3	1	target	1	800	600	150135	13.328	13.161	13.497
DTProbeTrack03	16	ProbeTrackDT	1.1	SCS215a	20110121.135441	20110121.135609	single-task	8	0.013327	60	10	60-180	60	105	GapExp	0	9	2	3	1	target	1	600	700	150835	13.328	12.990	13.565
DTProbeTrack03	16	ProbeTrackDT	1.1	SCS215a	20110121.135441	20110121.135614	single-task	8	0.013327	60	10	60-180	60	95	GapExp	0	10	2	3	1	target	1	507	747	151582	13.328	12.954	13.698
DTProbeTrack03	16	ProbeTrackDT	1.1	SCS215a	20110121.135441	20110121.135620	single-task	8	0.013327	60	10	60-180	60	158	GapExp	0	11	2	1	0	distractor	1	600	700	152282	13.328	13.100	13.550
DTProbeTrack03	16	ProbeTrackDT	1.1	SCS215a	20110121.135441	20110121.135626	single-task	8	0.013327	60	10	60-180	60	156	GapExp	0	12	2	9	0	distractor	1	853	574	152856	13.328	12.873	13.784
DTProbeTrack03	16	ProbeTrackDT	1.1	SCS215a	20110121.135441	20110121.135632	single-task	8	0.013327	60	10	60-180	60	134	GapExp	0	13	2	1	0	distractor	1	907	547	153403	13.328	12.950	13.706
DTProbeTrack03	16	ProbeTrackDT	1.1	SCS215a	20110121.135441	20110121.135638	single-task	8	0.013327	60	10	60-180	60	179	GapExp	0	14	2	45	1	target	1	653	674	154077	13.328	12.954	13.703
DTProbeTrack03	16	ProbeTrackDT	1.1	SCS215a	20110121.135441	20110121.135645	single-task	8	0.013327	60	10	60-180	60	161	GapExp	0	15	2	9	0	distractor	1	600	700	154777	13.328	13.308	13.359
DTProbeTrack03	16	ProbeTrackDT	1.1	SCS215a	20110121.135441	20110121.135652	single-task	8	0.013327	60	10	60-180	60	113	GapExp	0	16	2	1	0	target	0	1333	-1000	153777	13.328	12.961	13.700
DTProbeTrack03	16	ProbeTrackDT	1.1	SCS215a	20110121.135441	20110121.135658	single-task	8	0.013327	60	10	60-180	60	99	GapExp	0	17	2	45	0	distractor	1	1173	414	154191	13.328	12.950	13.706
DTProbeTrack03	16	ProbeTrackDT	1.1	SCS215a	20110121.135441	20110121.135704	single-task	8	0.013327	60	10	60-180	60	65	GapExp	0	18	2	3	0	distractor	1	1253	374	154565	13.328	13.104	13.563
DTProbeTrack03	16	ProbeTrackDT	1.1	SCS215a	20110121.135441	20110121.135710	single-task	8	0.013327	60	10	60-180	60	110	GapExp	0	19	2	6	1	target	1	827	587	155152	13.328	12.861	13.795
DTProbeTrack03	16	ProbeTrackDT	1.1	SCS215a	20110121.135441	20110121.135716	single-task	8	0.013327	60	10	60-180	60	88	GapExp	0	20	2	6	0	distractor	1	760	620	155772	13.328	13.306	13.344
DTProbeTrack03	16	ProbeTrackDT	1.1	SCS215a	20110121.135441	20110121.135721	single-task	8	0.013327	60	10	60-180	60	152	GapExp	0	21	2	9	1	target	1	587	707	156479	13.328	13.015	13.659
DTProbeTrack03	16	ProbeTrackDT	1.1	SCS215a	20110121.135441	20110121.135727	single-task	8	0.013327	60	10	60-180	60	113	GapExp	0	22	2	45	1	target	1	680	660	157139	13.328	12.924	13.730
DTProbeTrack03	16	ProbeTrackDT	1.1	SCS215a	20110121.135441	20110121.135733	single-task	8	0.013327	60	10	60-180	60	180	GapExp	0	23	2	45	1	target	1	1746	127	157266	13.328	12.904	13.751
DTProbeTrack03	16	ProbeTrackDT	1.1	SCS215a	20110121.135441	20110121.135741	single-task	8	0.013327	60	10	60-180	60	122	GapExp	0	24	2	1	0	distractor	1	813	594	157860	13.328	13.310	13.344
DTProbeTrack03	16	ProbeTrackDT	1.1	SCS215a	20110121.135441	20110121.135747	single-task	8	0.013327	60	10	60-180	60	159	GapExp	0	25	2	45	1	target	1	2999	0	157860	13.327	12.845	13.781
DTProbeTrack03	16	ProbeTrackDT	1.1	SCS215a	20110121.135441	20110121.135756	single-task	8	0.013327	60	10	60-180	60	129	GapExp	0	26	2	1	1	target	1	907	547	158407	13.328	13.305	13.348
DTProbeTrack03	16	ProbeTrackDT	1.1	SCS215a	20110121.135441	20110121.135802	single-task	8	0.013327	60	10	60-180	60	66	GapExp	0	27	2	1	0	distractor	1	1053	474	158881	13.328	13.071	13.580
DTProbeTrack03	16	ProbeTrackDT	1.1	SCS215a	20110121.135441	20110121.135808	single-task	8	0.013327	60	10	60-180	60	91	GapExp	0	28	2	1	1	target	1	640	680	159561	13.328	13.102	13.541
DTProbeTrack03	16	ProbeTrackDT	1.1	SCS215a	20110121.135441	20110121.135813	single-task	8	0.013327	60	10	60-180	60	152	GapExp	0	29	2	45	0	distractor	1	653	674	160235	13.328	12.941	13.703
DTProbeTrack03	16	ProbeTrackDT	1.1	SCS215a	20110121.135441	20110121.135820	single-task	8	0.013327	60	10	60-180	60	176	GapExp	0	30	2	1	0	distractor	1	680	660	160895	13.328	12.873	13.769
DTProbeTrack03	16	ProbeTrackDT	1.1	SCS215a	20110121.135441	20110121.135826	single-task	8	0.013327	60	10	60-180	60	80	GapExp	0	31	2	1	1	target	1	1067	467	161362	13.328	13.312	13.344
DTProbeTrack03	16	ProbeTrackDT	1.1	SCS215a	20110121.135441	20110121.135832	single-task	8	0.013327	60	10	60-180	60	88	GapExp	0	32	2	6	0	distractor	1	640	680	162042	13.328	13.302	13.355
DTProbeTrack03	16	ProbeTrackDT	1.1	SCS215a	20110121.135441	20110121.135837	single-task	8	0.013327	60	10	60-180	60	101	GapExp	0	33	2	45	1	target	1	560	720	162762	13.328	13.290	13.374
DTProbeTrack03	16	ProbeTrackDT	1.1	SCS215a	20110121.135441	20110121.135843	single-task	8	0.013327	60	10	60-180	60	151	GapExp	0	34	2	9	1	target	1	560	720	163482	13.328	13.092	13.572
DTProbeTrack03	16	ProbeTrackDT	1.1	SCS215a	20110121.135441	20110121.135849	single-task	8	0.013327	60	10	60-180	60	127	GapExp	0	35	2	6	1	target	1	467	767	164249	13.328	12.871	13.772
DTProbeTrack03	16	ProbeTrackDT	1.1	SCS215a	20110121.135441	20110121.135855	single-task	8	0.013327	60	10	60-180	60	90	GapExp	0	36	2	45	0	distractor	1	787	607	164856	13.328	12.958	13.698
DTProbeTrack03	16	ProbeTrackDT	1.1	SCS215a	20110121.135441	20110121.135901	single-task	8	0.013327	60	10	60-180	60	61	GapExp	0	37	2	6	1	target	1	640	680	165536	13.328	13.303	13.361
