exp	sub	code	rev	comp	runtime	trialtime	stdt	nstim	refreshdur	cuedur	gapdur	gapOnsetRange	durPostProbe	gapOnsetTime	blocktype	prac	trial	ntargets	soa	probeTarget	resp	acc	rt	pts	tpts	meanFrameDur	minFrameDur	maxFrameDur
DTProbeTrack03	10	ProbeTrackDT	1.1	SCS215a	20101115.090324	20101115.090338	single-task	8	0.013307	60	0	60-180	60	138	NoGap	1	1	2	3	0	target	0	10862	-1000	-1000	13.328	12.893	13.777
DTProbeTrack03	10	ProbeTrackDT	1.1	SCS215a	20101115.090324	20101115.090355	single-task	8	0.013307	60	0	60-180	60	136	NoGap	1	2	2	45	0	target	0	1173	-1000	-2000	13.328	13.093	13.557
DTProbeTrack03	10	ProbeTrackDT	1.1	SCS215a	20101115.090324	20101115.090402	single-task	8	0.013307	60	0	60-180	60	155	NoGap	1	3	2	3	0	target	0	1107	-1000	-3000	13.328	13.307	13.349
DTProbeTrack03	10	ProbeTrackDT	1.1	SCS215a	20101115.090324	20101115.090408	single-task	8	0.013307	60	0	60-180	60	166	NoGap	1	4	2	45	0	distractor	1	427	787	-2213	13.328	13.088	13.569
DTProbeTrack03	10	ProbeTrackDT	1.1	SCS215a	20101115.090324	20101115.090415	single-task	8	0.013307	60	0	60-180	60	173	NoGap	1	5	2	1	1	distractor	0	520	-1000	-3213	13.328	13.099	13.562
DTProbeTrack03	10	ProbeTrackDT	1.1	SCS215a	20101115.090324	20101115.090421	single-task	8	0.013307	60	0	60-180	60	158	NoGap	1	6	2	3	0	target	0	1306	-1000	-4213	13.328	13.248	13.421
DTProbeTrack03	10	ProbeTrackDT	1.1	SCS215a	20101115.090324	20101115.090428	single-task	8	0.013307	60	0	60-180	60	130	NoGap	1	7	2	9	0	distractor	1	1706	147	-4066	13.328	13.306	13.355
DTProbeTrack03	10	ProbeTrackDT	1.1	SCS215a	20101115.090324	20101115.090435	single-task	8	0.013307	60	0	60-180	60	115	NoGap	1	8	2	1	1	target	1	1506	247	-3819	13.328	13.270	13.380
DTProbeTrack03	10	ProbeTrackDT	1.1	SCS215a	20101115.090324	20101115.090441	single-task	8	0.013307	60	0	60-180	60	165	NoGap	1	9	2	45	1	distractor	0	1386	-1000	-4819	13.328	13.305	13.352
DTProbeTrack03	10	ProbeTrackDT	1.1	SCS215a	20101115.090324	20101115.090449	single-task	8	0.013307	60	0	60-180	60	132	NoGap	1	10	2	9	0	distractor	1	987	507	-4312	13.328	13.043	13.615
DTProbeTrack03	10	ProbeTrackDT	1.1	SCS215a	20101115.090324	20101115.090455	single-task	8	0.013307	60	0	60-180	60	152	NoGap	1	11	2	6	1	target	1	1107	447	-3865	13.328	13.024	13.631
DTProbeTrack03	10	ProbeTrackDT	1.1	SCS215a	20101115.090324	20101115.090501	single-task	8	0.013307	60	0	60-180	60	117	NoGap	1	12	2	6	0	distractor	1	827	587	-3278	13.328	13.014	13.657
DTProbeTrack03	10	ProbeTrackDT	1.1	SCS215a	20101115.090324	20101115.090507	single-task	8	0.013307	60	0	60-180	60	123	NoGap	1	13	2	45	1	distractor	0	1107	-1000	-4278	13.327	13.090	13.351
DTProbeTrack03	10	ProbeTrackDT	1.1	SCS215a	20101115.090324	20101115.090514	single-task	8	0.013307	60	0	60-180	60	89	NoGap	1	14	2	9	0	target	0	1093	-1000	-5278	13.328	13.295	13.347
DTProbeTrack03	10	ProbeTrackDT	1.1	SCS215a	20101115.090324	20101115.090520	single-task	8	0.013307	60	0	60-180	60	79	NoGap	1	15	2	9	1	distractor	0	1107	-1000	-6278	13.328	13.088	13.576
DTProbeTrack03	10	ProbeTrackDT	1.1	SCS215a	20101115.090324	20101115.090525	single-task	8	0.013307	60	0	60-180	60	95	NoGap	1	16	2	9	0	target	0	560	-1000	-7278	13.328	13.305	13.345
DTProbeTrack03	10	ProbeTrackDT	1.1	SCS215a	20101115.090324	20101115.090530	single-task	8	0.013307	60	0	60-180	60	117	NoGap	1	17	2	45	0	distractor	1	534	733	-6545	13.328	13.299	13.358
DTProbeTrack03	10	ProbeTrackDT	1.1	SCS215a	20101115.090324	20101115.090536	single-task	8	0.013307	60	0	60-180	60	143	NoGap	1	18	2	6	0	distractor	1	440	780	-5765	13.328	13.210	13.439
DTProbeTrack03	10	ProbeTrackDT	1.1	SCS215a	20101115.090324	20101115.090542	single-task	8	0.013307	60	0	60-180	60	155	NoGap	1	19	2	45	1	distractor	0	480	-1000	-6765	13.328	13.305	13.346
DTProbeTrack03	10	ProbeTrackDT	1.1	SCS215a	20101115.090324	20101115.090549	single-task	8	0.013307	60	0	60-180	60	160	NoGap	1	20	2	3	0	target	0	494	-1000	-7765	13.328	13.090	13.559
DTProbeTrack03	10	ProbeTrackDT	1.1	SCS215a	20101115.090324	20101115.090555	single-task	8	0.013307	60	0	60-180	60	166	NoGap	1	21	2	1	0	distractor	1	374	813	-6952	13.328	13.112	13.546
DTProbeTrack03	10	ProbeTrackDT	1.1	SCS215a	20101115.090324	20101115.090601	single-task	8	0.013307	60	0	60-180	60	151	NoGap	1	22	2	1	0	distractor	1	307	847	-6105	13.328	12.978	13.684
DTProbeTrack03	10	ProbeTrackDT	1.1	SCS215a	20101115.090324	20101115.090606	single-task	8	0.013307	60	0	60-180	60	84	NoGap	1	23	2	6	1	distractor	0	267	-1000	-7105	13.328	13.309	13.356
DTProbeTrack03	10	ProbeTrackDT	1.1	SCS215a	20101115.090324	20101115.090611	single-task	8	0.013307	60	0	60-180	60	92	NoGap	1	24	2	6	1	distractor	0	494	-1000	-8105	13.328	13.310	13.347
DTProbeTrack03	10	ProbeTrackDT	1.1	SCS215a	20101115.090324	20101115.090616	single-task	8	0.013307	60	0	60-180	60	133	NoGap	1	25	2	9	1	target	1	254	873	-7232	13.384	12.883	26.878
DTProbeTrack03	10	ProbeTrackDT	1.1	SCS215a	20101115.090324	20101115.090622	single-task	8	0.013307	60	0	60-180	60	78	NoGap	1	26	2	6	0	target	0	414	-1000	-8232	13.328	13.097	13.559
DTProbeTrack03	10	ProbeTrackDT	1.1	SCS215a	20101115.090324	20101115.090627	single-task	8	0.013307	60	0	60-180	60	73	NoGap	1	27	2	45	0	distractor	1	347	827	-7405	13.328	13.301	13.350
DTProbeTrack03	10	ProbeTrackDT	1.1	SCS215a	20101115.090324	20101115.090632	single-task	8	0.013307	60	0	60-180	60	164	NoGap	1	28	2	3	1	target	1	280	860	-6545	13.328	13.302	13.347
DTProbeTrack03	10	ProbeTrackDT	1.1	SCS215a	20101115.090324	20101115.090638	single-task	8	0.013307	60	0	60-180	60	61	NoGap	1	29	2	6	0	target	0	400	-1000	-7545	13.328	13.102	13.538
DTProbeTrack03	10	ProbeTrackDT	1.1	SCS215a	20101115.090324	20101115.090642	single-task	8	0.013307	60	0	60-180	60	159	NoGap	1	30	2	1	1	distractor	0	307	-1000	-8545	13.328	12.987	13.661
DTProbeTrack03	10	ProbeTrackDT	1.1	SCS215a	20101115.090324	20101115.090648	single-task	8	0.013307	60	0	60-180	60	116	NoGap	1	31	2	1	1	target	1	440	780	-7765	13.328	13.310	13.355
DTProbeTrack03	10	ProbeTrackDT	1.1	SCS215a	20101115.090324	20101115.090653	single-task	8	0.013307	60	0	60-180	60	177	NoGap	1	32	2	45	1	target	1	294	853	-6912	13.369	13.291	26.660
DTProbeTrack03	10	ProbeTrackDT	1.1	SCS215a	20101115.090324	20101115.090700	single-task	8	0.013307	60	0	60-180	60	158	NoGap	1	33	2	3	1	target	1	680	660	-6252	13.374	13.060	26.665
DTProbeTrack03	10	ProbeTrackDT	1.1	SCS215a	20101115.090324	20101115.090706	single-task	8	0.013307	60	0	60-180	60	118	NoGap	1	34	2	9	1	target	1	520	740	-5512	13.328	13.305	13.349
DTProbeTrack03	10	ProbeTrackDT	1.1	SCS215a	20101115.090324	20101115.090712	single-task	8	0.013307	60	0	60-180	60	122	NoGap	1	35	2	9	1	distractor	0	400	-1000	-6512	13.328	13.093	13.547
DTProbeTrack03	10	ProbeTrackDT	1.1	SCS215a	20101115.090324	20101115.090717	single-task	8	0.013307	60	0	60-180	60	172	NoGap	1	36	2	3	1	distractor	0	334	-1000	-7512	13.328	13.107	13.541
DTProbeTrack03	10	ProbeTrackDT	1.1	SCS215a	20101115.090324	20101115.090723	single-task	8	0.013307	60	0	60-180	60	114	NoGap	1	37	2	6	1	target	1	507	747	-6765	13.328	13.304	13.351
DTProbeTrack03	10	ProbeTrackDT	1.1	SCS215a	20101115.090324	20101115.090728	single-task	8	0.013307	60	0	60-180	60	76	NoGap	1	38	2	3	1	target	1	454	773	-5992	13.328	12.919	13.731
DTProbeTrack03	10	ProbeTrackDT	1.1	SCS215a	20101115.090324	20101115.090733	single-task	8	0.013307	60	0	60-180	60	79	NoGap	1	39	2	1	0	distractor	1	680	660	-5332	13.328	13.114	13.557
DTProbeTrack03	10	ProbeTrackDT	1.1	SCS215a	20101115.090324	20101115.090738	single-task	8	0.013307	60	0	60-180	60	78	NoGap	1	40	2	1	0	target	0	387	-1000	-6332	13.328	13.276	13.374
DTProbeTrack03	10	ProbeTrackDT	1.1	SCS215a	20101115.091015	20101115.091024	dt-shadow	8	0.013327	60	10	60-180	60	158	GapPrac	1	1	2	9	0	target	0	1400	-1000	-7332	13.328	13.143	13.495
DTProbeTrack03	10	ProbeTrackDT	1.1	SCS215a	20101115.091015	20101115.091031	dt-shadow	8	0.013327	60	10	60-180	60	111	GapPrac	1	2	2	45	1	target	1	547	727	-6605	13.328	13.149	13.494
DTProbeTrack03	10	ProbeTrackDT	1.1	SCS215a	20101115.091015	20101115.091037	dt-shadow	8	0.013327	60	10	60-180	60	104	GapPrac	1	3	2	3	1	target	1	628	686	-5919	13.328	13.024	13.635
DTProbeTrack03	10	ProbeTrackDT	1.1	SCS215a	20101115.091015	20101115.091043	dt-shadow	8	0.013327	60	10	60-180	60	66	GapPrac	1	4	2	45	1	distractor	0	707	-1000	-6919	13.328	12.956	13.716
DTProbeTrack03	10	ProbeTrackDT	1.1	SCS215a	20101115.091015	20101115.091048	dt-shadow	8	0.013327	60	10	60-180	60	167	GapPrac	1	5	2	9	1	distractor	0	774	-1000	-7919	13.328	13.045	13.611
DTProbeTrack03	10	ProbeTrackDT	1.1	SCS215a	20101115.091015	20101115.091055	dt-shadow	8	0.013327	60	10	60-180	60	128	GapPrac	1	6	2	6	1	target	1	667	667	-7252	13.328	13.077	13.594
DTProbeTrack03	10	ProbeTrackDT	1.1	SCS215a	20101115.091015	20101115.091101	dt-shadow	8	0.013327	60	10	60-180	60	83	GapPrac	1	7	2	1	0	target	0	560	-1000	-8252	13.328	12.874	13.792
DTProbeTrack03	10	ProbeTrackDT	1.1	SCS215a	20101115.091015	20101115.091106	dt-shadow	8	0.013327	60	10	60-180	60	152	GapPrac	1	8	2	3	0	target	0	507	-1000	-9252	13.328	12.846	13.818
DTProbeTrack03	10	ProbeTrackDT	1.1	SCS215a	20101115.091015	20101115.091112	dt-shadow	8	0.013327	60	10	60-180	60	72	GapPrac	1	9	2	3	0	target	0	627	-1000	-10252	13.328	12.988	13.662
DTProbeTrack03	10	ProbeTrackDT	1.1	SCS215a	20101115.091015	20101115.091117	dt-shadow	8	0.013327	60	10	60-180	60	124	GapPrac	1	10	2	45	0	distractor	1	680	660	-9592	13.328	13.308	13.351
DTProbeTrack03	10	ProbeTrackDT	1.1	SCS215a	20101115.091015	20101115.091123	dt-shadow	8	0.013327	60	10	60-180	60	106	GapPrac	1	11	2	9	0	distractor	1	800	600	-8992	13.328	13.100	13.548
DTProbeTrack03	10	ProbeTrackDT	1.1	SCS215a	20101115.091015	20101115.091129	dt-shadow	8	0.013327	60	10	60-180	60	67	GapPrac	1	12	2	6	0	target	0	640	-1000	-9992	13.328	13.311	13.345
DTProbeTrack03	10	ProbeTrackDT	1.1	SCS215a	20101115.091015	20101115.091134	dt-shadow	8	0.013327	60	10	60-180	60	131	GapPrac	1	13	2	6	0	target	0	627	-1000	-10992	13.328	12.923	13.772
DTProbeTrack03	10	ProbeTrackDT	1.1	SCS215a	20101115.091015	20101115.091140	dt-shadow	8	0.013327	60	10	60-180	60	168	GapPrac	1	14	2	3	1	target	1	480	760	-10232	13.328	12.910	13.754
DTProbeTrack03	10	ProbeTrackDT	1.1	SCS215a	20101115.091015	20101115.091146	dt-shadow	8	0.013327	60	10	60-180	60	142	GapPrac	1	15	2	45	0	distractor	1	440	780	-9452	13.328	12.864	13.805
DTProbeTrack03	10	ProbeTrackDT	1.1	SCS215a	20101115.091015	20101115.091152	dt-shadow	8	0.013327	60	10	60-180	60	112	GapPrac	1	16	2	9	1	target	1	667	667	-8785	13.328	12.883	13.788
DTProbeTrack03	10	ProbeTrackDT	1.1	SCS215a	20101115.091015	20101115.091158	dt-shadow	8	0.013327	60	10	60-180	60	166	GapPrac	1	17	2	1	1	target	1	574	713	-8072	13.328	12.928	13.729
DTProbeTrack03	10	ProbeTrackDT	1.1	SCS215a	20101115.091015	20101115.091204	dt-shadow	8	0.013327	60	10	60-180	60	157	GapPrac	1	18	2	6	1	target	1	440	780	-7292	13.328	13.090	13.571
DTProbeTrack03	10	ProbeTrackDT	1.1	SCS215a	20101115.091015	20101115.091210	dt-shadow	8	0.013327	60	10	60-180	60	107	GapPrac	1	19	2	1	1	target	1	507	747	-6545	13.328	13.023	13.647
DTProbeTrack03	10	ProbeTrackDT	1.1	SCS215a	20101115.091015	20101115.091215	dt-shadow	8	0.013327	60	10	60-180	60	132	GapPrac	1	20	2	1	0	distractor	1	773	614	-5931	13.328	12.950	13.696
DTProbeTrack03	10	ProbeTrackDT	1.1	SCS215a	20101115.091304	20101115.091310	dt-shadow	8	0.013327	60	10	60-180	60	97	GapExp	1	1	2	3	0	distractor	1	813	594	-5337	13.328	13.104	13.553
DTProbeTrack03	10	ProbeTrackDT	1.1	SCS215a	20101115.091304	20101115.091315	dt-shadow	8	0.013327	60	10	60-180	60	137	GapExp	1	2	2	1	0	distractor	1	534	733	-4604	13.328	12.885	13.772
DTProbeTrack03	10	ProbeTrackDT	1.1	SCS215a	20101115.091304	20101115.091321	dt-shadow	8	0.013327	60	10	60-180	60	138	GapExp	1	3	2	9	0	distractor	1	467	767	-3837	13.328	13.091	13.559
DTProbeTrack03	10	ProbeTrackDT	1.1	SCS215a	20101115.091304	20101115.091327	dt-shadow	8	0.013327	60	10	60-180	60	178	GapExp	1	4	2	6	0	target	0	707	-1000	-4837	13.328	13.089	13.560
DTProbeTrack03	10	ProbeTrackDT	1.1	SCS215a	20101115.091304	20101115.091334	dt-shadow	8	0.013327	60	10	60-180	60	130	GapExp	1	5	2	3	1	distractor	0	720	-1000	-5837	13.328	13.306	13.348
DTProbeTrack03	10	ProbeTrackDT	1.1	SCS215a	20101115.091304	20101115.091339	dt-shadow	8	0.013327	60	10	60-180	60	84	GapExp	0	6	2	6	1	target	1	427	787	-5050	13.328	12.887	13.759
DTProbeTrack03	10	ProbeTrackDT	1.1	SCS215a	20101115.091304	20101115.091345	dt-shadow	8	0.013327	60	10	60-180	60	125	GapExp	0	7	2	9	0	target	0	520	-1000	-6050	13.328	12.856	13.805
DTProbeTrack03	10	ProbeTrackDT	1.1	SCS215a	20101115.091304	20101115.091350	dt-shadow	8	0.013327	60	10	60-180	60	83	GapExp	0	8	2	3	1	target	1	520	740	-5310	13.328	13.098	13.554
DTProbeTrack03	10	ProbeTrackDT	1.1	SCS215a	20101115.091304	20101115.091355	dt-shadow	8	0.013327	60	10	60-180	60	172	GapExp	0	9	2	3	0	distractor	1	720	640	-4670	13.328	13.103	13.558
DTProbeTrack03	10	ProbeTrackDT	1.1	SCS215a	20101115.091304	20101115.091402	dt-shadow	8	0.013327	60	10	60-180	60	168	GapExp	0	10	2	45	0	distractor	1	614	693	-3977	13.328	12.868	13.785
DTProbeTrack03	10	ProbeTrackDT	1.1	SCS215a	20101115.091304	20101115.091409	dt-shadow	8	0.013327	60	10	60-180	60	130	GapExp	0	11	2	1	1	target	1	773	614	-3363	13.328	12.947	13.703
DTProbeTrack03	10	ProbeTrackDT	1.1	SCS215a	20101115.091304	20101115.091415	dt-shadow	8	0.013327	60	10	60-180	60	95	GapExp	0	12	2	6	0	distractor	1	653	674	-2689	13.328	12.931	13.733
DTProbeTrack03	10	ProbeTrackDT	1.1	SCS215a	20101115.091304	20101115.091420	dt-shadow	8	0.013327	60	10	60-180	60	90	GapExp	0	13	2	6	0	distractor	1	653	674	-2015	13.328	12.921	13.728
DTProbeTrack03	10	ProbeTrackDT	1.1	SCS215a	20101115.091304	20101115.091425	dt-shadow	8	0.013327	60	10	60-180	60	126	GapExp	0	14	2	3	1	target	1	547	727	-1288	13.328	12.851	13.826
DTProbeTrack03	10	ProbeTrackDT	1.1	SCS215a	20101115.091304	20101115.091431	dt-shadow	8	0.013327	60	10	60-180	60	175	GapExp	0	15	2	3	1	target	1	520	740	-548	13.328	12.940	13.711
DTProbeTrack03	10	ProbeTrackDT	1.1	SCS215a	20101115.091304	20101115.091437	dt-shadow	8	0.013327	60	10	60-180	60	144	GapExp	0	16	2	6	0	target	0	600	-1000	-1548	13.328	12.859	13.803
DTProbeTrack03	10	ProbeTrackDT	1.1	SCS215a	20101115.091304	20101115.091443	dt-shadow	8	0.013327	60	10	60-180	60	112	GapExp	0	17	2	9	0	distractor	1	547	727	-821	13.328	13.084	13.590
DTProbeTrack03	10	ProbeTrackDT	1.1	SCS215a	20101115.091304	20101115.091449	dt-shadow	8	0.013327	60	10	60-180	60	129	GapExp	0	18	2	9	1	target	1	614	693	-128	13.328	12.894	13.769
DTProbeTrack03	10	ProbeTrackDT	1.1	SCS215a	20101115.091304	20101115.091455	dt-shadow	8	0.013327	60	10	60-180	60	72	GapExp	0	19	2	1	1	distractor	0	1320	-1000	-1128	13.328	12.923	13.727
DTProbeTrack03	10	ProbeTrackDT	1.1	SCS215a	20101115.091304	20101115.091500	dt-shadow	8	0.013327	60	10	60-180	60	172	GapExp	0	20	2	1	1	target	1	440	780	-348	13.328	13.113	13.547
DTProbeTrack03	10	ProbeTrackDT	1.1	SCS215a	20101115.091304	20101115.091507	dt-shadow	8	0.013327	60	10	60-180	60	117	GapExp	0	21	2	6	0	distractor	1	707	647	299	13.328	12.837	13.811
DTProbeTrack03	10	ProbeTrackDT	1.1	SCS215a	20101115.091304	20101115.091512	dt-shadow	8	0.013327	60	10	60-180	60	142	GapExp	0	22	2	6	0	target	0	454	-1000	-701	13.328	12.885	13.769
DTProbeTrack03	10	ProbeTrackDT	1.1	SCS215a	20101115.091304	20101115.091518	dt-shadow	8	0.013327	60	10	60-180	60	168	GapExp	0	23	2	9	1	target	1	507	747	46	13.328	13.188	13.471
DTProbeTrack03	10	ProbeTrackDT	1.1	SCS215a	20101115.091304	20101115.091524	dt-shadow	8	0.013327	60	10	60-180	60	80	GapExp	0	24	2	1	1	target	1	454	773	819	13.328	13.195	13.463
DTProbeTrack03	10	ProbeTrackDT	1.1	SCS215a	20101115.091304	20101115.091529	dt-shadow	8	0.013327	60	10	60-180	60	115	GapExp	0	25	2	1	0	distractor	1	747	627	1446	13.328	12.921	13.727
DTProbeTrack03	10	ProbeTrackDT	1.1	SCS215a	20101115.091304	20101115.091535	dt-shadow	8	0.013327	60	10	60-180	60	109	GapExp	0	26	2	3	0	distractor	1	640	680	2126	13.328	12.893	13.766
DTProbeTrack03	10	ProbeTrackDT	1.1	SCS215a	20101115.091304	20101115.091541	dt-shadow	8	0.013327	60	10	60-180	60	138	GapExp	0	27	2	45	0	target	0	507	-1000	1126	13.328	12.897	13.768
DTProbeTrack03	10	ProbeTrackDT	1.1	SCS215a	20101115.091304	20101115.091547	dt-shadow	8	0.013327	60	10	60-180	60	158	GapExp	0	28	2	6	0	target	0	467	-1000	126	13.328	12.914	13.724
DTProbeTrack03	10	ProbeTrackDT	1.1	SCS215a	20101115.091304	20101115.091553	dt-shadow	8	0.013327	60	10	60-180	60	161	GapExp	0	29	2	3	0	target	0	520	-1000	-874	13.328	12.886	13.764
DTProbeTrack03	10	ProbeTrackDT	1.1	SCS215a	20101115.091304	20101115.091559	dt-shadow	8	0.013327	60	10	60-180	60	149	GapExp	0	30	2	45	1	target	1	454	773	-101	13.370	13.085	26.459
DTProbeTrack03	10	ProbeTrackDT	1.1	SCS215a	20101115.091304	20101115.091606	dt-shadow	8	0.013327	60	10	60-180	60	83	GapExp	0	31	2	1	0	distractor	1	867	567	466	13.328	13.303	13.349
DTProbeTrack03	10	ProbeTrackDT	1.1	SCS215a	20101115.091304	20101115.091611	dt-shadow	8	0.013327	60	10	60-180	60	92	GapExp	0	32	2	1	1	target	1	547	727	1193	13.328	12.874	13.801
DTProbeTrack03	10	ProbeTrackDT	1.1	SCS215a	20101115.091304	20101115.091616	dt-shadow	8	0.013327	60	10	60-180	60	72	GapExp	0	33	2	1	0	target	0	640	-1000	193	13.328	12.908	13.740
DTProbeTrack03	10	ProbeTrackDT	1.1	SCS215a	20101115.091304	20101115.091621	dt-shadow	8	0.013327	60	10	60-180	60	180	GapExp	0	34	2	45	0	target	0	507	-1000	-807	13.328	12.931	13.740
DTProbeTrack03	10	ProbeTrackDT	1.1	SCS215a	20101115.091304	20101115.091628	dt-shadow	8	0.013327	60	10	60-180	60	80	GapExp	0	35	2	3	0	distractor	1	600	700	-107	13.328	12.891	13.754
DTProbeTrack03	10	ProbeTrackDT	1.1	SCS215a	20101115.091304	20101115.091633	dt-shadow	8	0.013327	60	10	60-180	60	138	GapExp	0	36	2	6	0	distractor	1	640	680	573	13.328	13.307	13.346
DTProbeTrack03	10	ProbeTrackDT	1.1	SCS215a	20101115.091304	20101115.091639	dt-shadow	8	0.013327	60	10	60-180	60	168	GapExp	0	37	2	3	0	distractor	1	720	640	1213	13.328	12.874	13.784
DTProbeTrack03	10	ProbeTrackDT	1.1	SCS215a	20101115.091304	20101115.091646	dt-shadow	8	0.013327	60	10	60-180	60	103	GapExp	0	38	2	45	1	distractor	0	947	-1000	213	13.328	12.889	13.784
DTProbeTrack03	10	ProbeTrackDT	1.1	SCS215a	20101115.091304	20101115.091652	dt-shadow	8	0.013327	60	10	60-180	60	143	GapExp	0	39	2	9	0	distractor	1	574	713	926	13.328	13.304	13.357
DTProbeTrack03	10	ProbeTrackDT	1.1	SCS215a	20101115.091304	20101115.091658	dt-shadow	8	0.013327	60	10	60-180	60	164	GapExp	0	40	2	45	1	target	1	654	673	1599	13.328	12.893	13.755
DTProbeTrack03	10	ProbeTrackDT	1.1	SCS215a	20101115.091304	20101115.091705	dt-shadow	8	0.013327	60	10	60-180	60	108	GapExp	0	41	2	9	1	target	1	627	687	2286	13.328	12.891	13.771
DTProbeTrack03	10	ProbeTrackDT	1.1	SCS215a	20101115.091304	20101115.091710	dt-shadow	8	0.013327	60	10	60-180	60	107	GapExp	0	42	2	6	1	target	1	400	800	3086	13.328	13.195	13.462
DTProbeTrack03	10	ProbeTrackDT	1.1	SCS215a	20101115.091304	20101115.091716	dt-shadow	8	0.013327	60	10	60-180	60	77	GapExp	0	43	2	3	0	distractor	1	507	747	3833	13.328	13.308	13.349
DTProbeTrack03	10	ProbeTrackDT	1.1	SCS215a	20101115.091304	20101115.091721	dt-shadow	8	0.013327	60	10	60-180	60	116	GapExp	0	44	2	3	0	distractor	1	640	680	4513	13.328	13.094	13.561
DTProbeTrack03	10	ProbeTrackDT	1.1	SCS215a	20101115.091304	20101115.091726	dt-shadow	8	0.013327	60	10	60-180	60	66	GapExp	0	45	2	9	1	target	1	454	773	5286	13.328	12.856	13.792
DTProbeTrack03	10	ProbeTrackDT	1.1	SCS215a	20101115.091304	20101115.091731	dt-shadow	8	0.013327	60	10	60-180	60	109	GapExp	0	46	2	6	1	target	1	440	780	6066	13.328	13.270	13.380
DTProbeTrack03	10	ProbeTrackDT	1.1	SCS215a	20101115.091304	20101115.091737	dt-shadow	8	0.013327	60	10	60-180	60	133	GapExp	0	47	2	45	1	target	1	307	847	6913	13.328	12.992	13.663
DTProbeTrack03	10	ProbeTrackDT	1.1	SCS215a	20101115.091304	20101115.091743	dt-shadow	8	0.013327	60	10	60-180	60	63	GapExp	0	48	2	6	0	target	0	547	-1000	5913	13.328	12.839	13.811
DTProbeTrack03	10	ProbeTrackDT	1.1	SCS215a	20101115.091304	20101115.091748	dt-shadow	8	0.013327	60	10	60-180	60	97	GapExp	0	49	2	9	1	target	1	387	807	6720	13.328	13.106	13.551
DTProbeTrack03	10	ProbeTrackDT	1.1	SCS215a	20101115.091304	20101115.091753	dt-shadow	8	0.013327	60	10	60-180	60	154	GapExp	0	50	2	3	1	target	1	400	800	7520	13.328	12.866	13.786
DTProbeTrack03	10	ProbeTrackDT	1.1	SCS215a	20101115.091304	20101115.091805	dt-shadow	8	0.013327	60	10	60-180	60	160	GapExp	0	51	2	1	1	target	1	494	753	8273	13.328	12.955	13.704
DTProbeTrack03	10	ProbeTrackDT	1.1	SCS215a	20101115.091304	20101115.091811	dt-shadow	8	0.013327	60	10	60-180	60	115	GapExp	0	52	2	9	0	distractor	1	454	773	9046	13.328	13.144	13.506
DTProbeTrack03	10	ProbeTrackDT	1.1	SCS215a	20101115.091304	20101115.091817	dt-shadow	8	0.013327	60	10	60-180	60	114	GapExp	0	53	2	1	0	distractor	1	693	654	9700	13.328	13.092	13.559
DTProbeTrack03	10	ProbeTrackDT	1.1	SCS215a	20101115.091304	20101115.091823	dt-shadow	8	0.013327	60	10	60-180	60	67	GapExp	0	54	2	6	0	distractor	1	573	714	10414	13.328	13.114	13.558
DTProbeTrack03	10	ProbeTrackDT	1.1	SCS215a	20101115.091304	20101115.091828	dt-shadow	8	0.013327	60	10	60-180	60	178	GapExp	0	55	2	1	1	distractor	0	600	-1000	9414	13.328	13.303	13.349
DTProbeTrack03	10	ProbeTrackDT	1.1	SCS215a	20101115.091304	20101115.091834	dt-shadow	8	0.013327	60	10	60-180	60	73	GapExp	0	56	2	9	0	distractor	1	614	693	10107	13.328	13.297	13.361
DTProbeTrack03	10	ProbeTrackDT	1.1	SCS215a	20101115.091304	20101115.091839	dt-shadow	8	0.013327	60	10	60-180	60	116	GapExp	0	57	2	9	1	target	1	494	753	10860	13.328	12.956	13.699
DTProbeTrack03	10	ProbeTrackDT	1.1	SCS215a	20101115.091304	20101115.091845	dt-shadow	8	0.013327	60	10	60-180	60	176	GapExp	0	58	2	9	0	distractor	1	507	747	11607	13.328	12.979	13.664
DTProbeTrack03	10	ProbeTrackDT	1.1	SCS215a	20101115.091304	20101115.091851	dt-shadow	8	0.013327	60	10	60-180	60	100	GapExp	0	59	2	1	1	target	1	547	727	12334	13.328	13.106	13.551
DTProbeTrack03	10	ProbeTrackDT	1.1	SCS215a	20101115.091304	20101115.091856	dt-shadow	8	0.013327	60	10	60-180	60	174	GapExp	0	60	2	3	0	distractor	1	440	780	13114	13.328	13.100	13.557
DTProbeTrack03	10	ProbeTrackDT	1.1	SCS215a	20101115.091304	20101115.091903	dt-shadow	8	0.013327	60	10	60-180	60	85	GapExp	0	61	2	1	0	target	0	573	-1000	12114	13.328	12.917	13.732
DTProbeTrack03	10	ProbeTrackDT	1.1	SCS215a	20101115.091304	20101115.091908	dt-shadow	8	0.013327	60	10	60-180	60	153	GapExp	0	62	2	1	1	target	1	494	753	12867	13.328	13.300	13.351
DTProbeTrack03	10	ProbeTrackDT	1.1	SCS215a	20101115.091304	20101115.091914	dt-shadow	8	0.013327	60	10	60-180	60	117	GapExp	0	63	2	3	1	target	1	653	674	13541	13.328	13.110	13.547
DTProbeTrack03	10	ProbeTrackDT	1.1	SCS215a	20101115.091304	20101115.091919	dt-shadow	8	0.013327	60	10	60-180	60	88	GapExp	0	64	2	3	1	target	1	507	747	14288	13.328	12.950	13.716
DTProbeTrack03	10	ProbeTrackDT	1.1	SCS215a	20101115.091304	20101115.091924	dt-shadow	8	0.013327	60	10	60-180	60	71	GapExp	0	65	2	6	1	target	1	374	813	15101	13.328	13.308	13.356
DTProbeTrack03	10	ProbeTrackDT	1.1	SCS215a	20101115.091304	20101115.091929	dt-shadow	8	0.013327	60	10	60-180	60	160	GapExp	0	66	2	6	1	target	1	387	807	15908	13.328	13.305	13.357
DTProbeTrack03	10	ProbeTrackDT	1.1	SCS215a	20101115.091304	20101115.091935	dt-shadow	8	0.013327	60	10	60-180	60	143	GapExp	0	67	2	6	1	target	1	360	820	16728	13.328	13.306	13.356
DTProbeTrack03	10	ProbeTrackDT	1.1	SCS215a	20101115.091304	20101115.091941	dt-shadow	8	0.013327	60	10	60-180	60	153	GapExp	0	68	2	9	1	target	1	520	740	17468	13.328	12.877	13.777
DTProbeTrack03	10	ProbeTrackDT	1.1	SCS215a	20101115.091304	20101115.091947	dt-shadow	8	0.013327	60	10	60-180	60	67	GapExp	0	69	2	45	0	target	0	467	-1000	16468	13.328	12.876	13.776
DTProbeTrack03	10	ProbeTrackDT	1.1	SCS215a	20101115.091304	20101115.091952	dt-shadow	8	0.013327	60	10	60-180	60	136	GapExp	0	70	2	9	1	target	1	427	787	17255	13.328	13.288	13.369
DTProbeTrack03	10	ProbeTrackDT	1.1	SCS215a	20101115.091304	20101115.091958	dt-shadow	8	0.013327	60	10	60-180	60	114	GapExp	0	71	2	1	0	distractor	1	640	680	17935	13.328	13.308	13.347
DTProbeTrack03	10	ProbeTrackDT	1.1	SCS215a	20101115.091304	20101115.092004	dt-shadow	8	0.013327	60	10	60-180	60	170	GapExp	0	72	2	1	1	target	1	480	760	18695	13.328	12.930	13.734
DTProbeTrack03	10	ProbeTrackDT	1.1	SCS215a	20101115.091304	20101115.092010	dt-shadow	8	0.013327	60	10	60-180	60	117	GapExp	0	73	2	6	1	target	1	587	707	19402	13.328	13.049	13.616
DTProbeTrack03	10	ProbeTrackDT	1.1	SCS215a	20101115.091304	20101115.092016	dt-shadow	8	0.013327	60	10	60-180	60	103	GapExp	0	74	2	45	1	distractor	0	427	-1000	18402	13.328	13.098	13.557
DTProbeTrack03	10	ProbeTrackDT	1.1	SCS215a	20101115.091304	20101115.092021	dt-shadow	8	0.013327	60	10	60-180	60	117	GapExp	0	75	2	3	1	target	1	440	780	19182	13.328	12.977	13.670
DTProbeTrack03	10	ProbeTrackDT	1.1	SCS215a	20101115.091304	20101115.092027	dt-shadow	8	0.013327	60	10	60-180	60	147	GapExp	0	76	2	3	1	target	1	440	780	19962	13.328	12.854	13.785
DTProbeTrack03	10	ProbeTrackDT	1.1	SCS215a	20101115.091304	20101115.092033	dt-shadow	8	0.013327	60	10	60-180	60	151	GapExp	0	77	2	6	0	target	0	600	-1000	18962	13.328	13.023	13.640
DTProbeTrack03	10	ProbeTrackDT	1.1	SCS215a	20101115.091304	20101115.092039	dt-shadow	8	0.013327	60	10	60-180	60	162	GapExp	0	78	2	3	0	distractor	1	653	674	19636	13.328	13.299	13.352
DTProbeTrack03	10	ProbeTrackDT	1.1	SCS215a	20101115.091304	20101115.092045	dt-shadow	8	0.013327	60	10	60-180	60	169	GapExp	0	79	2	6	0	distractor	1	534	733	20369	13.372	12.851	26.696
DTProbeTrack03	10	ProbeTrackDT	1.1	SCS215a	20101115.091304	20101115.092051	dt-shadow	8	0.013327	60	10	60-180	60	100	GapExp	0	80	2	6	1	target	1	520	740	21109	13.328	13.093	13.552
DTProbeTrack03	10	ProbeTrackDT	1.1	SCS215a	20101115.091304	20101115.092057	dt-shadow	8	0.013327	60	10	60-180	60	106	GapExp	0	81	2	6	1	distractor	0	587	-1000	20109	13.328	13.104	13.551
DTProbeTrack03	10	ProbeTrackDT	1.1	SCS215a	20101115.091304	20101115.092102	dt-shadow	8	0.013327	60	10	60-180	60	109	GapExp	0	82	2	9	1	distractor	0	600	-1000	19109	13.328	13.308	13.347
DTProbeTrack03	10	ProbeTrackDT	1.1	SCS215a	20101115.091304	20101115.092108	dt-shadow	8	0.013327	60	10	60-180	60	104	GapExp	0	83	2	1	0	distractor	1	534	733	19842	13.328	13.308	13.350
DTProbeTrack03	10	ProbeTrackDT	1.1	SCS215a	20101115.091304	20101115.092113	dt-shadow	8	0.013327	60	10	60-180	60	111	GapExp	0	84	2	1	1	target	1	640	680	20522	13.328	13.094	13.563
DTProbeTrack03	10	ProbeTrackDT	1.1	SCS215a	20101115.091304	20101115.092118	dt-shadow	8	0.013327	60	10	60-180	60	179	GapExp	0	85	2	45	1	target	1	667	667	21189	13.328	13.300	13.358
DTProbeTrack03	10	ProbeTrackDT	1.1	SCS215a	20101115.091304	20101115.092126	dt-shadow	8	0.013327	60	10	60-180	60	112	GapExp	0	86	2	45	0	target	0	494	-1000	20189	13.328	12.930	13.741
DTProbeTrack03	10	ProbeTrackDT	1.1	SCS215a	20101115.091304	20101115.092132	dt-shadow	8	0.013327	60	10	60-180	60	80	GapExp	0	87	2	6	1	target	1	400	800	20989	13.328	13.098	13.551
DTProbeTrack03	10	ProbeTrackDT	1.1	SCS215a	20101115.091304	20101115.092137	dt-shadow	8	0.013327	60	10	60-180	60	155	GapExp	0	88	2	3	1	target	1	1813	94	21083	13.328	13.045	13.618
DTProbeTrack03	10	ProbeTrackDT	1.1	SCS215a	20101115.091304	20101115.092144	dt-shadow	8	0.013327	60	10	60-180	60	156	GapExp	0	89	2	9	1	target	1	360	820	21903	13.328	12.866	13.791
DTProbeTrack03	10	ProbeTrackDT	1.1	SCS215a	20101115.091304	20101115.092150	dt-shadow	8	0.013327	60	10	60-180	60	144	GapExp	0	90	2	9	0	target	0	347	-1000	20903	13.328	13.308	13.348
DTProbeTrack03	10	ProbeTrackDT	1.1	SCS215a	20101115.091304	20101115.092156	dt-shadow	8	0.013327	60	10	60-180	60	113	GapExp	0	91	2	45	0	target	0	320	-1000	19903	13.328	13.193	13.462
DTProbeTrack03	10	ProbeTrackDT	1.1	SCS215a	20101115.091304	20101115.092202	dt-shadow	8	0.013327	60	10	60-180	60	148	GapExp	0	92	2	3	1	target	1	454	773	20676	13.328	12.993	13.655
DTProbeTrack03	10	ProbeTrackDT	1.1	SCS215a	20101115.091304	20101115.092207	dt-shadow	8	0.013327	60	10	60-180	60	138	GapExp	0	93	2	9	1	target	1	360	820	21496	13.328	13.085	13.565
DTProbeTrack03	10	ProbeTrackDT	1.1	SCS215a	20101115.091304	20101115.092213	dt-shadow	8	0.013327	60	10	60-180	60	83	GapExp	0	94	2	3	1	target	1	534	733	22229	13.328	13.309	13.350
DTProbeTrack03	10	ProbeTrackDT	1.1	SCS215a	20101115.091304	20101115.092218	dt-shadow	8	0.013327	60	10	60-180	60	134	GapExp	0	95	2	1	0	target	0	547	-1000	21229	13.328	12.962	13.696
DTProbeTrack03	10	ProbeTrackDT	1.1	SCS215a	20101115.091304	20101115.092224	dt-shadow	8	0.013327	60	10	60-180	60	164	GapExp	0	96	2	3	0	target	0	534	-1000	20229	13.328	12.900	13.749
DTProbeTrack03	10	ProbeTrackDT	1.1	SCS215a	20101115.091304	20101115.092230	dt-shadow	8	0.013327	60	10	60-180	60	159	GapExp	0	97	2	45	0	distractor	1	574	713	20942	13.328	13.092	13.570
DTProbeTrack03	10	ProbeTrackDT	1.1	SCS215a	20101115.091304	20101115.092237	dt-shadow	8	0.013327	60	10	60-180	60	125	GapExp	0	98	2	9	1	target	1	454	773	21715	13.328	13.099	13.564
DTProbeTrack03	10	ProbeTrackDT	1.1	SCS215a	20101115.091304	20101115.092242	dt-shadow	8	0.013327	60	10	60-180	60	159	GapExp	0	99	2	1	0	target	0	467	-1000	20715	13.328	13.086	13.571
DTProbeTrack03	10	ProbeTrackDT	1.1	SCS215a	20101115.091304	20101115.092248	dt-shadow	8	0.013327	60	10	60-180	60	66	GapExp	0	100	2	9	0	target	0	440	-1000	19715	13.328	13.308	13.347
DTProbeTrack03	10	ProbeTrackDT	1.1	SCS215a	20101115.091304	20101115.092259	dt-shadow	8	0.013327	60	10	60-180	60	131	GapExp	0	101	2	9	0	distractor	1	547	727	20442	13.328	13.308	13.347
DTProbeTrack03	10	ProbeTrackDT	1.1	SCS215a	20101115.091304	20101115.092305	dt-shadow	8	0.013327	60	10	60-180	60	111	GapExp	0	102	2	3	1	target	1	787	607	21049	13.328	13.091	13.552
DTProbeTrack03	10	ProbeTrackDT	1.1	SCS215a	20101115.091304	20101115.092311	dt-shadow	8	0.013327	60	10	60-180	60	79	GapExp	0	103	2	45	0	distractor	1	454	773	21822	13.328	13.053	13.601
DTProbeTrack03	10	ProbeTrackDT	1.1	SCS215a	20101115.091304	20101115.092316	dt-shadow	8	0.013327	60	10	60-180	60	121	GapExp	0	104	2	45	0	target	0	467	-1000	20822	13.328	13.094	13.545
DTProbeTrack03	10	ProbeTrackDT	1.1	SCS215a	20101115.091304	20101115.092322	dt-shadow	8	0.013327	60	10	60-180	60	65	GapExp	0	105	2	45	0	distractor	1	680	660	21482	13.328	13.083	13.566
DTProbeTrack03	10	ProbeTrackDT	1.1	SCS215a	20101115.091304	20101115.092328	dt-shadow	8	0.013327	60	10	60-180	60	88	GapExp	0	106	2	45	0	target	0	533	-1000	20482	13.328	12.933	13.707
DTProbeTrack03	10	ProbeTrackDT	1.1	SCS215a	20101115.091304	20101115.092334	dt-shadow	8	0.013327	60	10	60-180	60	95	GapExp	0	107	2	45	1	target	1	360	820	21302	13.328	13.300	13.373
DTProbeTrack03	10	ProbeTrackDT	1.1	SCS215a	20101115.091304	20101115.092339	dt-shadow	8	0.013327	60	10	60-180	60	63	GapExp	0	108	2	6	1	target	1	414	793	22095	13.328	13.110	13.560
DTProbeTrack03	10	ProbeTrackDT	1.1	SCS215a	20101115.091304	20101115.092344	dt-shadow	8	0.013327	60	10	60-180	60	147	GapExp	0	109	2	45	1	target	1	560	720	22815	13.328	13.093	13.569
DTProbeTrack03	10	ProbeTrackDT	1.1	SCS215a	20101115.091304	20101115.092350	dt-shadow	8	0.013327	60	10	60-180	60	77	GapExp	0	110	2	1	0	distractor	1	494	753	23568	13.328	13.309	13.350
DTProbeTrack03	10	ProbeTrackDT	1.1	SCS215a	20101115.091304	20101115.092355	dt-shadow	8	0.013327	60	10	60-180	60	103	GapExp	0	111	2	45	1	target	1	427	787	24355	13.328	13.206	13.442
DTProbeTrack03	10	ProbeTrackDT	1.1	SCS215a	20101115.091304	20101115.092401	dt-shadow	8	0.013327	60	10	60-180	60	66	GapExp	0	112	2	45	1	distractor	0	294	-1000	23355	13.328	13.309	13.347
DTProbeTrack03	10	ProbeTrackDT	1.1	SCS215a	20101115.091304	20101115.092406	dt-shadow	8	0.013327	60	10	60-180	60	121	GapExp	0	113	2	1	0	distractor	1	507	747	24102	13.328	13.307	13.350
DTProbeTrack03	10	ProbeTrackDT	1.1	SCS215a	20101115.091304	20101115.092412	dt-shadow	8	0.013327	60	10	60-180	60	167	GapExp	0	114	2	3	0	distractor	1	720	640	24742	13.328	12.976	13.679
DTProbeTrack03	10	ProbeTrackDT	1.1	SCS215a	20101115.091304	20101115.092418	dt-shadow	8	0.013327	60	10	60-180	60	97	GapExp	0	115	2	45	0	distractor	1	520	740	25482	13.328	12.862	13.816
DTProbeTrack03	10	ProbeTrackDT	1.1	SCS215a	20101115.091304	20101115.092424	dt-shadow	8	0.013327	60	10	60-180	60	140	GapExp	0	116	2	45	0	target	0	494	-1000	24482	13.328	12.861	13.799
DTProbeTrack03	10	ProbeTrackDT	1.1	SCS215a	20101115.091304	20101115.092431	dt-shadow	8	0.013327	60	10	60-180	60	91	GapExp	0	117	2	1	0	distractor	1	720	640	25122	13.328	12.847	13.805
DTProbeTrack03	10	ProbeTrackDT	1.1	SCS215a	20101115.091304	20101115.092436	dt-shadow	8	0.013327	60	10	60-180	60	112	GapExp	0	118	2	9	1	target	1	454	773	25895	13.328	12.873	13.785
DTProbeTrack03	10	ProbeTrackDT	1.1	SCS215a	20101115.091304	20101115.092441	dt-shadow	8	0.013327	60	10	60-180	60	89	GapExp	0	119	2	45	0	target	0	827	-1000	24895	13.328	13.104	13.560
DTProbeTrack03	10	ProbeTrackDT	1.1	SCS215a	20101115.091304	20101115.092447	dt-shadow	8	0.013327	60	10	60-180	60	117	GapExp	0	120	2	45	1	target	1	400	800	25695	13.328	13.087	13.563
DTProbeTrack03	10	ProbeTrackDT	1.1	SCS215a	20101115.091304	20101115.092453	dt-shadow	8	0.013327	60	10	60-180	60	156	GapExp	0	121	2	3	0	distractor	1	440	780	26475	13.328	13.306	13.354
DTProbeTrack03	10	ProbeTrackDT	1.1	SCS215a	20101115.091304	20101115.092459	dt-shadow	8	0.013327	60	10	60-180	60	78	GapExp	0	122	2	45	1	target	1	414	793	27268	13.328	13.309	13.354
DTProbeTrack03	10	ProbeTrackDT	1.1	SCS215a	20101115.091304	20101115.092505	dt-shadow	8	0.013327	60	10	60-180	60	83	GapExp	0	123	2	1	1	target	1	507	747	28015	13.328	13.308	13.347
DTProbeTrack03	10	ProbeTrackDT	1.1	SCS215a	20101115.091304	20101115.092510	dt-shadow	8	0.013327	60	10	60-180	60	125	GapExp	0	124	2	9	1	distractor	0	494	-1000	27015	13.328	13.309	13.346
DTProbeTrack03	10	ProbeTrackDT	1.1	SCS215a	20101115.091304	20101115.092516	dt-shadow	8	0.013327	60	10	60-180	60	123	GapExp	0	125	2	1	1	target	1	427	787	27802	13.328	12.853	13.817
DTProbeTrack03	10	ProbeTrackDT	1.1	SCS215a	20101115.091304	20101115.092521	dt-shadow	8	0.013327	60	10	60-180	60	81	GapExp	0	126	2	6	1	target	1	480	760	28562	13.328	13.309	13.343
DTProbeTrack03	10	ProbeTrackDT	1.1	SCS215a	20101115.091304	20101115.092526	dt-shadow	8	0.013327	60	10	60-180	60	102	GapExp	0	127	2	9	0	distractor	1	467	767	29329	13.328	13.307	13.345
DTProbeTrack03	10	ProbeTrackDT	1.1	SCS215a	20101115.091304	20101115.092531	dt-shadow	8	0.013327	60	10	60-180	60	107	GapExp	0	128	2	3	0	target	0	520	-1000	28329	13.328	13.098	13.552
DTProbeTrack03	10	ProbeTrackDT	1.1	SCS215a	20101115.091304	20101115.092537	dt-shadow	8	0.013327	60	10	60-180	60	68	GapExp	0	129	2	6	1	target	1	414	793	29122	13.328	13.101	13.550
DTProbeTrack03	10	ProbeTrackDT	1.1	SCS215a	20101115.091304	20101115.092542	dt-shadow	8	0.013327	60	10	60-180	60	179	GapExp	0	130	2	45	1	target	1	480	760	29882	13.328	13.309	13.349
DTProbeTrack03	10	ProbeTrackDT	1.1	SCS215a	20101115.091304	20101115.092548	dt-shadow	8	0.013327	60	10	60-180	60	133	GapExp	0	131	2	9	0	target	0	400	-1000	28882	13.328	12.883	13.786
DTProbeTrack03	10	ProbeTrackDT	1.1	SCS215a	20101115.091304	20101115.092554	dt-shadow	8	0.013327	60	10	60-180	60	114	GapExp	0	132	2	3	1	distractor	0	520	-1000	27882	13.328	12.947	13.707
DTProbeTrack03	10	ProbeTrackDT	1.1	SCS215a	20101115.091304	20101115.092600	dt-shadow	8	0.013327	60	10	60-180	60	124	GapExp	0	133	2	6	1	target	1	334	833	28715	13.328	13.098	13.565
DTProbeTrack03	10	ProbeTrackDT	1.1	SCS215a	20101115.091304	20101115.092605	dt-shadow	8	0.013327	60	10	60-180	60	151	GapExp	0	134	2	1	0	target	0	387	-1000	27715	13.328	12.868	13.777
DTProbeTrack03	10	ProbeTrackDT	1.1	SCS215a	20101115.091304	20101115.092611	dt-shadow	8	0.013327	60	10	60-180	60	79	GapExp	0	135	2	3	1	target	1	440	780	28495	13.328	12.920	13.742
DTProbeTrack03	10	ProbeTrackDT	1.1	SCS215a	20101115.091304	20101115.092616	dt-shadow	8	0.013327	60	10	60-180	60	134	GapExp	0	136	2	1	1	target	1	347	827	29322	13.328	13.230	13.432
DTProbeTrack03	10	ProbeTrackDT	1.1	SCS215a	20101115.091304	20101115.092621	dt-shadow	8	0.013327	60	10	60-180	60	129	GapExp	0	137	2	3	0	distractor	1	400	800	30122	13.328	13.298	13.352
DTProbeTrack03	10	ProbeTrackDT	1.1	SCS215a	20101115.091304	20101115.092627	dt-shadow	8	0.013327	60	10	60-180	60	111	GapExp	0	138	2	6	0	target	0	360	-1000	29122	13.328	13.104	13.540
DTProbeTrack03	10	ProbeTrackDT	1.1	SCS215a	20101115.091304	20101115.092632	dt-shadow	8	0.013327	60	10	60-180	60	84	GapExp	0	139	2	45	0	distractor	1	467	767	29889	13.329	12.980	13.684
DTProbeTrack03	10	ProbeTrackDT	1.1	SCS215a	20101115.091304	20101115.092638	dt-shadow	8	0.013327	60	10	60-180	60	66	GapExp	0	140	2	6	0	target	0	374	-1000	28889	13.399	12.904	26.657
DTProbeTrack03	10	ProbeTrackDT	1.1	SCS215a	20101115.091304	20101115.092643	dt-shadow	8	0.013327	60	10	60-180	60	152	GapExp	0	141	2	6	1	target	1	454	773	29662	13.328	12.947	13.716
DTProbeTrack03	10	ProbeTrackDT	1.1	SCS215a	20101115.091304	20101115.092649	dt-shadow	8	0.013327	60	10	60-180	60	71	GapExp	0	142	2	6	0	target	0	520	-1000	28662	13.328	13.093	13.568
DTProbeTrack03	10	ProbeTrackDT	1.1	SCS215a	20101115.091304	20101115.092654	dt-shadow	8	0.013327	60	10	60-180	60	87	GapExp	0	143	2	9	0	distractor	1	587	707	29369	13.328	13.107	13.549
DTProbeTrack03	10	ProbeTrackDT	1.1	SCS215a	20101115.091304	20101115.092659	dt-shadow	8	0.013327	60	10	60-180	60	66	GapExp	0	144	2	1	0	target	0	400	-1000	28369	13.328	13.310	13.348
DTProbeTrack03	10	ProbeTrackDT	1.1	SCS215a	20101115.091304	20101115.092703	dt-shadow	8	0.013327	60	10	60-180	60	167	GapExp	0	145	2	3	1	target	1	454	773	29142	13.328	12.958	13.712
DTProbeTrack03	10	ProbeTrackDT	1.1	SCS215a	20101115.091304	20101115.092710	dt-shadow	8	0.013327	60	10	60-180	60	169	GapExp	0	146	2	1	0	target	0	587	-1000	28142	13.328	12.913	13.761
DTProbeTrack03	10	ProbeTrackDT	1.1	SCS215a	20101115.091304	20101115.092716	dt-shadow	8	0.013327	60	10	60-180	60	117	GapExp	0	147	2	1	0	distractor	1	600	700	28842	13.328	13.097	13.555
DTProbeTrack03	10	ProbeTrackDT	1.1	SCS215a	20101115.091304	20101115.092721	dt-shadow	8	0.013327	60	10	60-180	60	149	GapExp	0	148	2	9	0	distractor	1	560	720	29562	13.328	13.028	13.634
DTProbeTrack03	10	ProbeTrackDT	1.1	SCS215a	20101115.091304	20101115.092728	dt-shadow	8	0.013327	60	10	60-180	60	86	GapExp	0	149	2	6	1	target	1	494	753	30315	13.328	13.300	13.350
DTProbeTrack03	10	ProbeTrackDT	1.1	SCS215a	20101115.091304	20101115.092733	dt-shadow	8	0.013327	60	10	60-180	60	177	GapExp	0	150	2	1	1	target	1	454	773	31088	13.328	12.995	13.680
DTProbeTrack03	10	ProbeTrackDT	1.1	SCS215a	20101115.091304	20101115.092745	dt-shadow	8	0.013327	60	10	60-180	60	134	GapExp	0	151	2	6	0	target	0	494	-1000	30088	13.328	12.958	13.695
DTProbeTrack03	10	ProbeTrackDT	1.1	SCS215a	20101115.091304	20101115.092751	dt-shadow	8	0.013327	60	10	60-180	60	68	GapExp	0	152	2	1	0	target	0	480	-1000	29088	13.328	12.978	13.684
DTProbeTrack03	10	ProbeTrackDT	1.1	SCS215a	20101115.091304	20101115.092755	dt-shadow	8	0.013327	60	10	60-180	60	179	GapExp	0	153	2	45	0	distractor	1	667	667	29755	13.328	12.911	13.760
DTProbeTrack03	10	ProbeTrackDT	1.1	SCS215a	20101115.091304	20101115.092802	dt-shadow	8	0.013327	60	10	60-180	60	142	GapExp	0	154	2	1	1	target	1	387	807	30562	13.328	12.917	13.746
DTProbeTrack03	10	ProbeTrackDT	1.1	SCS215a	20101115.091304	20101115.092808	dt-shadow	8	0.013327	60	10	60-180	60	108	GapExp	0	155	2	9	0	distractor	1	454	773	31335	13.328	13.048	13.593
DTProbeTrack03	10	ProbeTrackDT	1.1	SCS215a	20101115.091304	20101115.092814	dt-shadow	8	0.013327	60	10	60-180	60	165	GapExp	0	156	2	3	1	target	1	400	800	32135	13.328	13.030	13.632
DTProbeTrack03	10	ProbeTrackDT	1.1	SCS215a	20101115.091304	20101115.092820	dt-shadow	8	0.013327	60	10	60-180	60	73	GapExp	0	157	2	6	0	distractor	1	400	800	32935	13.328	12.882	13.780
DTProbeTrack03	10	ProbeTrackDT	1.1	SCS215a	20101115.091304	20101115.092824	dt-shadow	8	0.013327	60	10	60-180	60	127	GapExp	0	158	2	45	1	target	1	374	813	33748	13.328	12.900	13.750
DTProbeTrack03	10	ProbeTrackDT	1.1	SCS215a	20101115.091304	20101115.092831	dt-shadow	8	0.013327	60	10	60-180	60	154	GapExp	0	159	2	6	1	target	1	454	773	34521	13.328	12.866	13.786
DTProbeTrack03	10	ProbeTrackDT	1.1	SCS215a	20101115.091304	20101115.092837	dt-shadow	8	0.013327	60	10	60-180	60	66	GapExp	0	160	2	1	0	target	0	480	-1000	33521	13.328	13.297	13.350
DTProbeTrack03	10	ProbeTrackDT	1.1	SCS215a	20101115.091304	20101115.092841	dt-shadow	8	0.013327	60	10	60-180	60	141	GapExp	0	161	2	9	0	distractor	1	347	827	34348	13.328	13.310	13.348
DTProbeTrack03	10	ProbeTrackDT	1.1	SCS215a	20101115.091304	20101115.092847	dt-shadow	8	0.013327	60	10	60-180	60	178	GapExp	0	162	2	3	0	target	0	613	-1000	33348	13.328	13.106	13.564
DTProbeTrack03	10	ProbeTrackDT	1.1	SCS215a	20101115.091304	20101115.092853	dt-shadow	8	0.013327	60	10	60-180	60	154	GapExp	0	163	2	1	1	target	1	507	747	34095	13.328	12.843	13.804
DTProbeTrack03	10	ProbeTrackDT	1.1	SCS215a	20101115.091304	20101115.092859	dt-shadow	8	0.013327	60	10	60-180	60	130	GapExp	0	164	2	6	1	target	1	347	827	34922	13.328	12.852	13.809
DTProbeTrack03	10	ProbeTrackDT	1.1	SCS215a	20101115.091304	20101115.092905	dt-shadow	8	0.013327	60	10	60-180	60	74	GapExp	0	165	2	3	0	target	0	374	-1000	33922	13.328	13.309	13.347
DTProbeTrack03	10	ProbeTrackDT	1.1	SCS215a	20101115.091304	20101115.092910	dt-shadow	8	0.013327	60	10	60-180	60	93	GapExp	0	166	2	45	1	target	1	480	760	34682	13.328	13.070	13.580
DTProbeTrack03	10	ProbeTrackDT	1.1	SCS215a	20101115.091304	20101115.092916	dt-shadow	8	0.013327	60	10	60-180	60	131	GapExp	0	167	2	1	1	target	1	454	773	35455	13.328	13.098	13.566
DTProbeTrack03	10	ProbeTrackDT	1.1	SCS215a	20101115.091304	20101115.092921	dt-shadow	8	0.013327	60	10	60-180	60	99	GapExp	0	168	2	9	0	target	0	387	-1000	34455	13.328	13.111	13.550
DTProbeTrack03	10	ProbeTrackDT	1.1	SCS215a	20101115.091304	20101115.092926	dt-shadow	8	0.013327	60	10	60-180	60	116	GapExp	0	169	2	45	0	distractor	1	467	767	35222	13.328	13.079	13.565
DTProbeTrack03	10	ProbeTrackDT	1.1	SCS215a	20101115.091304	20101115.092932	dt-shadow	8	0.013327	60	10	60-180	60	130	GapExp	0	170	2	9	1	target	1	467	767	35989	13.328	12.880	13.766
DTProbeTrack03	10	ProbeTrackDT	1.1	SCS215a	20101115.091304	20101115.092938	dt-shadow	8	0.013327	60	10	60-180	60	117	GapExp	0	171	2	3	0	target	0	387	-1000	34989	13.328	12.939	13.709
DTProbeTrack03	10	ProbeTrackDT	1.1	SCS215a	20101115.091304	20101115.092943	dt-shadow	8	0.013327	60	10	60-180	60	137	GapExp	0	172	2	3	0	target	0	440	-1000	33989	13.328	13.111	13.550
DTProbeTrack03	10	ProbeTrackDT	1.1	SCS215a	20101115.091304	20101115.092949	dt-shadow	8	0.013327	60	10	60-180	60	142	GapExp	0	173	2	3	0	distractor	1	520	740	34729	13.328	13.062	13.577
DTProbeTrack03	10	ProbeTrackDT	1.1	SCS215a	20101115.091304	20101115.092955	dt-shadow	8	0.013327	60	10	60-180	60	136	GapExp	0	174	2	3	1	target	1	414	793	35522	13.328	13.114	13.551
DTProbeTrack03	10	ProbeTrackDT	1.1	SCS215a	20101115.091304	20101115.093001	dt-shadow	8	0.013327	60	10	60-180	60	86	GapExp	0	175	2	6	0	distractor	1	467	767	36289	13.328	12.933	13.723
DTProbeTrack03	10	ProbeTrackDT	1.1	SCS215a	20101115.091304	20101115.093006	dt-shadow	8	0.013327	60	10	60-180	60	173	GapExp	0	176	2	3	1	distractor	0	547	-1000	35289	13.328	13.308	13.347
DTProbeTrack03	10	ProbeTrackDT	1.1	SCS215a	20101115.091304	20101115.093012	dt-shadow	8	0.013327	60	10	60-180	60	86	GapExp	0	177	2	3	1	distractor	0	480	-1000	34289	13.328	13.307	13.352
DTProbeTrack03	10	ProbeTrackDT	1.1	SCS215a	20101115.091304	20101115.093017	dt-shadow	8	0.013327	60	10	60-180	60	168	GapExp	0	178	2	45	0	target	0	680	-1000	33289	13.328	13.099	13.564
DTProbeTrack03	10	ProbeTrackDT	1.1	SCS215a	20101115.091304	20101115.093024	dt-shadow	8	0.013327	60	10	60-180	60	122	GapExp	0	179	2	6	0	distractor	1	507	747	34036	13.328	12.866	13.785
DTProbeTrack03	10	ProbeTrackDT	1.1	SCS215a	20101115.091304	20101115.093030	dt-shadow	8	0.013327	60	10	60-180	60	83	GapExp	0	180	2	45	0	target	0	414	-1000	33036	13.328	13.185	13.464
DTProbeTrack03	10	ProbeTrackDT	1.1	SCS215a	20101115.091304	20101115.093035	dt-shadow	8	0.013327	60	10	60-180	60	133	GapExp	0	181	2	9	1	target	1	401	800	33836	13.431	12.882	26.681
DTProbeTrack03	10	ProbeTrackDT	1.1	SCS215a	20101115.091304	20101115.093041	dt-shadow	8	0.013327	60	10	60-180	60	124	GapExp	0	182	2	1	1	target	1	640	680	34516	13.328	12.880	13.784
DTProbeTrack03	10	ProbeTrackDT	1.1	SCS215a	20101115.091304	20101115.093047	dt-shadow	8	0.013327	60	10	60-180	60	121	GapExp	0	183	2	1	1	target	1	334	833	35349	13.328	13.306	13.349
DTProbeTrack03	10	ProbeTrackDT	1.1	SCS215a	20101115.091304	20101115.093052	dt-shadow	8	0.013327	60	10	60-180	60	99	GapExp	0	184	2	3	0	target	0	480	-1000	34349	13.328	13.114	13.560
DTProbeTrack03	10	ProbeTrackDT	1.1	SCS215a	20101115.091304	20101115.093057	dt-shadow	8	0.013327	60	10	60-180	60	150	GapExp	0	185	2	3	1	target	1	440	780	35129	13.328	12.870	13.784
DTProbeTrack03	10	ProbeTrackDT	1.1	SCS215a	20101115.091304	20101115.093103	dt-shadow	8	0.013327	60	10	60-180	60	178	GapExp	0	186	2	45	1	target	1	400	800	35929	13.328	12.880	13.781
DTProbeTrack03	10	ProbeTrackDT	1.1	SCS215a	20101115.091304	20101115.093110	dt-shadow	8	0.013327	60	10	60-180	60	145	GapExp	0	187	2	1	0	target	0	427	-1000	34929	13.328	13.053	13.602
DTProbeTrack03	10	ProbeTrackDT	1.1	SCS215a	20101115.091304	20101115.093116	dt-shadow	8	0.013327	60	10	60-180	60	179	GapExp	0	188	2	9	1	target	1	347	827	35756	13.328	13.298	13.351
DTProbeTrack03	10	ProbeTrackDT	1.1	SCS215a	20101115.091304	20101115.093122	dt-shadow	8	0.013327	60	10	60-180	60	123	GapExp	0	189	2	45	1	target	1	347	827	36583	13.328	13.092	13.571
DTProbeTrack03	10	ProbeTrackDT	1.1	SCS215a	20101115.091304	20101115.093128	dt-shadow	8	0.013327	60	10	60-180	60	101	GapExp	0	190	2	6	1	distractor	0	320	-1000	35583	13.328	12.933	13.714
DTProbeTrack03	10	ProbeTrackDT	1.1	SCS215a	20101115.091304	20101115.093133	dt-shadow	8	0.013327	60	10	60-180	60	157	GapExp	0	191	2	9	1	target	1	400	800	36383	13.328	13.017	13.627
DTProbeTrack03	10	ProbeTrackDT	1.1	SCS215a	20101115.091304	20101115.093139	dt-shadow	8	0.013327	60	10	60-180	60	89	GapExp	0	192	2	6	0	target	0	440	-1000	35383	13.328	13.307	13.349
DTProbeTrack03	10	ProbeTrackDT	1.1	SCS215a	20101115.091304	20101115.093144	dt-shadow	8	0.013327	60	10	60-180	60	143	GapExp	0	193	2	9	0	target	0	347	-1000	34383	13.328	13.014	13.645
DTProbeTrack03	10	ProbeTrackDT	1.1	SCS215a	20101115.091304	20101115.093150	dt-shadow	8	0.013327	60	10	60-180	60	169	GapExp	0	194	2	45	1	distractor	0	494	-1000	33383	13.328	13.307	13.346
DTProbeTrack03	10	ProbeTrackDT	1.1	SCS215a	20101115.091304	20101115.093157	dt-shadow	8	0.013327	60	10	60-180	60	65	GapExp	0	195	2	6	0	distractor	1	547	727	34110	13.328	12.908	13.748
DTProbeTrack03	10	ProbeTrackDT	1.1	SCS215a	20101115.091304	20101115.093202	dt-shadow	8	0.013327	60	10	60-180	60	112	GapExp	0	196	2	9	0	target	0	387	-1000	33110	13.328	13.307	13.347
DTProbeTrack03	10	ProbeTrackDT	1.1	SCS215a	20101115.091304	20101115.093207	dt-shadow	8	0.013327	60	10	60-180	60	74	GapExp	0	197	2	1	0	distractor	1	520	740	33850	13.328	13.308	13.345
DTProbeTrack03	10	ProbeTrackDT	1.1	SCS215a	20101115.091304	20101115.093212	dt-shadow	8	0.013327	60	10	60-180	60	145	GapExp	0	198	2	45	1	target	1	400	800	34650	13.328	13.117	13.553
DTProbeTrack03	10	ProbeTrackDT	1.1	SCS215a	20101115.091304	20101115.093218	dt-shadow	8	0.013327	60	10	60-180	60	169	GapExp	0	199	2	9	0	target	0	374	-1000	33650	13.328	12.949	13.713
DTProbeTrack03	10	ProbeTrackDT	1.1	SCS215a	20101115.091304	20101115.093224	dt-shadow	8	0.013327	60	10	60-180	60	73	GapExp	0	200	2	45	1	target	1	520	740	34390	13.328	13.309	13.349
DTProbeTrack03	10	ProbeTrackDT	1.1	SCS215a	20101115.091304	20101115.093235	dt-shadow	8	0.013327	60	10	60-180	60	116	GapExp	0	201	2	9	0	target	0	427	-1000	33390	13.655	13.178	66.626
DTProbeTrack03	10	ProbeTrackDT	1.1	SCS215a	20101115.091304	20101115.093240	dt-shadow	8	0.013327	60	10	60-180	60	76	GapExp	0	202	2	9	1	target	1	440	780	34170	13.328	13.092	13.574
DTProbeTrack03	10	ProbeTrackDT	1.1	SCS215a	20101115.091304	20101115.093245	dt-shadow	8	0.013327	60	10	60-180	60	126	GapExp	0	203	2	45	0	distractor	1	547	727	34897	13.328	13.100	13.549
DTProbeTrack03	10	ProbeTrackDT	1.1	SCS215a	20101115.091304	20101115.093252	dt-shadow	8	0.013327	60	10	60-180	60	74	GapExp	0	204	2	6	1	distractor	0	707	-1000	33897	13.328	12.950	13.702
DTProbeTrack03	10	ProbeTrackDT	1.1	SCS215a	20101115.091304	20101115.093257	dt-shadow	8	0.013327	60	10	60-180	60	121	GapExp	0	205	2	9	1	target	1	400	800	34697	13.328	13.308	13.349
DTProbeTrack03	10	ProbeTrackDT	1.1	SCS215a	20101115.093552	20101115.093559	dt-generate	8	0.013328	60	10	60-180	60	113	GapPrac	1	1	2	6	0	target	0	640	-1000	33697	13.328	12.949	13.703
DTProbeTrack03	10	ProbeTrackDT	1.1	SCS215a	20101115.093552	20101115.093605	dt-generate	8	0.013328	60	10	60-180	60	113	GapPrac	1	2	2	1	1	distractor	0	720	-1000	32697	13.328	12.926	13.730
DTProbeTrack03	10	ProbeTrackDT	1.1	SCS215a	20101115.093552	20101115.093610	dt-generate	8	0.013328	60	10	60-180	60	68	GapPrac	1	3	2	1	0	target	0	813	-1000	31697	13.328	12.840	13.810
DTProbeTrack03	10	ProbeTrackDT	1.1	SCS215a	20101115.093552	20101115.093616	dt-generate	8	0.013328	60	10	60-180	60	99	GapPrac	1	4	2	6	1	target	1	507	747	32444	13.328	13.299	13.360
DTProbeTrack03	10	ProbeTrackDT	1.1	SCS215a	20101115.093552	20101115.093621	dt-generate	8	0.013328	60	10	60-180	60	74	GapPrac	1	5	2	3	1	target	1	560	720	33164	13.328	12.874	13.776
DTProbeTrack03	10	ProbeTrackDT	1.1	SCS215a	20101115.093552	20101115.093626	dt-generate	8	0.013328	60	10	60-180	60	143	GapPrac	1	6	2	1	1	target	1	400	800	33964	13.328	13.308	13.347
DTProbeTrack03	10	ProbeTrackDT	1.1	SCS215a	20101115.093552	20101115.093632	dt-generate	8	0.013328	60	10	60-180	60	101	GapPrac	1	7	2	6	1	target	1	587	707	34671	13.328	12.858	13.804
DTProbeTrack03	10	ProbeTrackDT	1.1	SCS215a	20101115.093552	20101115.093637	dt-generate	8	0.013328	60	10	60-180	60	144	GapPrac	1	8	2	9	1	target	1	853	574	35245	13.328	12.842	13.807
DTProbeTrack03	10	ProbeTrackDT	1.1	SCS215a	20101115.093552	20101115.093643	dt-generate	8	0.013328	60	10	60-180	60	67	GapPrac	1	9	2	9	0	distractor	1	560	720	35965	13.328	12.930	13.733
DTProbeTrack03	10	ProbeTrackDT	1.1	SCS215a	20101115.093552	20101115.093648	dt-generate	8	0.013328	60	10	60-180	60	140	GapPrac	1	10	2	9	1	target	1	454	773	36738	13.328	13.037	13.628
DTProbeTrack03	10	ProbeTrackDT	1.1	SCS215a	20101115.093552	20101115.093654	dt-generate	8	0.013328	60	10	60-180	60	160	GapPrac	1	11	2	3	0	target	0	600	-1000	35738	13.328	13.138	13.520
DTProbeTrack03	10	ProbeTrackDT	1.1	SCS215a	20101115.093552	20101115.093700	dt-generate	8	0.013328	60	10	60-180	60	165	GapPrac	1	12	2	45	1	target	1	467	767	36505	13.328	12.886	13.759
DTProbeTrack03	10	ProbeTrackDT	1.1	SCS215a	20101115.093552	20101115.093707	dt-generate	8	0.013328	60	10	60-180	60	61	GapPrac	1	13	2	3	0	target	0	440	-1000	35505	13.328	13.137	13.532
DTProbeTrack03	10	ProbeTrackDT	1.1	SCS215a	20101115.093552	20101115.093712	dt-generate	8	0.013328	60	10	60-180	60	117	GapPrac	1	14	2	45	0	distractor	1	400	800	36305	13.328	12.885	13.782
DTProbeTrack03	10	ProbeTrackDT	1.1	SCS215a	20101115.093552	20101115.093718	dt-generate	8	0.013328	60	10	60-180	60	115	GapPrac	1	15	2	3	1	target	1	414	793	37098	13.328	12.956	13.703
DTProbeTrack03	10	ProbeTrackDT	1.1	SCS215a	20101115.093552	20101115.093723	dt-generate	8	0.013328	60	10	60-180	60	154	GapPrac	1	16	2	45	0	distractor	1	520	740	37838	13.328	12.853	13.810
DTProbeTrack03	10	ProbeTrackDT	1.1	SCS215a	20101115.093552	20101115.093730	dt-generate	8	0.013328	60	10	60-180	60	66	GapPrac	1	17	2	1	0	target	0	2039	-1000	36838	13.328	13.309	13.345
DTProbeTrack03	10	ProbeTrackDT	1.1	SCS215a	20101115.093552	20101115.093736	dt-generate	8	0.013328	60	10	60-180	60	179	GapPrac	1	18	2	9	0	target	0	467	-1000	35838	13.328	12.896	13.773
DTProbeTrack03	10	ProbeTrackDT	1.1	SCS215a	20101115.093552	20101115.093742	dt-generate	8	0.013328	60	10	60-180	60	168	GapPrac	1	19	2	45	1	target	1	600	700	36538	13.328	12.851	13.799
DTProbeTrack03	10	ProbeTrackDT	1.1	SCS215a	20101115.093552	20101115.093749	dt-generate	8	0.013328	60	10	60-180	60	67	GapPrac	1	20	2	6	0	distractor	1	613	694	37232	13.328	12.959	13.698
DTProbeTrack03	10	ProbeTrackDT	1.1	SCS215a	20101115.093833	20101115.093838	dt-generate	8	0.013328	60	10	60-180	60	178	GapExp	1	1	2	1	0	distractor	1	1160	420	37652	13.328	13.309	13.349
DTProbeTrack03	10	ProbeTrackDT	1.1	SCS215a	20101115.093833	20101115.093845	dt-generate	8	0.013328	60	10	60-180	60	146	GapExp	1	2	2	1	1	target	1	520	740	38392	13.328	13.309	13.345
DTProbeTrack03	10	ProbeTrackDT	1.1	SCS215a	20101115.093833	20101115.093851	dt-generate	8	0.013328	60	10	60-180	60	77	GapExp	1	3	2	45	0	distractor	1	707	647	39039	13.328	12.900	13.747
DTProbeTrack03	10	ProbeTrackDT	1.1	SCS215a	20101115.093833	20101115.093857	dt-generate	8	0.013328	60	10	60-180	60	73	GapExp	1	4	2	9	0	distractor	1	667	667	39706	13.328	12.861	13.791
DTProbeTrack03	10	ProbeTrackDT	1.1	SCS215a	20101115.093833	20101115.093902	dt-generate	8	0.013328	60	10	60-180	60	78	GapExp	1	5	2	45	1	target	1	440	780	40486	13.328	12.930	13.719
DTProbeTrack03	10	ProbeTrackDT	1.1	SCS215a	20101115.093833	20101115.093907	dt-generate	8	0.013328	60	10	60-180	60	116	GapExp	0	6	2	1	1	distractor	0	947	-1000	39486	13.328	13.067	13.571
DTProbeTrack03	10	ProbeTrackDT	1.1	SCS215a	20101115.093833	20101115.093913	dt-generate	8	0.013328	60	10	60-180	60	90	GapExp	0	7	2	45	1	target	1	414	793	40279	13.328	13.306	13.347
DTProbeTrack03	10	ProbeTrackDT	1.1	SCS215a	20101115.093833	20101115.093919	dt-generate	8	0.013328	60	10	60-180	60	164	GapExp	0	8	2	6	0	distractor	1	1373	314	40593	13.328	12.895	13.763
DTProbeTrack03	10	ProbeTrackDT	1.1	SCS215a	20101115.093833	20101115.093926	dt-generate	8	0.013328	60	10	60-180	60	72	GapExp	0	9	2	45	0	distractor	1	573	714	41307	13.328	12.860	13.797
DTProbeTrack03	10	ProbeTrackDT	1.1	SCS215a	20101115.093833	20101115.093931	dt-generate	8	0.013328	60	10	60-180	60	119	GapExp	0	10	2	6	0	target	0	640	-1000	40307	13.328	12.963	13.678
DTProbeTrack03	10	ProbeTrackDT	1.1	SCS215a	20101115.093833	20101115.093937	dt-generate	8	0.013328	60	10	60-180	60	129	GapExp	0	11	2	9	0	distractor	1	360	820	41127	13.328	13.200	13.457
DTProbeTrack03	10	ProbeTrackDT	1.1	SCS215a	20101115.093833	20101115.093943	dt-generate	8	0.013328	60	10	60-180	60	114	GapExp	0	12	2	45	0	target	0	560	-1000	40127	13.328	13.056	13.593
DTProbeTrack03	10	ProbeTrackDT	1.1	SCS215a	20101115.093833	20101115.093949	dt-generate	8	0.013328	60	10	60-180	60	80	GapExp	0	13	2	3	1	target	1	693	654	40781	13.328	12.855	13.815
DTProbeTrack03	10	ProbeTrackDT	1.1	SCS215a	20101115.093833	20101115.093954	dt-generate	8	0.013328	60	10	60-180	60	174	GapExp	0	14	2	45	1	target	1	454	773	41554	13.328	13.003	13.660
DTProbeTrack03	10	ProbeTrackDT	1.1	SCS215a	20101115.093833	20101115.094001	dt-generate	8	0.013328	60	10	60-180	60	110	GapExp	0	15	2	1	1	target	1	454	773	42327	13.328	12.861	13.781
DTProbeTrack03	10	ProbeTrackDT	1.1	SCS215a	20101115.093833	20101115.094006	dt-generate	8	0.013328	60	10	60-180	60	137	GapExp	0	16	2	9	1	distractor	0	1853	-1000	41327	13.328	13.056	13.615
DTProbeTrack03	10	ProbeTrackDT	1.1	SCS215a	20101115.093833	20101115.094013	dt-generate	8	0.013328	60	10	60-180	60	70	GapExp	0	17	2	9	1	target	1	574	713	42040	13.328	13.102	13.556
DTProbeTrack03	10	ProbeTrackDT	1.1	SCS215a	20101115.093833	20101115.094018	dt-generate	8	0.013328	60	10	60-180	60	61	GapExp	0	18	2	3	0	distractor	1	5158	0	42040	13.328	12.888	13.771
DTProbeTrack03	10	ProbeTrackDT	1.1	SCS215a	20101115.093833	20101115.094028	dt-generate	8	0.013328	60	10	60-180	60	81	GapExp	0	19	2	45	0	target	0	1386	-1000	41040	13.328	12.925	13.724
DTProbeTrack03	10	ProbeTrackDT	1.1	SCS215a	20101115.093833	20101115.094034	dt-generate	8	0.013328	60	10	60-180	60	114	GapExp	0	20	2	45	1	target	1	480	760	41800	13.328	12.848	13.803
DTProbeTrack03	10	ProbeTrackDT	1.1	SCS215a	20101115.093833	20101115.094040	dt-generate	8	0.013328	60	10	60-180	60	72	GapExp	0	21	2	6	0	distractor	1	467	767	42567	13.328	12.998	13.647
DTProbeTrack03	10	ProbeTrackDT	1.1	SCS215a	20101115.093833	20101115.094045	dt-generate	8	0.013328	60	10	60-180	60	113	GapExp	0	22	2	9	0	distractor	1	3066	0	42567	13.328	13.311	13.348
DTProbeTrack03	10	ProbeTrackDT	1.1	SCS215a	20101115.093833	20101115.094053	dt-generate	8	0.013328	60	10	60-180	60	123	GapExp	0	23	2	9	0	target	0	813	-1000	41567	13.328	12.868	13.788
DTProbeTrack03	10	ProbeTrackDT	1.1	SCS215a	20101115.093833	20101115.094059	dt-generate	8	0.013328	60	10	60-180	60	106	GapExp	0	24	2	6	1	distractor	0	1399	-1000	40567	13.328	12.870	13.771
DTProbeTrack03	10	ProbeTrackDT	1.1	SCS215a	20101115.093833	20101115.094105	dt-generate	8	0.013328	60	10	60-180	60	178	GapExp	0	25	2	1	1	target	1	574	713	41280	13.328	12.843	13.813
DTProbeTrack03	10	ProbeTrackDT	1.1	SCS215a	20101115.093833	20101115.094112	dt-generate	8	0.013328	60	10	60-180	60	160	GapExp	0	26	2	9	1	distractor	0	587	-1000	40280	13.328	12.853	13.801
DTProbeTrack03	10	ProbeTrackDT	1.1	SCS215a	20101115.093833	20101115.094118	dt-generate	8	0.013328	60	10	60-180	60	67	GapExp	0	27	2	45	0	target	0	534	-1000	39280	13.328	13.055	13.605
DTProbeTrack03	10	ProbeTrackDT	1.1	SCS215a	20101115.093833	20101115.094124	dt-generate	8	0.013328	60	10	60-180	60	67	GapExp	0	28	2	3	0	distractor	1	547	727	40007	13.328	12.864	13.605
DTProbeTrack03	10	ProbeTrackDT	1.1	SCS215a	20101115.093833	20101115.094128	dt-generate	8	0.013328	60	10	60-180	60	106	GapExp	0	29	2	45	1	distractor	0	747	-1000	39007	13.328	12.921	13.743
DTProbeTrack03	10	ProbeTrackDT	1.1	SCS215a	20101115.093833	20101115.094135	dt-generate	8	0.013328	60	10	60-180	60	89	GapExp	0	30	2	45	0	target	0	653	-1000	38007	13.328	13.095	13.574
DTProbeTrack03	10	ProbeTrackDT	1.1	SCS215a	20101115.093833	20101115.094140	dt-generate	8	0.013328	60	10	60-180	60	141	GapExp	0	31	2	6	0	target	0	454	-1000	37007	13.328	12.940	13.710
DTProbeTrack03	10	ProbeTrackDT	1.1	SCS215a	20101115.093833	20101115.094146	dt-generate	8	0.013328	60	10	60-180	60	87	GapExp	0	32	2	1	0	distractor	1	680	660	37667	13.328	12.885	13.771
DTProbeTrack03	10	ProbeTrackDT	1.1	SCS215a	20101115.093833	20101115.094152	dt-generate	8	0.013328	60	10	60-180	60	141	GapExp	0	33	2	6	0	target	0	680	-1000	36667	13.328	12.884	13.770
DTProbeTrack03	10	ProbeTrackDT	1.1	SCS215a	20101115.093833	20101115.094158	dt-generate	8	0.013328	60	10	60-180	60	160	GapExp	0	34	2	9	1	distractor	0	334	-1000	35667	13.328	13.056	13.586
DTProbeTrack03	10	ProbeTrackDT	1.1	SCS215a	20101115.093833	20101115.094204	dt-generate	8	0.013328	60	10	60-180	60	125	GapExp	0	35	2	3	1	target	1	387	807	36474	13.328	13.162	13.500
DTProbeTrack03	10	ProbeTrackDT	1.1	SCS215a	20101115.093833	20101115.094209	dt-generate	8	0.013328	60	10	60-180	60	145	GapExp	0	36	2	1	1	target	1	427	787	37261	13.328	12.908	13.736
DTProbeTrack03	10	ProbeTrackDT	1.1	SCS215a	20101115.093833	20101115.094215	dt-generate	8	0.013328	60	10	60-180	60	67	GapExp	0	37	2	6	1	target	1	454	773	38034	13.328	13.011	13.646
DTProbeTrack03	10	ProbeTrackDT	1.1	SCS215a	20101115.093833	20101115.094220	dt-generate	8	0.013328	60	10	60-180	60	118	GapExp	0	38	2	1	1	distractor	0	547	-1000	37034	13.328	12.862	13.795
DTProbeTrack03	10	ProbeTrackDT	1.1	SCS215a	20101115.093833	20101115.094225	dt-generate	8	0.013328	60	10	60-180	60	68	GapExp	0	39	2	3	1	target	1	454	773	37807	13.328	12.868	13.787
DTProbeTrack03	10	ProbeTrackDT	1.1	SCS215a	20101115.093833	20101115.094230	dt-generate	8	0.013328	60	10	60-180	60	76	GapExp	0	40	2	45	1	target	1	534	733	38540	13.328	13.233	13.423
DTProbeTrack03	10	ProbeTrackDT	1.1	SCS215a	20101115.093833	20101115.094236	dt-generate	8	0.013328	60	10	60-180	60	126	GapExp	0	41	2	45	1	target	1	534	733	39273	13.328	12.901	13.749
DTProbeTrack03	10	ProbeTrackDT	1.1	SCS215a	20101115.093833	20101115.094242	dt-generate	8	0.013328	60	10	60-180	60	120	GapExp	0	42	2	45	1	distractor	0	2413	-1000	38273	13.328	12.837	13.830
DTProbeTrack03	10	ProbeTrackDT	1.1	SCS215a	20101115.093833	20101115.094250	dt-generate	8	0.013328	60	10	60-180	60	136	GapExp	0	43	2	9	0	target	0	574	-1000	37273	13.328	13.139	13.524
DTProbeTrack03	10	ProbeTrackDT	1.1	SCS215a	20101115.093833	20101115.094256	dt-generate	8	0.013328	60	10	60-180	60	68	GapExp	0	44	2	3	0	distractor	1	841	580	37853	13.391	13.199	26.794
DTProbeTrack03	10	ProbeTrackDT	1.1	SCS215a	20101115.093833	20101115.094301	dt-generate	8	0.013328	60	10	60-180	60	135	GapExp	0	45	2	3	1	target	1	573	714	38567	13.328	12.997	13.659
DTProbeTrack03	10	ProbeTrackDT	1.1	SCS215a	20101115.093833	20101115.094307	dt-generate	8	0.013328	60	10	60-180	60	95	GapExp	0	46	2	1	1	target	1	600	700	39267	13.328	13.031	13.632
DTProbeTrack03	10	ProbeTrackDT	1.1	SCS215a	20101115.093833	20101115.094312	dt-generate	8	0.013328	60	10	60-180	60	153	GapExp	0	47	2	6	0	distractor	1	414	793	40060	13.328	12.891	13.768
DTProbeTrack03	10	ProbeTrackDT	1.1	SCS215a	20101115.093833	20101115.094318	dt-generate	8	0.013328	60	10	60-180	60	93	GapExp	0	48	2	9	0	target	0	574	-1000	39060	13.328	12.902	13.754
DTProbeTrack03	10	ProbeTrackDT	1.1	SCS215a	20101115.093833	20101115.094323	dt-generate	8	0.013328	60	10	60-180	60	179	GapExp	0	49	2	45	1	target	1	387	807	39867	13.328	13.110	13.548
DTProbeTrack03	10	ProbeTrackDT	1.1	SCS215a	20101115.093833	20101115.094330	dt-generate	8	0.013328	60	10	60-180	60	165	GapExp	0	50	2	9	1	target	1	374	813	40680	13.328	13.301	13.351
DTProbeTrack03	10	ProbeTrackDT	1.1	SCS215a	20101115.093833	20101115.094343	dt-generate	8	0.013328	60	10	60-180	60	85	GapExp	0	51	2	6	1	distractor	0	773	-1000	39680	13.328	12.912	13.736
DTProbeTrack03	10	ProbeTrackDT	1.1	SCS215a	20101115.093833	20101115.094348	dt-generate	8	0.013328	60	10	60-180	60	104	GapExp	0	52	2	6	0	distractor	1	813	594	40274	13.328	13.155	13.528
DTProbeTrack03	10	ProbeTrackDT	1.1	SCS215a	20101115.093833	20101115.094354	dt-generate	8	0.013328	60	10	60-180	60	62	GapExp	0	53	2	3	0	distractor	1	907	547	40821	13.328	12.964	13.692
DTProbeTrack03	10	ProbeTrackDT	1.1	SCS215a	20101115.093833	20101115.094359	dt-generate	8	0.013328	60	10	60-180	60	171	GapExp	0	54	2	9	1	distractor	0	467	-1000	39821	13.328	13.064	13.586
DTProbeTrack03	10	ProbeTrackDT	1.1	SCS215a	20101115.093833	20101115.094406	dt-generate	8	0.013328	60	10	60-180	60	97	GapExp	0	55	2	45	1	target	1	360	820	40641	13.328	13.309	13.345
DTProbeTrack03	10	ProbeTrackDT	1.1	SCS215a	20101115.093833	20101115.094411	dt-generate	8	0.013328	60	10	60-180	60	108	GapExp	0	56	2	1	1	target	1	374	813	41454	13.328	13.106	13.566
DTProbeTrack03	10	ProbeTrackDT	1.1	SCS215a	20101115.093833	20101115.094416	dt-generate	8	0.013328	60	10	60-180	60	143	GapExp	0	57	2	9	0	target	0	440	-1000	40454	13.328	13.233	13.423
DTProbeTrack03	10	ProbeTrackDT	1.1	SCS215a	20101115.093833	20101115.094422	dt-generate	8	0.013328	60	10	60-180	60	144	GapExp	0	58	2	1	0	target	0	560	-1000	39454	13.328	13.199	13.441
DTProbeTrack03	10	ProbeTrackDT	1.1	SCS215a	20101115.093833	20101115.094428	dt-generate	8	0.013328	60	10	60-180	60	177	GapExp	0	59	2	6	1	target	1	387	807	40261	13.328	12.871	13.794
DTProbeTrack03	10	ProbeTrackDT	1.1	SCS215a	20101115.093833	20101115.094434	dt-generate	8	0.013328	60	10	60-180	60	98	GapExp	0	60	2	3	1	target	1	467	767	41028	13.328	13.286	13.371
DTProbeTrack03	10	ProbeTrackDT	1.1	SCS215a	20101115.093833	20101115.094440	dt-generate	8	0.013328	60	10	60-180	60	151	GapExp	0	61	2	6	0	target	0	414	-1000	40028	13.328	13.102	13.567
DTProbeTrack03	10	ProbeTrackDT	1.1	SCS215a	20101115.093833	20101115.094446	dt-generate	8	0.013328	60	10	60-180	60	70	GapExp	0	62	2	9	1	distractor	0	733	-1000	39028	13.328	13.092	13.552
DTProbeTrack03	10	ProbeTrackDT	1.1	SCS215a	20101115.093833	20101115.094451	dt-generate	8	0.013328	60	10	60-180	60	77	GapExp	0	63	2	1	1	target	1	1520	240	39268	13.447	12.916	27.105
DTProbeTrack03	10	ProbeTrackDT	1.1	SCS215a	20101115.093833	20101115.094457	dt-generate	8	0.013328	60	10	60-180	60	175	GapExp	0	64	2	6	0	target	0	587	-1000	38268	13.328	12.958	13.711
DTProbeTrack03	10	ProbeTrackDT	1.1	SCS215a	20101115.093833	20101115.094503	dt-generate	8	0.013328	60	10	60-180	60	104	GapExp	0	65	2	1	1	target	1	480	760	39028	13.328	13.257	13.410
DTProbeTrack03	10	ProbeTrackDT	1.1	SCS215a	20101115.093833	20101115.094508	dt-generate	8	0.013328	60	10	60-180	60	139	GapExp	0	66	2	3	1	target	1	360	820	39848	13.328	13.308	13.345
DTProbeTrack03	10	ProbeTrackDT	1.1	SCS215a	20101115.093833	20101115.094514	dt-generate	8	0.013328	60	10	60-180	60	141	GapExp	0	67	2	9	0	distractor	1	520	740	40588	13.328	12.951	13.712
DTProbeTrack03	10	ProbeTrackDT	1.1	SCS215a	20101115.093833	20101115.094520	dt-generate	8	0.013328	60	10	60-180	60	78	GapExp	0	68	2	3	0	distractor	1	587	707	41295	13.328	13.309	13.345
DTProbeTrack03	10	ProbeTrackDT	1.1	SCS215a	20101115.093833	20101115.094525	dt-generate	8	0.013328	60	10	60-180	60	76	GapExp	0	69	2	1	0	distractor	1	667	667	41962	13.328	12.908	13.761
DTProbeTrack03	10	ProbeTrackDT	1.1	SCS215a	20101115.093833	20101115.094530	dt-generate	8	0.013328	60	10	60-180	60	98	GapExp	0	70	2	6	1	target	1	427	787	42749	13.328	13.310	13.346
DTProbeTrack03	10	ProbeTrackDT	1.1	SCS215a	20101115.093833	20101115.094536	dt-generate	8	0.013328	60	10	60-180	60	120	GapExp	0	71	2	9	1	target	1	494	753	43502	13.328	12.867	13.790
DTProbeTrack03	10	ProbeTrackDT	1.1	SCS215a	20101115.093833	20101115.094541	dt-generate	8	0.013328	60	10	60-180	60	180	GapExp	0	72	2	1	0	distractor	1	640	680	44182	13.328	12.919	13.732
DTProbeTrack03	10	ProbeTrackDT	1.1	SCS215a	20101115.093833	20101115.094548	dt-generate	8	0.013328	60	10	60-180	60	175	GapExp	0	73	2	6	1	target	1	480	760	44942	13.328	13.105	13.558
DTProbeTrack03	10	ProbeTrackDT	1.1	SCS215a	20101115.093833	20101115.094554	dt-generate	8	0.013328	60	10	60-180	60	146	GapExp	0	74	2	9	1	distractor	0	1866	-1000	43942	13.328	12.941	13.729
DTProbeTrack03	10	ProbeTrackDT	1.1	SCS215a	20101115.093833	20101115.094601	dt-generate	8	0.013328	60	10	60-180	60	148	GapExp	0	75	2	3	1	target	1	720	640	44582	13.328	12.865	13.778
DTProbeTrack03	10	ProbeTrackDT	1.1	SCS215a	20101115.093833	20101115.094607	dt-generate	8	0.013328	60	10	60-180	60	148	GapExp	0	76	2	3	1	target	1	414	793	45375	13.328	13.307	13.349
DTProbeTrack03	10	ProbeTrackDT	1.1	SCS215a	20101115.093833	20101115.094613	dt-generate	8	0.013328	60	10	60-180	60	88	GapExp	0	77	2	45	0	distractor	1	1400	300	45675	13.328	12.921	13.727
DTProbeTrack03	10	ProbeTrackDT	1.1	SCS215a	20101115.093833	20101115.094620	dt-generate	8	0.013328	60	10	60-180	60	114	GapExp	0	78	2	3	0	distractor	1	667	667	46342	13.328	12.872	13.784
DTProbeTrack03	10	ProbeTrackDT	1.1	SCS215a	20101115.093833	20101115.094625	dt-generate	8	0.013328	60	10	60-180	60	177	GapExp	0	79	2	1	0	target	0	720	-1000	45342	13.328	12.845	13.812
DTProbeTrack03	10	ProbeTrackDT	1.1	SCS215a	20101115.093833	20101115.094632	dt-generate	8	0.013328	60	10	60-180	60	137	GapExp	0	80	2	9	1	distractor	0	400	-1000	44342	13.328	13.109	13.550
DTProbeTrack03	10	ProbeTrackDT	1.1	SCS215a	20101115.093833	20101115.094638	dt-generate	8	0.013328	60	10	60-180	60	92	GapExp	0	81	2	6	0	target	0	440	-1000	43342	13.328	13.099	13.558
DTProbeTrack03	10	ProbeTrackDT	1.1	SCS215a	20101115.093833	20101115.094643	dt-generate	8	0.013328	60	10	60-180	60	132	GapExp	0	82	2	1	1	target	1	520	740	44082	13.329	12.953	13.690
DTProbeTrack03	10	ProbeTrackDT	1.1	SCS215a	20101115.093833	20101115.094649	dt-generate	8	0.013328	60	10	60-180	60	70	GapExp	0	83	2	9	0	distractor	1	547	727	44809	13.328	12.900	13.770
DTProbeTrack03	10	ProbeTrackDT	1.1	SCS215a	20101115.093833	20101115.094654	dt-generate	8	0.013328	60	10	60-180	60	83	GapExp	0	84	2	3	0	distractor	1	480	760	45569	13.328	12.869	13.568
DTProbeTrack03	10	ProbeTrackDT	1.1	SCS215a	20101115.093833	20101115.094659	dt-generate	8	0.013328	60	10	60-180	60	145	GapExp	0	85	2	6	0	distractor	1	454	773	46342	13.328	13.102	13.545
DTProbeTrack03	10	ProbeTrackDT	1.1	SCS215a	20101115.093833	20101115.094705	dt-generate	8	0.013328	60	10	60-180	60	66	GapExp	0	86	2	6	0	distractor	1	600	700	47042	13.328	13.041	13.620
DTProbeTrack03	10	ProbeTrackDT	1.1	SCS215a	20101115.093833	20101115.094709	dt-generate	8	0.013328	60	10	60-180	60	138	GapExp	0	87	2	3	0	distractor	1	1413	294	47336	13.328	13.055	13.580
DTProbeTrack03	10	ProbeTrackDT	1.1	SCS215a	20101115.093833	20101115.094716	dt-generate	8	0.013328	60	10	60-180	60	151	GapExp	0	88	2	6	1	target	1	1240	380	47716	13.328	13.299	13.356
DTProbeTrack03	10	ProbeTrackDT	1.1	SCS215a	20101115.093833	20101115.094723	dt-generate	8	0.013328	60	10	60-180	60	165	GapExp	0	89	2	3	0	distractor	1	550	725	48441	13.328	12.975	13.682
DTProbeTrack03	10	ProbeTrackDT	1.1	SCS215a	20101115.093833	20101115.094729	dt-generate	8	0.013328	60	10	60-180	60	179	GapExp	0	90	2	9	0	distractor	1	494	753	49194	13.328	13.143	13.514
DTProbeTrack03	10	ProbeTrackDT	1.1	SCS215a	20101115.093833	20101115.094736	dt-generate	8	0.013328	60	10	60-180	60	123	GapExp	0	91	2	1	1	target	1	667	667	49861	13.328	12.942	13.731
DTProbeTrack03	10	ProbeTrackDT	1.1	SCS215a	20101115.093833	20101115.094741	dt-generate	8	0.013328	60	10	60-180	60	112	GapExp	0	92	2	6	1	distractor	0	973	-1000	48861	13.328	12.899	13.755
DTProbeTrack03	10	ProbeTrackDT	1.1	SCS215a	20101115.093833	20101115.094747	dt-generate	8	0.013328	60	10	60-180	60	103	GapExp	0	93	2	1	0	target	0	440	-1000	47861	13.328	13.104	13.557
DTProbeTrack03	10	ProbeTrackDT	1.1	SCS215a	20101115.093833	20101115.094753	dt-generate	8	0.013328	60	10	60-180	60	67	GapExp	0	94	2	3	1	distractor	0	534	-1000	46861	13.328	13.300	13.347
DTProbeTrack03	10	ProbeTrackDT	1.1	SCS215a	20101115.093833	20101115.094757	dt-generate	8	0.013328	60	10	60-180	60	160	GapExp	0	95	2	45	1	target	1	547	727	47588	13.328	13.308	13.347
DTProbeTrack03	10	ProbeTrackDT	1.1	SCS215a	20101115.093833	20101115.094804	dt-generate	8	0.013328	60	10	60-180	60	65	GapExp	0	96	2	9	1	target	1	640	680	48268	13.328	13.093	13.562
DTProbeTrack03	10	ProbeTrackDT	1.1	SCS215a	20101115.093833	20101115.094809	dt-generate	8	0.013328	60	10	60-180	60	74	GapExp	0	97	2	1	0	distractor	1	507	747	49015	13.328	12.821	13.802
DTProbeTrack03	10	ProbeTrackDT	1.1	SCS215a	20101115.093833	20101115.094814	dt-generate	8	0.013328	60	10	60-180	60	65	GapExp	0	98	2	9	1	distractor	0	520	-1000	48015	13.328	13.306	13.348
DTProbeTrack03	10	ProbeTrackDT	1.1	SCS215a	20101115.093833	20101115.094819	dt-generate	8	0.013328	60	10	60-180	60	168	GapExp	0	99	2	3	1	target	1	440	780	48795	13.328	12.886	13.785
DTProbeTrack03	10	ProbeTrackDT	1.1	SCS215a	20101115.093833	20101115.094825	dt-generate	8	0.013328	60	10	60-180	60	138	GapExp	0	100	2	9	0	distractor	1	1280	360	49155	13.328	13.074	13.583
DTProbeTrack03	10	ProbeTrackDT	1.1	SCS215a	20101115.093833	20101115.094837	dt-generate	8	0.013328	60	10	60-180	60	146	GapExp	0	101	2	9	1	target	1	360	820	49975	13.328	12.847	13.809
DTProbeTrack03	10	ProbeTrackDT	1.1	SCS215a	20101115.093833	20101115.094843	dt-generate	8	0.013328	60	10	60-180	60	159	GapExp	0	102	2	9	1	distractor	0	680	-1000	48975	13.328	12.914	13.747
DTProbeTrack03	10	ProbeTrackDT	1.1	SCS215a	20101115.093833	20101115.094849	dt-generate	8	0.013328	60	10	60-180	60	168	GapExp	0	103	2	3	1	distractor	0	520	-1000	47975	13.328	12.866	13.797
DTProbeTrack03	10	ProbeTrackDT	1.1	SCS215a	20101115.093833	20101115.094855	dt-generate	8	0.013328	60	10	60-180	60	62	GapExp	0	104	2	3	1	target	1	400	800	48775	13.328	12.919	13.772
DTProbeTrack03	10	ProbeTrackDT	1.1	SCS215a	20101115.093833	20101115.094900	dt-generate	8	0.013328	60	10	60-180	60	96	GapExp	0	105	2	9	0	target	0	427	-1000	47775	13.328	13.113	13.531
DTProbeTrack03	10	ProbeTrackDT	1.1	SCS215a	20101115.093833	20101115.094905	dt-generate	8	0.013328	60	10	60-180	60	97	GapExp	0	106	2	6	1	target	1	600	700	48475	13.328	12.856	13.798
DTProbeTrack03	10	ProbeTrackDT	1.1	SCS215a	20101115.093833	20101115.094911	dt-generate	8	0.013328	60	10	60-180	60	153	GapExp	0	107	2	9	0	distractor	1	440	780	49255	13.328	10.686	15.963
DTProbeTrack03	10	ProbeTrackDT	1.1	SCS215a	20101115.093833	20101115.094917	dt-generate	8	0.013328	60	10	60-180	60	74	GapExp	0	108	2	45	1	target	1	560	720	49975	13.328	13.038	13.615
DTProbeTrack03	10	ProbeTrackDT	1.1	SCS215a	20101115.093833	20101115.094922	dt-generate	8	0.013328	60	10	60-180	60	61	GapExp	0	109	2	45	0	target	0	494	-1000	48975	13.328	13.036	13.639
DTProbeTrack03	10	ProbeTrackDT	1.1	SCS215a	20101115.093833	20101115.094928	dt-generate	8	0.013328	60	10	60-180	60	125	GapExp	0	110	2	6	1	distractor	0	534	-1000	47975	13.328	13.092	13.572
DTProbeTrack03	10	ProbeTrackDT	1.1	SCS215a	20101115.093833	20101115.094933	dt-generate	8	0.013328	60	10	60-180	60	132	GapExp	0	111	2	9	0	distractor	1	627	687	48662	13.328	13.297	13.358
DTProbeTrack03	10	ProbeTrackDT	1.1	SCS215a	20101115.093833	20101115.094939	dt-generate	8	0.013328	60	10	60-180	60	85	GapExp	0	112	2	45	1	target	1	587	707	49369	13.328	12.931	13.728
DTProbeTrack03	10	ProbeTrackDT	1.1	SCS215a	20101115.093833	20101115.094945	dt-generate	8	0.013328	60	10	60-180	60	104	GapExp	0	113	2	45	0	distractor	1	720	640	50009	13.328	13.030	13.651
DTProbeTrack03	10	ProbeTrackDT	1.1	SCS215a	20101115.093833	20101115.094951	dt-generate	8	0.013328	60	10	60-180	60	170	GapExp	0	114	2	9	0	distractor	1	520	740	50749	13.328	13.294	13.363
DTProbeTrack03	10	ProbeTrackDT	1.1	SCS215a	20101115.093833	20101115.094957	dt-generate	8	0.013328	60	10	60-180	60	107	GapExp	0	115	2	1	0	target	0	560	-1000	49749	13.328	13.304	13.356
DTProbeTrack03	10	ProbeTrackDT	1.1	SCS215a	20101115.093833	20101115.095003	dt-generate	8	0.013328	60	10	60-180	60	110	GapExp	0	116	2	45	1	target	1	534	733	50482	13.328	13.090	13.557
DTProbeTrack03	10	ProbeTrackDT	1.1	SCS215a	20101115.093833	20101115.095009	dt-generate	8	0.013328	60	10	60-180	60	112	GapExp	0	117	2	1	1	target	1	560	720	51202	13.328	13.308	13.347
DTProbeTrack03	10	ProbeTrackDT	1.1	SCS215a	20101115.093833	20101115.095014	dt-generate	8	0.013328	60	10	60-180	60	143	GapExp	0	118	2	9	1	distractor	0	534	-1000	50202	13.328	12.875	13.780
DTProbeTrack03	10	ProbeTrackDT	1.1	SCS215a	20101115.093833	20101115.095020	dt-generate	8	0.013328	60	10	60-180	60	176	GapExp	0	119	2	3	0	distractor	1	480	760	50962	13.328	13.099	13.542
DTProbeTrack03	10	ProbeTrackDT	1.1	SCS215a	20101115.093833	20101115.095027	dt-generate	8	0.013328	60	10	60-180	60	120	GapExp	0	120	2	45	0	distractor	1	454	773	51735	13.328	13.307	13.351
DTProbeTrack03	10	ProbeTrackDT	1.1	SCS215a	20101115.093833	20101115.095033	dt-generate	8	0.013328	60	10	60-180	60	107	GapExp	0	121	2	1	0	distractor	1	534	733	52468	13.328	13.309	13.348
DTProbeTrack03	10	ProbeTrackDT	1.1	SCS215a	20101115.093833	20101115.095038	dt-generate	8	0.013328	60	10	60-180	60	103	GapExp	0	122	2	6	1	target	1	387	807	53275	13.328	13.094	13.563
DTProbeTrack03	10	ProbeTrackDT	1.1	SCS215a	20101115.093833	20101115.095043	dt-generate	8	0.013328	60	10	60-180	60	68	GapExp	0	123	2	3	1	target	1	587	707	53982	13.328	13.312	13.348
DTProbeTrack03	10	ProbeTrackDT	1.1	SCS215a	20101115.093833	20101115.095048	dt-generate	8	0.013328	60	10	60-180	60	111	GapExp	0	124	2	1	0	target	0	494	-1000	52982	13.328	12.889	13.769
DTProbeTrack03	10	ProbeTrackDT	1.1	SCS215a	20101115.093833	20101115.095054	dt-generate	8	0.013328	60	10	60-180	60	64	GapExp	0	125	2	45	1	distractor	0	600	-1000	51982	13.328	12.970	13.692
DTProbeTrack03	10	ProbeTrackDT	1.1	SCS215a	20101115.093833	20101115.095059	dt-generate	8	0.013328	60	10	60-180	60	137	GapExp	0	126	2	1	1	target	1	520	740	52722	13.328	12.910	13.739
DTProbeTrack03	10	ProbeTrackDT	1.1	SCS215a	20101115.093833	20101115.095105	dt-generate	8	0.013328	60	10	60-180	60	151	GapExp	0	127	2	1	0	distractor	1	1147	427	53149	13.328	12.954	13.691
DTProbeTrack03	10	ProbeTrackDT	1.1	SCS215a	20101115.093833	20101115.095111	dt-generate	8	0.013328	60	10	60-180	60	129	GapExp	0	128	2	6	1	distractor	0	1360	-1000	52149	13.328	13.114	13.552
DTProbeTrack03	10	ProbeTrackDT	1.1	SCS215a	20101115.093833	20101115.095118	dt-generate	8	0.013328	60	10	60-180	60	153	GapExp	0	129	2	3	0	target	0	600	-1000	51149	13.328	12.945	13.719
DTProbeTrack03	10	ProbeTrackDT	1.1	SCS215a	20101115.093833	20101115.095124	dt-generate	8	0.013328	60	10	60-180	60	158	GapExp	0	130	2	45	1	distractor	0	840	-1000	50149	13.328	13.106	13.549
DTProbeTrack03	10	ProbeTrackDT	1.1	SCS215a	20101115.093833	20101115.095131	dt-generate	8	0.013328	60	10	60-180	60	134	GapExp	0	131	2	1	0	target	0	440	-1000	49149	13.328	13.099	13.551
DTProbeTrack03	10	ProbeTrackDT	1.1	SCS215a	20101115.093833	20101115.095137	dt-generate	8	0.013328	60	10	60-180	60	81	GapExp	0	132	2	45	0	target	0	614	-1000	48149	13.328	13.308	13.347
DTProbeTrack03	10	ProbeTrackDT	1.1	SCS215a	20101115.093833	20101115.095143	dt-generate	8	0.013328	60	10	60-180	60	154	GapExp	0	133	2	45	0	target	0	440	-1000	47149	13.328	13.290	13.371
DTProbeTrack03	10	ProbeTrackDT	1.1	SCS215a	20101115.093833	20101115.095149	dt-generate	8	0.013328	60	10	60-180	60	125	GapExp	0	134	2	45	0	distractor	1	627	687	47836	13.328	13.309	13.354
DTProbeTrack03	10	ProbeTrackDT	1.1	SCS215a	20101115.093833	20101115.095155	dt-generate	8	0.013328	60	10	60-180	60	177	GapExp	0	135	2	1	0	target	0	480	-1000	46836	13.328	13.308	13.348
DTProbeTrack03	10	ProbeTrackDT	1.1	SCS215a	20101115.093833	20101115.095202	dt-generate	8	0.013328	60	10	60-180	60	145	GapExp	0	136	2	1	0	distractor	1	480	760	47596	13.328	13.103	13.547
DTProbeTrack03	10	ProbeTrackDT	1.1	SCS215a	20101115.093833	20101115.095207	dt-generate	8	0.013328	60	10	60-180	60	127	GapExp	0	137	2	9	0	target	0	467	-1000	46596	13.328	13.101	13.546
DTProbeTrack03	10	ProbeTrackDT	1.1	SCS215a	20101115.093833	20101115.095213	dt-generate	8	0.013328	60	10	60-180	60	156	GapExp	0	138	2	3	1	target	1	400	800	47396	13.328	12.997	13.668
DTProbeTrack03	10	ProbeTrackDT	1.1	SCS215a	20101115.093833	20101115.095219	dt-generate	8	0.013328	60	10	60-180	60	62	GapExp	0	139	2	6	0	distractor	1	547	727	48123	13.328	13.245	13.420
DTProbeTrack03	10	ProbeTrackDT	1.1	SCS215a	20101115.093833	20101115.095224	dt-generate	8	0.013328	60	10	60-180	60	98	GapExp	0	140	2	45	1	target	1	360	820	48943	13.328	12.969	13.675
DTProbeTrack03	10	ProbeTrackDT	1.1	SCS215a	20101115.093833	20101115.095230	dt-generate	8	0.013328	60	10	60-180	60	117	GapExp	0	141	2	1	0	target	0	494	-1000	47943	13.328	13.011	13.646
DTProbeTrack03	10	ProbeTrackDT	1.1	SCS215a	20101115.093833	20101115.095235	dt-generate	8	0.013328	60	10	60-180	60	172	GapExp	0	142	2	6	0	distractor	1	534	733	48676	13.328	13.117	13.551
DTProbeTrack03	10	ProbeTrackDT	1.1	SCS215a	20101115.093833	20101115.095241	dt-generate	8	0.013328	60	10	60-180	60	170	GapExp	0	143	2	3	1	target	1	494	753	49429	13.328	13.098	13.558
DTProbeTrack03	10	ProbeTrackDT	1.1	SCS215a	20101115.093833	20101115.095248	dt-generate	8	0.013328	60	10	60-180	60	106	GapExp	0	144	2	45	0	distractor	1	600	700	50129	13.328	12.993	13.655
DTProbeTrack03	10	ProbeTrackDT	1.1	SCS215a	20101115.093833	20101115.095254	dt-generate	8	0.013328	60	10	60-180	60	92	GapExp	0	145	2	9	0	distractor	1	480	760	50889	13.328	13.310	13.348
DTProbeTrack03	10	ProbeTrackDT	1.1	SCS215a	20101115.093833	20101115.095259	dt-generate	8	0.013328	60	10	60-180	60	175	GapExp	0	146	2	9	1	target	1	760	620	51509	13.328	13.305	13.348
DTProbeTrack03	10	ProbeTrackDT	1.1	SCS215a	20101115.093833	20101115.095305	dt-generate	8	0.013328	60	10	60-180	60	146	GapExp	0	147	2	6	1	target	1	640	680	52189	13.328	12.866	13.803
DTProbeTrack03	10	ProbeTrackDT	1.1	SCS215a	20101115.093833	20101115.095311	dt-generate	8	0.013328	60	10	60-180	60	179	GapExp	0	148	2	6	0	distractor	1	507	747	52936	13.328	12.961	13.706
DTProbeTrack03	10	ProbeTrackDT	1.1	SCS215a	20101115.093833	20101115.095318	dt-generate	8	0.013328	60	10	60-180	60	149	GapExp	0	149	2	3	1	target	1	667	667	53603	13.374	12.910	27.085
DTProbeTrack03	10	ProbeTrackDT	1.1	SCS215a	20101115.093833	20101115.095324	dt-generate	8	0.013328	60	10	60-180	60	140	GapExp	0	150	2	45	0	distractor	1	547	727	54330	13.328	12.875	13.784
DTProbeTrack03	10	ProbeTrackDT	1.1	SCS215a	20101115.093833	20101115.095335	dt-generate	8	0.013328	60	10	60-180	60	164	GapExp	0	151	2	1	1	distractor	0	387	-1000	53330	13.328	13.263	13.384
DTProbeTrack03	10	ProbeTrackDT	1.1	SCS215a	20101115.093833	20101115.095341	dt-generate	8	0.013328	60	10	60-180	60	174	GapExp	0	152	2	1	0	distractor	1	534	733	54063	13.328	13.306	13.348
DTProbeTrack03	10	ProbeTrackDT	1.1	SCS215a	20101115.093833	20101115.095347	dt-generate	8	0.013328	60	10	60-180	60	77	GapExp	0	153	2	3	1	target	1	533	734	54797	13.327	13.112	13.352
DTProbeTrack03	10	ProbeTrackDT	1.1	SCS215a	20101115.093833	20101115.095352	dt-generate	8	0.013328	60	10	60-180	60	147	GapExp	0	154	2	45	0	distractor	1	547	727	55524	13.328	13.090	13.562
DTProbeTrack03	10	ProbeTrackDT	1.1	SCS215a	20101115.093833	20101115.095359	dt-generate	8	0.013328	60	10	60-180	60	67	GapExp	0	155	2	9	0	distractor	1	534	733	56257	13.328	13.308	13.355
DTProbeTrack03	10	ProbeTrackDT	1.1	SCS215a	20101115.093833	20101115.095404	dt-generate	8	0.013328	60	10	60-180	60	149	GapExp	0	156	2	45	1	target	1	560	720	56977	13.328	12.941	13.701
DTProbeTrack03	10	ProbeTrackDT	1.1	SCS215a	20101115.093833	20101115.095410	dt-generate	8	0.013328	60	10	60-180	60	70	GapExp	0	157	2	3	0	target	0	480	-1000	55977	13.328	12.866	13.796
DTProbeTrack03	10	ProbeTrackDT	1.1	SCS215a	20101115.093833	20101115.095415	dt-generate	8	0.013328	60	10	60-180	60	161	GapExp	0	158	2	6	1	target	1	400	800	56777	13.328	13.093	13.562
DTProbeTrack03	10	ProbeTrackDT	1.1	SCS215a	20101115.093833	20101115.095421	dt-generate	8	0.013328	60	10	60-180	60	174	GapExp	0	159	2	45	1	target	1	507	747	57524	13.328	13.100	13.558
DTProbeTrack03	10	ProbeTrackDT	1.1	SCS215a	20101115.093833	20101115.095428	dt-generate	8	0.013328	60	10	60-180	60	162	GapExp	0	160	2	1	1	target	1	440	780	58304	13.328	13.091	13.559
DTProbeTrack03	10	ProbeTrackDT	1.1	SCS215a	20101115.093833	20101115.095434	dt-generate	8	0.013328	60	10	60-180	60	169	GapExp	0	161	2	9	1	target	1	427	787	59091	13.328	13.081	13.565
DTProbeTrack03	10	ProbeTrackDT	1.1	SCS215a	20101115.093833	20101115.095440	dt-generate	8	0.013328	60	10	60-180	60	148	GapExp	0	162	2	9	0	distractor	1	547	727	59818	13.328	13.113	13.551
DTProbeTrack03	10	ProbeTrackDT	1.1	SCS215a	20101115.093833	20101115.095446	dt-generate	8	0.013328	60	10	60-180	60	121	GapExp	0	163	2	9	0	target	0	440	-1000	58818	13.328	13.308	13.347
DTProbeTrack03	10	ProbeTrackDT	1.1	SCS215a	20101115.093833	20101115.095452	dt-generate	8	0.013328	60	10	60-180	60	69	GapExp	0	164	2	1	1	target	1	414	793	59611	13.328	12.893	13.764
DTProbeTrack03	10	ProbeTrackDT	1.1	SCS215a	20101115.093833	20101115.095456	dt-generate	8	0.013328	60	10	60-180	60	120	GapExp	0	165	2	6	0	distractor	1	560	720	60331	13.328	13.115	13.552
DTProbeTrack03	10	ProbeTrackDT	1.1	SCS215a	20101115.093833	20101115.095502	dt-generate	8	0.013328	60	10	60-180	60	65	GapExp	0	166	2	6	0	target	0	627	-1000	59331	13.328	12.851	13.800
DTProbeTrack03	10	ProbeTrackDT	1.1	SCS215a	20101115.093833	20101115.095507	dt-generate	8	0.013328	60	10	60-180	60	84	GapExp	0	167	2	3	0	target	0	534	-1000	58331	13.328	13.307	13.348
DTProbeTrack03	10	ProbeTrackDT	1.1	SCS215a	20101115.093833	20101115.095512	dt-generate	8	0.013328	60	10	60-180	60	109	GapExp	0	168	2	1	0	target	0	520	-1000	57331	13.328	12.889	13.790
DTProbeTrack03	10	ProbeTrackDT	1.1	SCS215a	20101115.093833	20101115.095518	dt-generate	8	0.013328	60	10	60-180	60	99	GapExp	0	169	2	9	0	distractor	1	520	740	58071	13.328	13.107	13.543
DTProbeTrack03	10	ProbeTrackDT	1.1	SCS215a	20101115.093833	20101115.095523	dt-generate	8	0.013328	60	10	60-180	60	78	GapExp	0	170	2	6	1	target	1	400	800	58871	13.328	13.091	13.557
DTProbeTrack03	10	ProbeTrackDT	1.1	SCS215a	20101115.093833	20101115.095528	dt-generate	8	0.013328	60	10	60-180	60	170	GapExp	0	171	2	45	1	target	1	467	767	59638	13.328	13.104	13.544
DTProbeTrack03	10	ProbeTrackDT	1.1	SCS215a	20101115.093833	20101115.095535	dt-generate	8	0.013328	60	10	60-180	60	61	GapExp	0	172	2	3	0	distractor	1	520	740	60378	13.328	13.304	13.345
DTProbeTrack03	10	ProbeTrackDT	1.1	SCS215a	20101115.093833	20101115.095539	dt-generate	8	0.013328	60	10	60-180	60	94	GapExp	0	173	2	45	0	target	0	707	-1000	59378	13.328	13.309	13.350
DTProbeTrack03	10	ProbeTrackDT	1.1	SCS215a	20101115.093833	20101115.095545	dt-generate	8	0.013328	60	10	60-180	60	77	GapExp	0	174	2	3	0	target	0	494	-1000	58378	13.328	13.099	13.545
DTProbeTrack03	10	ProbeTrackDT	1.1	SCS215a	20101115.093833	20101115.095550	dt-generate	8	0.013328	60	10	60-180	60	140	GapExp	0	175	2	3	1	target	1	440	780	59158	13.328	13.111	13.557
DTProbeTrack03	10	ProbeTrackDT	1.1	SCS215a	20101115.093833	20101115.095556	dt-generate	8	0.013328	60	10	60-180	60	138	GapExp	0	176	2	6	1	target	1	400	800	59958	13.328	13.026	13.625
DTProbeTrack03	10	ProbeTrackDT	1.1	SCS215a	20101115.093833	20101115.095602	dt-generate	8	0.013328	60	10	60-180	60	151	GapExp	0	177	2	45	0	distractor	1	400	800	60758	13.328	13.148	13.522
DTProbeTrack03	10	ProbeTrackDT	1.1	SCS215a	20101115.093833	20101115.095608	dt-generate	8	0.013328	60	10	60-180	60	81	GapExp	0	178	2	45	0	distractor	1	320	840	61598	13.328	12.859	13.795
DTProbeTrack03	10	ProbeTrackDT	1.1	SCS215a	20101115.093833	20101115.095614	dt-generate	8	0.013328	60	10	60-180	60	96	GapExp	0	179	2	3	0	target	0	693	-1000	60598	13.328	13.309	13.348
DTProbeTrack03	10	ProbeTrackDT	1.1	SCS215a	20101115.093833	20101115.095619	dt-generate	8	0.013328	60	10	60-180	60	68	GapExp	0	180	2	6	1	distractor	0	387	-1000	59598	13.328	12.962	13.694
DTProbeTrack03	10	ProbeTrackDT	1.1	SCS215a	20101115.093833	20101115.095624	dt-generate	8	0.013328	60	10	60-180	60	133	GapExp	0	181	2	1	0	target	0	627	-1000	58598	13.328	12.885	13.778
DTProbeTrack03	10	ProbeTrackDT	1.1	SCS215a	20101115.093833	20101115.095630	dt-generate	8	0.013328	60	10	60-180	60	147	GapExp	0	182	2	1	0	distractor	1	600	700	59298	13.328	13.305	13.348
DTProbeTrack03	10	ProbeTrackDT	1.1	SCS215a	20101115.093833	20101115.095636	dt-generate	8	0.013328	60	10	60-180	60	167	GapExp	0	183	2	45	0	distractor	1	587	707	60005	13.328	13.214	13.430
DTProbeTrack03	10	ProbeTrackDT	1.1	SCS215a	20101115.093833	20101115.095643	dt-generate	8	0.013328	60	10	60-180	60	105	GapExp	0	184	2	6	1	target	1	600	700	60705	13.328	13.005	13.665
DTProbeTrack03	10	ProbeTrackDT	1.1	SCS215a	20101115.093833	20101115.095648	dt-generate	8	0.013328	60	10	60-180	60	83	GapExp	0	185	2	6	0	target	0	653	-1000	59705	13.328	13.197	13.351
DTProbeTrack03	10	ProbeTrackDT	1.1	SCS215a	20101115.093833	20101115.095653	dt-generate	8	0.013328	60	10	60-180	60	131	GapExp	0	186	2	3	0	distractor	1	480	760	60465	13.328	12.972	13.696
DTProbeTrack03	10	ProbeTrackDT	1.1	SCS215a	20101115.093833	20101115.095659	dt-generate	8	0.013328	60	10	60-180	60	79	GapExp	0	187	2	3	0	distractor	1	560	720	61185	13.328	13.308	13.347
DTProbeTrack03	10	ProbeTrackDT	1.1	SCS215a	20101115.093833	20101115.095704	dt-generate	8	0.013328	60	10	60-180	60	158	GapExp	0	188	2	1	1	distractor	0	454	-1000	60185	13.328	13.308	13.347
DTProbeTrack03	10	ProbeTrackDT	1.1	SCS215a	20101115.093833	20101115.095710	dt-generate	8	0.013328	60	10	60-180	60	142	GapExp	0	189	2	45	0	target	0	534	-1000	59185	13.328	13.103	13.555
DTProbeTrack03	10	ProbeTrackDT	1.1	SCS215a	20101115.093833	20101115.095717	dt-generate	8	0.013328	60	10	60-180	60	175	GapExp	0	190	2	9	1	target	1	400	800	59985	13.328	13.106	13.545
DTProbeTrack03	10	ProbeTrackDT	1.1	SCS215a	20101115.093833	20101115.095723	dt-generate	8	0.013328	60	10	60-180	60	133	GapExp	0	191	2	6	0	distractor	1	600	700	60685	13.328	13.308	13.353
DTProbeTrack03	10	ProbeTrackDT	1.1	SCS215a	20101115.093833	20101115.095729	dt-generate	8	0.013328	60	10	60-180	60	165	GapExp	0	192	2	6	1	target	1	387	807	61492	13.328	13.099	13.551
DTProbeTrack03	10	ProbeTrackDT	1.1	SCS215a	20101115.093833	20101115.095735	dt-generate	8	0.013328	60	10	60-180	60	80	GapExp	0	193	2	3	0	target	0	680	-1000	60492	13.328	12.880	13.774
DTProbeTrack03	10	ProbeTrackDT	1.1	SCS215a	20101115.093833	20101115.095740	dt-generate	8	0.013328	60	10	60-180	60	138	GapExp	0	194	2	3	1	target	1	653	674	61166	13.328	12.963	13.682
DTProbeTrack03	10	ProbeTrackDT	1.1	SCS215a	20101115.093833	20101115.095746	dt-generate	8	0.013328	60	10	60-180	60	115	GapExp	0	195	2	9	1	distractor	0	1013	-1000	60166	13.328	13.295	13.367
DTProbeTrack03	10	ProbeTrackDT	1.1	SCS215a	20101115.093833	20101115.095752	dt-generate	8	0.013328	60	10	60-180	60	100	GapExp	0	196	2	1	1	target	1	507	747	60913	13.328	13.087	13.560
DTProbeTrack03	10	ProbeTrackDT	1.1	SCS215a	20101115.093833	20101115.095757	dt-generate	8	0.013328	60	10	60-180	60	120	GapExp	0	197	2	45	1	target	1	480	760	61673	13.328	13.112	13.551
DTProbeTrack03	10	ProbeTrackDT	1.1	SCS215a	20101115.093833	20101115.095803	dt-generate	8	0.013328	60	10	60-180	60	65	GapExp	0	198	2	1	1	distractor	0	907	-1000	60673	13.328	13.095	13.569
DTProbeTrack03	10	ProbeTrackDT	1.1	SCS215a	20101115.093833	20101115.095809	dt-generate	8	0.013328	60	10	60-180	60	122	GapExp	0	199	2	6	1	target	1	520	740	61413	13.328	13.308	13.349
DTProbeTrack03	10	ProbeTrackDT	1.1	SCS215a	20101115.093833	20101115.095814	dt-generate	8	0.013328	60	10	60-180	60	157	GapExp	0	200	2	6	0	distractor	1	893	554	61967	13.328	13.308	13.356
DTProbeTrack03	10	ProbeTrackDT	1.1	SCS215a	20101115.093833	20101115.095825	dt-generate	8	0.013328	60	10	60-180	60	130	GapExp	0	201	2	1	0	distractor	1	440	780	62747	13.328	13.289	13.348
DTProbeTrack03	10	ProbeTrackDT	1.1	SCS215a	20101115.093833	20101115.095831	dt-generate	8	0.013328	60	10	60-180	60	88	GapExp	0	202	2	3	0	target	0	574	-1000	61747	13.328	13.305	13.354
DTProbeTrack03	10	ProbeTrackDT	1.1	SCS215a	20101115.093833	20101115.095836	dt-generate	8	0.013328	60	10	60-180	60	143	GapExp	0	203	2	3	1	target	1	520	740	62487	13.328	12.978	13.679
DTProbeTrack03	10	ProbeTrackDT	1.1	SCS215a	20101115.093833	20101115.095842	dt-generate	8	0.013328	60	10	60-180	60	162	GapExp	0	204	2	1	1	target	1	507	747	63234	13.328	12.894	13.754
DTProbeTrack03	10	ProbeTrackDT	1.1	SCS215a	20101115.093833	20101115.095848	dt-generate	8	0.013328	60	10	60-180	60	152	GapExp	0	205	2	9	1	target	1	587	707	63941	13.328	12.991	13.678
DTProbeTrack03	10	ProbeTrackDT	1.1	SCS215a	20101115.095946	20101115.095951	single-task	8	0.013328	60	10	60-180	60	75	GapPrac	1	1	2	9	1	target	1	387	807	64748	13.394	13.063	26.721
DTProbeTrack03	10	ProbeTrackDT	1.1	SCS215a	20101115.095946	20101115.095956	single-task	8	0.013328	60	10	60-180	60	106	GapPrac	1	2	2	45	0	target	0	534	-1000	63748	13.328	12.953	13.707
DTProbeTrack03	10	ProbeTrackDT	1.1	SCS215a	20101115.095946	20101115.100002	single-task	8	0.013328	60	10	60-180	60	116	GapPrac	1	3	2	6	0	distractor	1	494	753	64501	13.328	12.952	13.700
DTProbeTrack03	10	ProbeTrackDT	1.1	SCS215a	20101115.095946	20101115.100007	single-task	8	0.013328	60	10	60-180	60	64	GapPrac	1	4	2	45	1	distractor	0	747	-1000	63501	13.328	13.308	13.344
DTProbeTrack03	10	ProbeTrackDT	1.1	SCS215a	20101115.095946	20101115.100013	single-task	8	0.013328	60	10	60-180	60	111	GapPrac	1	5	2	3	1	target	1	494	753	64254	13.328	13.103	13.539
DTProbeTrack03	10	ProbeTrackDT	1.1	SCS215a	20101115.095946	20101115.100018	single-task	8	0.013328	60	10	60-180	60	178	GapPrac	1	6	2	3	0	distractor	1	560	720	64974	13.328	12.951	13.696
DTProbeTrack03	10	ProbeTrackDT	1.1	SCS215a	20101115.095946	20101115.100025	single-task	8	0.013328	60	10	60-180	60	123	GapPrac	1	7	2	6	1	distractor	0	640	-1000	63974	13.328	13.014	13.648
DTProbeTrack03	10	ProbeTrackDT	1.1	SCS215a	20101115.095946	20101115.100031	single-task	8	0.013328	60	10	60-180	60	139	GapPrac	1	8	2	45	0	target	0	813	-1000	62974	13.328	13.106	13.550
DTProbeTrack03	10	ProbeTrackDT	1.1	SCS215a	20101115.095946	20101115.100037	single-task	8	0.013328	60	10	60-180	60	91	GapPrac	1	9	2	6	0	distractor	1	427	787	63761	13.328	13.308	13.344
DTProbeTrack03	10	ProbeTrackDT	1.1	SCS215a	20101115.095946	20101115.100042	single-task	8	0.013328	60	10	60-180	60	99	GapPrac	1	10	2	1	0	distractor	1	693	654	64415	13.328	13.306	13.354
DTProbeTrack03	10	ProbeTrackDT	1.1	SCS215a	20101115.095946	20101115.100048	single-task	8	0.013328	60	10	60-180	60	83	GapPrac	1	11	2	3	1	target	1	560	720	65135	13.328	13.269	13.391
DTProbeTrack03	10	ProbeTrackDT	1.1	SCS215a	20101115.095946	20101115.100053	single-task	8	0.013328	60	10	60-180	60	107	GapPrac	1	12	2	3	0	target	0	614	-1000	64135	13.328	13.113	13.551
DTProbeTrack03	10	ProbeTrackDT	1.1	SCS215a	20101115.095946	20101115.100058	single-task	8	0.013328	60	10	60-180	60	167	GapPrac	1	13	2	9	0	distractor	1	454	773	64908	13.328	13.113	13.550
DTProbeTrack03	10	ProbeTrackDT	1.1	SCS215a	20101115.095946	20101115.100105	single-task	8	0.013328	60	10	60-180	60	91	GapPrac	1	14	2	45	1	target	1	467	767	65675	13.328	13.150	13.520
DTProbeTrack03	10	ProbeTrackDT	1.1	SCS215a	20101115.095946	20101115.100110	single-task	8	0.013328	60	10	60-180	60	122	GapPrac	1	15	2	6	1	target	1	387	807	66482	13.328	13.304	13.344
DTProbeTrack03	10	ProbeTrackDT	1.1	SCS215a	20101115.095946	20101115.100116	single-task	8	0.013328	60	10	60-180	60	72	GapPrac	1	16	2	9	1	distractor	0	840	-1000	65482	13.328	13.030	13.624
DTProbeTrack03	10	ProbeTrackDT	1.1	SCS215a	20101115.095946	20101115.100121	single-task	8	0.013328	60	10	60-180	60	67	GapPrac	1	17	2	1	0	target	0	773	-1000	64482	13.328	13.114	13.550
DTProbeTrack03	10	ProbeTrackDT	1.1	SCS215a	20101115.095946	20101115.100126	single-task	8	0.013328	60	10	60-180	60	128	GapPrac	1	18	2	1	1	target	1	387	807	65289	13.328	13.087	13.563
DTProbeTrack03	10	ProbeTrackDT	1.1	SCS215a	20101115.095946	20101115.100132	single-task	8	0.013328	60	10	60-180	60	163	GapPrac	1	19	2	1	1	target	1	427	787	66076	13.328	12.843	13.807
DTProbeTrack03	10	ProbeTrackDT	1.1	SCS215a	20101115.095946	20101115.100138	single-task	8	0.013328	60	10	60-180	60	106	GapPrac	1	20	2	9	0	target	0	400	-1000	65076	13.328	13.302	13.346
DTProbeTrack03	10	ProbeTrackDT	1.1	SCS215a	20101115.100221	20101115.100226	single-task	8	0.013328	60	10	60-180	60	102	GapExp	1	1	2	9	0	distractor	1	560	720	65796	13.328	12.843	13.802
DTProbeTrack03	10	ProbeTrackDT	1.1	SCS215a	20101115.100221	20101115.100232	single-task	8	0.013328	60	10	60-180	60	119	GapExp	1	2	2	1	1	target	1	534	733	66529	13.328	13.097	13.564
DTProbeTrack03	10	ProbeTrackDT	1.1	SCS215a	20101115.100221	20101115.100237	single-task	8	0.013328	60	10	60-180	60	96	GapExp	1	3	2	45	0	target	0	507	-1000	65529	13.328	13.095	13.550
DTProbeTrack03	10	ProbeTrackDT	1.1	SCS215a	20101115.100221	20101115.100243	single-task	8	0.013328	60	10	60-180	60	61	GapExp	1	4	2	6	1	distractor	0	853	-1000	64529	13.328	13.311	13.344
DTProbeTrack03	10	ProbeTrackDT	1.1	SCS215a	20101115.100221	20101115.100248	single-task	8	0.013328	60	10	60-180	60	88	GapExp	1	5	2	3	1	target	1	400	800	65329	13.328	13.259	13.403
DTProbeTrack03	10	ProbeTrackDT	1.1	SCS215a	20101115.100221	20101115.100253	single-task	8	0.013328	60	10	60-180	60	133	GapExp	0	6	2	1	0	distractor	1	707	647	65976	13.328	13.313	13.349
DTProbeTrack03	10	ProbeTrackDT	1.1	SCS215a	20101115.100221	20101115.100259	single-task	8	0.013328	60	10	60-180	60	113	GapExp	0	7	2	45	1	target	1	414	793	66769	13.328	12.880	13.779
DTProbeTrack03	10	ProbeTrackDT	1.1	SCS215a	20101115.100221	20101115.100305	single-task	8	0.013328	60	10	60-180	60	94	GapExp	0	8	2	9	0	distractor	1	534	733	67502	13.328	13.099	13.546
DTProbeTrack03	10	ProbeTrackDT	1.1	SCS215a	20101115.100221	20101115.100310	single-task	8	0.013328	60	10	60-180	60	116	GapExp	0	9	2	6	1	target	1	427	787	68289	13.328	13.308	13.345
DTProbeTrack03	10	ProbeTrackDT	1.1	SCS215a	20101115.100221	20101115.100316	single-task	8	0.013328	60	10	60-180	60	164	GapExp	0	10	2	45	1	target	1	440	780	69069	13.328	13.309	13.344
DTProbeTrack03	10	ProbeTrackDT	1.1	SCS215a	20101115.100221	20101115.100322	single-task	8	0.013328	60	10	60-180	60	89	GapExp	0	11	2	3	1	target	1	400	800	69869	13.328	13.309	13.357
DTProbeTrack03	10	ProbeTrackDT	1.1	SCS215a	20101115.100221	20101115.100327	single-task	8	0.013328	60	10	60-180	60	112	GapExp	0	12	2	1	0	distractor	1	574	713	70582	13.328	12.811	13.825
DTProbeTrack03	10	ProbeTrackDT	1.1	SCS215a	20101115.100221	20101115.100333	single-task	8	0.013328	60	10	60-180	60	172	GapExp	0	13	2	45	0	target	0	480	-1000	69582	13.328	13.102	13.557
DTProbeTrack03	10	ProbeTrackDT	1.1	SCS215a	20101115.100221	20101115.100340	single-task	8	0.013328	60	10	60-180	60	151	GapExp	0	14	2	45	0	distractor	1	587	707	70289	13.328	13.027	13.639
DTProbeTrack03	10	ProbeTrackDT	1.1	SCS215a	20101115.100221	20101115.100346	single-task	8	0.013328	60	10	60-180	60	149	GapExp	0	15	2	1	1	target	1	613	694	70983	13.328	13.006	13.656
DTProbeTrack03	10	ProbeTrackDT	1.1	SCS215a	20101115.100221	20101115.100352	single-task	8	0.013328	60	10	60-180	60	74	GapExp	0	16	2	6	0	distractor	1	507	747	71730	13.328	13.305	13.347
DTProbeTrack03	10	ProbeTrackDT	1.1	SCS215a	20101115.100221	20101115.100357	single-task	8	0.013328	60	10	60-180	60	70	GapExp	0	17	2	6	0	distractor	1	680	660	72390	13.328	13.307	13.346
DTProbeTrack03	10	ProbeTrackDT	1.1	SCS215a	20101115.100221	20101115.100402	single-task	8	0.013328	60	10	60-180	60	173	GapExp	0	18	2	45	1	target	1	640	680	73070	13.328	13.307	13.347
DTProbeTrack03	10	ProbeTrackDT	1.1	SCS215a	20101115.100221	20101115.100409	single-task	8	0.013328	60	10	60-180	60	136	GapExp	0	19	2	3	0	distractor	1	547	727	73797	13.328	13.086	13.558
DTProbeTrack03	10	ProbeTrackDT	1.1	SCS215a	20101115.100221	20101115.100415	single-task	8	0.013328	60	10	60-180	60	116	GapExp	0	20	2	9	0	distractor	1	587	707	74504	13.328	13.100	13.570
DTProbeTrack03	10	ProbeTrackDT	1.1	SCS215a	20101115.100221	20101115.100421	single-task	8	0.013328	60	10	60-180	60	137	GapExp	0	21	2	3	0	target	0	440	-1000	73504	13.328	13.120	13.548
DTProbeTrack03	10	ProbeTrackDT	1.1	SCS215a	20101115.100221	20101115.100427	single-task	8	0.013328	60	10	60-180	60	129	GapExp	0	22	2	3	1	target	1	427	787	74291	13.328	13.304	13.363
DTProbeTrack03	10	ProbeTrackDT	1.1	SCS215a	20101115.100221	20101115.100432	single-task	8	0.013328	60	10	60-180	60	137	GapExp	0	23	2	1	0	distractor	1	494	753	75044	13.328	12.858	13.784
DTProbeTrack03	10	ProbeTrackDT	1.1	SCS215a	20101115.100221	20101115.100438	single-task	8	0.013328	60	10	60-180	60	105	GapExp	0	24	2	1	0	distractor	1	480	760	75804	13.328	12.885	13.765
DTProbeTrack03	10	ProbeTrackDT	1.1	SCS215a	20101115.100221	20101115.100443	single-task	8	0.013328	60	10	60-180	60	158	GapExp	0	25	2	1	1	target	1	400	800	76604	13.328	12.863	13.806
DTProbeTrack03	10	ProbeTrackDT	1.1	SCS215a	20101115.100221	20101115.100449	single-task	8	0.013328	60	10	60-180	60	71	GapExp	0	26	2	9	1	target	1	347	827	77431	13.328	13.309	13.348
DTProbeTrack03	10	ProbeTrackDT	1.1	SCS215a	20101115.100221	20101115.100454	single-task	8	0.013328	60	10	60-180	60	93	GapExp	0	27	2	6	1	target	1	414	793	78224	13.328	13.309	13.347
DTProbeTrack03	10	ProbeTrackDT	1.1	SCS215a	20101115.100221	20101115.100459	single-task	8	0.013328	60	10	60-180	60	108	GapExp	0	28	2	45	1	distractor	0	454	-1000	77224	13.328	13.008	13.643
DTProbeTrack03	10	ProbeTrackDT	1.1	SCS215a	20101115.100221	20101115.100505	single-task	8	0.013328	60	10	60-180	60	146	GapExp	0	29	2	6	1	target	1	534	733	77957	13.328	12.922	13.713
DTProbeTrack03	10	ProbeTrackDT	1.1	SCS215a	20101115.100221	20101115.100511	single-task	8	0.013328	60	10	60-180	60	169	GapExp	0	30	2	6	0	distractor	1	480	760	78717	13.329	12.899	13.760
DTProbeTrack03	10	ProbeTrackDT	1.1	SCS215a	20101115.100221	20101115.100517	single-task	8	0.013328	60	10	60-180	60	170	GapExp	0	31	2	9	0	distractor	1	414	793	79510	13.328	13.105	13.546
DTProbeTrack03	10	ProbeTrackDT	1.1	SCS215a	20101115.100221	20101115.100523	single-task	8	0.013328	60	10	60-180	60	128	GapExp	0	32	2	45	0	distractor	1	427	787	80297	13.328	13.106	13.564
DTProbeTrack03	10	ProbeTrackDT	1.1	SCS215a	20101115.100221	20101115.100530	single-task	8	0.013328	60	10	60-180	60	106	GapExp	0	33	2	6	0	distractor	1	467	767	81064	13.328	12.944	13.718
DTProbeTrack03	10	ProbeTrackDT	1.1	SCS215a	20101115.100221	20101115.100535	single-task	8	0.013328	60	10	60-180	60	136	GapExp	0	34	2	3	1	distractor	0	440	-1000	80064	13.328	13.064	13.604
DTProbeTrack03	10	ProbeTrackDT	1.1	SCS215a	20101115.100221	20101115.100541	single-task	8	0.013328	60	10	60-180	60	108	GapExp	0	35	2	9	1	target	1	374	813	80877	13.328	12.972	13.687
DTProbeTrack03	10	ProbeTrackDT	1.1	SCS215a	20101115.100221	20101115.100546	single-task	8	0.013328	60	10	60-180	60	142	GapExp	0	36	2	3	1	target	1	427	787	81664	13.328	13.097	13.554
DTProbeTrack03	10	ProbeTrackDT	1.1	SCS215a	20101115.100221	20101115.100552	single-task	8	0.013328	60	10	60-180	60	123	GapExp	0	37	2	6	0	distractor	1	760	620	82284	13.328	12.966	13.685
DTProbeTrack03	10	ProbeTrackDT	1.1	SCS215a	20101115.100221	20101115.100558	single-task	8	0.013328	60	10	60-180	60	120	GapExp	0	38	2	6	1	target	1	427	787	83071	13.328	13.118	13.547
DTProbeTrack03	10	ProbeTrackDT	1.1	SCS215a	20101115.100221	20101115.100603	single-task	8	0.013328	60	10	60-180	60	62	GapExp	0	39	2	9	1	distractor	0	507	-1000	82071	13.328	13.296	13.360
