exp	sub	code	rev	comp	runtime	trialtime	stdt	nstim	refreshdur	cuedur	gapdur	gapOnsetRange	durPostProbe	gapOnsetTime	blocktype	prac	trial	ntargets	soa	probeTarget	resp	acc	rt	pts	tpts	meanFrameDur	minFrameDur	maxFrameDur
DTProbeTrack03	20	ProbeTrackDT	1.1	SCS215a	20110128.143332	20110128.143344	single-task	8	0.013327	60	0	60-180	60	101	NoGap	1	1	2	9	1	target	1	1933	34	34	13.328	13.098	13.557
DTProbeTrack03	20	ProbeTrackDT	1.1	SCS215a	20110128.143332	20110128.143351	single-task	8	0.013327	60	0	60-180	60	66	NoGap	1	2	2	3	0	distractor	1	2413	0	34	13.328	12.949	13.694
DTProbeTrack03	20	ProbeTrackDT	1.1	SCS215a	20110128.143332	20110128.143357	single-task	8	0.013327	60	0	60-180	60	165	NoGap	1	3	2	1	1	target	1	2706	0	34	13.328	12.912	13.722
DTProbeTrack03	20	ProbeTrackDT	1.1	SCS215a	20110128.143332	20110128.143406	single-task	8	0.013327	60	0	60-180	60	130	NoGap	1	4	2	45	0	distractor	1	2199	0	34	13.328	13.107	13.550
DTProbeTrack03	20	ProbeTrackDT	1.1	SCS215a	20110128.143332	20110128.143414	single-task	8	0.013327	60	0	60-180	60	136	NoGap	1	5	2	6	1	target	1	1440	280	314	13.328	13.074	13.568
DTProbeTrack03	20	ProbeTrackDT	1.1	SCS215a	20110128.143332	20110128.143420	single-task	8	0.013327	60	0	60-180	60	150	NoGap	1	6	2	9	1	target	1	1626	187	501	13.328	12.884	13.782
DTProbeTrack03	20	ProbeTrackDT	1.1	SCS215a	20110128.143332	20110128.143428	single-task	8	0.013327	60	0	60-180	60	174	NoGap	1	7	2	45	1	target	1	1600	200	701	13.328	12.879	13.773
DTProbeTrack03	20	ProbeTrackDT	1.1	SCS215a	20110128.143332	20110128.143435	single-task	8	0.013327	60	0	60-180	60	134	NoGap	1	8	2	9	0	distractor	1	1093	454	1155	13.328	13.286	13.371
DTProbeTrack03	20	ProbeTrackDT	1.1	SCS215a	20110128.143332	20110128.143442	single-task	8	0.013327	60	0	60-180	60	142	NoGap	1	9	2	45	0	distractor	1	1093	454	1609	13.328	12.913	13.743
DTProbeTrack03	20	ProbeTrackDT	1.1	SCS215a	20110128.143332	20110128.143449	single-task	8	0.013327	60	0	60-180	60	119	NoGap	1	10	2	6	1	target	1	1067	467	2076	13.328	13.085	13.562
DTProbeTrack03	20	ProbeTrackDT	1.1	SCS215a	20110128.143332	20110128.143455	single-task	8	0.013327	60	0	60-180	60	160	NoGap	1	11	2	6	1	target	1	960	520	2596	13.328	12.900	13.751
DTProbeTrack03	20	ProbeTrackDT	1.1	SCS215a	20110128.143332	20110128.143501	single-task	8	0.013327	60	0	60-180	60	156	NoGap	1	12	2	3	1	target	1	1120	440	3036	13.328	12.978	13.672
DTProbeTrack03	20	ProbeTrackDT	1.1	SCS215a	20110128.143332	20110128.143508	single-task	8	0.013327	60	0	60-180	60	127	NoGap	1	13	2	45	1	target	1	1440	280	3316	13.328	13.011	13.645
DTProbeTrack03	20	ProbeTrackDT	1.1	SCS215a	20110128.143332	20110128.143515	single-task	8	0.013327	60	0	60-180	60	164	NoGap	1	14	2	45	1	target	1	1280	360	3676	13.328	13.092	13.543
DTProbeTrack03	20	ProbeTrackDT	1.1	SCS215a	20110128.143332	20110128.143523	single-task	8	0.013327	60	0	60-180	60	80	NoGap	1	15	2	3	1	target	1	1520	240	3916	13.327	13.099	13.568
DTProbeTrack03	20	ProbeTrackDT	1.1	SCS215a	20110128.143332	20110128.143528	single-task	8	0.013327	60	0	60-180	60	107	NoGap	1	16	2	45	0	distractor	1	1067	467	4383	13.374	12.847	26.652
DTProbeTrack03	20	ProbeTrackDT	1.1	SCS215a	20110128.143332	20110128.143535	single-task	8	0.013327	60	0	60-180	60	133	NoGap	1	17	2	1	1	target	1	1466	267	4650	13.328	13.010	13.618
DTProbeTrack03	20	ProbeTrackDT	1.1	SCS215a	20110128.143332	20110128.143542	single-task	8	0.013327	60	0	60-180	60	133	NoGap	1	18	2	45	0	distractor	1	1067	467	5117	13.328	12.864	13.787
DTProbeTrack03	20	ProbeTrackDT	1.1	SCS215a	20110128.143332	20110128.143548	single-task	8	0.013327	60	0	60-180	60	170	NoGap	1	19	2	3	1	target	1	1107	447	5564	13.328	13.096	13.553
DTProbeTrack03	20	ProbeTrackDT	1.1	SCS215a	20110128.143332	20110128.143555	single-task	8	0.013327	60	0	60-180	60	93	NoGap	1	20	2	6	0	distractor	1	1946	27	5591	13.328	13.141	13.493
DTProbeTrack03	20	ProbeTrackDT	1.1	SCS215a	20110128.143332	20110128.143602	single-task	8	0.013327	60	0	60-180	60	76	NoGap	1	21	2	1	0	distractor	1	1293	354	5945	13.328	13.310	13.348
DTProbeTrack03	20	ProbeTrackDT	1.1	SCS215a	20110128.143332	20110128.143607	single-task	8	0.013327	60	0	60-180	60	124	NoGap	1	22	2	45	1	target	1	1333	334	6279	13.328	12.912	13.752
DTProbeTrack03	20	ProbeTrackDT	1.1	SCS215a	20110128.143332	20110128.143614	single-task	8	0.013327	60	0	60-180	60	79	NoGap	1	23	2	6	1	target	1	1893	54	6333	13.328	13.275	13.375
DTProbeTrack03	20	ProbeTrackDT	1.1	SCS215a	20110128.143332	20110128.143621	single-task	8	0.013327	60	0	60-180	60	126	NoGap	1	24	2	9	0	distractor	1	1013	494	6827	13.328	12.896	13.759
DTProbeTrack03	20	ProbeTrackDT	1.1	SCS215a	20110128.143332	20110128.143627	single-task	8	0.013327	60	0	60-180	60	81	NoGap	1	25	2	1	0	distractor	1	827	587	7414	13.328	13.109	13.552
DTProbeTrack03	20	ProbeTrackDT	1.1	SCS215a	20110128.143332	20110128.143632	single-task	8	0.013327	60	0	60-180	60	93	NoGap	1	26	2	1	0	distractor	1	907	547	7961	13.328	13.094	13.559
DTProbeTrack03	20	ProbeTrackDT	1.1	SCS215a	20110128.143332	20110128.143638	single-task	8	0.013327	60	0	60-180	60	78	NoGap	1	27	2	3	0	distractor	1	1520	240	8201	13.328	13.156	13.496
DTProbeTrack03	20	ProbeTrackDT	1.1	SCS215a	20110128.143332	20110128.143643	single-task	8	0.013327	60	0	60-180	60	103	NoGap	1	28	2	3	1	target	1	893	554	8755	13.328	12.969	13.673
DTProbeTrack03	20	ProbeTrackDT	1.1	SCS215a	20110128.143332	20110128.143649	single-task	8	0.013327	60	0	60-180	60	177	NoGap	1	29	2	3	0	distractor	1	1053	474	9229	13.328	12.868	13.802
DTProbeTrack03	20	ProbeTrackDT	1.1	SCS215a	20110128.143332	20110128.143656	single-task	8	0.013327	60	0	60-180	60	115	NoGap	1	30	2	1	1	target	1	907	547	9776	13.328	12.873	13.785
DTProbeTrack03	20	ProbeTrackDT	1.1	SCS215a	20110128.143332	20110128.143702	single-task	8	0.013327	60	0	60-180	60	154	NoGap	1	31	2	3	0	distractor	1	1107	447	10223	13.328	13.024	13.634
DTProbeTrack03	20	ProbeTrackDT	1.1	SCS215a	20110128.143332	20110128.143708	single-task	8	0.013327	60	0	60-180	60	135	NoGap	1	32	2	1	0	distractor	1	1093	454	10677	13.328	13.081	13.564
DTProbeTrack03	20	ProbeTrackDT	1.1	SCS215a	20110128.143332	20110128.143715	single-task	8	0.013327	60	0	60-180	60	151	NoGap	1	33	2	6	0	distractor	1	1400	300	10977	13.328	13.268	13.389
DTProbeTrack03	20	ProbeTrackDT	1.1	SCS215a	20110128.143332	20110128.143721	single-task	8	0.013327	60	0	60-180	60	170	NoGap	1	34	2	1	1	target	1	1093	454	11431	13.328	13.028	13.616
DTProbeTrack03	20	ProbeTrackDT	1.1	SCS215a	20110128.143332	20110128.143728	single-task	8	0.013327	60	0	60-180	60	160	NoGap	1	35	2	9	1	target	1	1426	287	11718	13.328	13.083	13.556
DTProbeTrack03	20	ProbeTrackDT	1.1	SCS215a	20110128.143332	20110128.143735	single-task	8	0.013327	60	0	60-180	60	120	NoGap	1	36	2	6	0	distractor	1	1040	480	12198	13.328	13.097	13.550
DTProbeTrack03	20	ProbeTrackDT	1.1	SCS215a	20110128.143332	20110128.143741	single-task	8	0.013327	60	0	60-180	60	75	NoGap	1	37	2	6	0	distractor	1	853	574	12772	13.328	12.976	13.690
DTProbeTrack03	20	ProbeTrackDT	1.1	SCS215a	20110128.143332	20110128.143746	single-task	8	0.013327	60	0	60-180	60	72	NoGap	1	38	2	9	0	distractor	1	1093	454	13226	13.328	13.306	13.356
DTProbeTrack03	20	ProbeTrackDT	1.1	SCS215a	20110128.143332	20110128.143752	single-task	8	0.013327	60	0	60-180	60	97	NoGap	1	39	2	9	0	distractor	1	1293	354	13580	13.328	13.307	13.348
DTProbeTrack03	20	ProbeTrackDT	1.1	SCS215a	20110128.143332	20110128.143758	single-task	8	0.013327	60	0	60-180	60	111	NoGap	1	40	2	9	1	target	1	987	507	14087	13.328	13.106	13.555
DTProbeTrack03	20	ProbeTrackDT	1.1	SCS215a	20110128.143854	20110128.143904	single-task	8	0.013327	60	10	60-180	60	94	GapPrac	1	1	2	6	1	target	1	1453	274	14361	13.328	12.888	13.767
DTProbeTrack03	20	ProbeTrackDT	1.1	SCS215a	20110128.143854	20110128.143910	single-task	8	0.013327	60	10	60-180	60	172	GapPrac	1	2	2	6	0	distractor	1	1013	494	14855	13.328	12.929	13.736
DTProbeTrack03	20	ProbeTrackDT	1.1	SCS215a	20110128.143854	20110128.143917	single-task	8	0.013327	60	10	60-180	60	131	GapPrac	1	3	2	45	0	distractor	1	1133	434	15289	13.328	12.912	13.755
DTProbeTrack03	20	ProbeTrackDT	1.1	SCS215a	20110128.143854	20110128.143924	single-task	8	0.013327	60	10	60-180	60	171	GapPrac	1	4	2	9	1	target	1	1160	420	15709	13.328	13.115	13.547
DTProbeTrack03	20	ProbeTrackDT	1.1	SCS215a	20110128.143854	20110128.143931	single-task	8	0.013327	60	10	60-180	60	84	GapPrac	1	5	2	9	0	distractor	1	1160	420	16129	13.328	13.308	13.349
DTProbeTrack03	20	ProbeTrackDT	1.1	SCS215a	20110128.143854	20110128.143937	single-task	8	0.013327	60	10	60-180	60	96	GapPrac	1	6	2	45	0	target	0	973	-1000	15129	13.328	13.000	13.662
DTProbeTrack03	20	ProbeTrackDT	1.1	SCS215a	20110128.143854	20110128.143943	single-task	8	0.013327	60	10	60-180	60	148	GapPrac	1	7	2	6	0	target	0	1240	-1000	14129	13.328	13.049	13.600
DTProbeTrack03	20	ProbeTrackDT	1.1	SCS215a	20110128.143854	20110128.143950	single-task	8	0.013327	60	10	60-180	60	136	GapPrac	1	8	2	1	0	distractor	1	1160	420	14549	13.328	13.103	13.552
DTProbeTrack03	20	ProbeTrackDT	1.1	SCS215a	20110128.143854	20110128.143956	single-task	8	0.013327	60	10	60-180	60	92	GapPrac	1	9	2	9	0	distractor	1	1186	407	14956	13.328	13.097	13.565
DTProbeTrack03	20	ProbeTrackDT	1.1	SCS215a	20110128.143854	20110128.144002	single-task	8	0.013327	60	10	60-180	60	126	GapPrac	1	10	2	1	1	target	1	1040	480	15436	13.328	12.915	13.743
DTProbeTrack03	20	ProbeTrackDT	1.1	SCS215a	20110128.143854	20110128.144008	single-task	8	0.013327	60	10	60-180	60	145	GapPrac	1	11	2	1	0	distractor	1	1133	434	15870	13.328	12.860	13.788
DTProbeTrack03	20	ProbeTrackDT	1.1	SCS215a	20110128.143854	20110128.144015	single-task	8	0.013327	60	10	60-180	60	154	GapPrac	1	12	2	45	1	target	1	787	607	16477	13.328	13.091	13.558
DTProbeTrack03	20	ProbeTrackDT	1.1	SCS215a	20110128.143854	20110128.144022	single-task	8	0.013327	60	10	60-180	60	179	GapPrac	1	13	2	6	1	target	1	920	540	17017	13.328	12.885	13.559
DTProbeTrack03	20	ProbeTrackDT	1.1	SCS215a	20110128.143854	20110128.144029	single-task	8	0.013327	60	10	60-180	60	180	GapPrac	1	14	2	3	1	target	1	1107	447	17464	13.328	13.110	13.548
DTProbeTrack03	20	ProbeTrackDT	1.1	SCS215a	20110128.143854	20110128.144036	single-task	8	0.013327	60	10	60-180	60	164	GapPrac	1	15	2	3	0	distractor	1	1147	427	17891	13.328	13.107	13.544
DTProbeTrack03	20	ProbeTrackDT	1.1	SCS215a	20110128.143854	20110128.144043	single-task	8	0.013327	60	10	60-180	60	96	GapPrac	1	16	2	3	1	target	1	1013	494	18385	13.328	12.982	13.671
DTProbeTrack03	20	ProbeTrackDT	1.1	SCS215a	20110128.143854	20110128.144048	single-task	8	0.013327	60	10	60-180	60	119	GapPrac	1	17	2	1	1	target	1	1040	480	18865	13.328	13.084	13.579
DTProbeTrack03	20	ProbeTrackDT	1.1	SCS215a	20110128.143854	20110128.144054	single-task	8	0.013327	60	10	60-180	60	116	GapPrac	1	18	2	9	1	target	1	1107	447	19312	13.328	13.308	13.346
DTProbeTrack03	20	ProbeTrackDT	1.1	SCS215a	20110128.143854	20110128.144101	single-task	8	0.013327	60	10	60-180	60	144	GapPrac	1	19	2	45	1	target	1	1040	480	19792	13.328	12.973	13.671
DTProbeTrack03	20	ProbeTrackDT	1.1	SCS215a	20110128.143854	20110128.144108	single-task	8	0.013327	60	10	60-180	60	65	GapPrac	1	20	2	3	0	target	0	1413	-1000	18792	13.328	13.308	13.344
DTProbeTrack03	20	ProbeTrackDT	1.1	SCS215a	20110128.144217	20110128.144227	single-task	8	0.013328	60	10	60-180	60	164	GapExp	1	1	2	45	0	distractor	1	1013	494	19286	13.328	13.116	13.519
DTProbeTrack03	20	ProbeTrackDT	1.1	SCS215a	20110128.144217	20110128.144234	single-task	8	0.013328	60	10	60-180	60	115	GapExp	1	2	2	9	1	target	1	1080	460	19746	13.328	13.307	13.346
DTProbeTrack03	20	ProbeTrackDT	1.1	SCS215a	20110128.144217	20110128.144241	single-task	8	0.013328	60	10	60-180	60	71	GapExp	1	3	2	9	0	distractor	1	1053	474	20220	13.328	12.922	13.738
DTProbeTrack03	20	ProbeTrackDT	1.1	SCS215a	20110128.144217	20110128.144246	single-task	8	0.013328	60	10	60-180	60	92	GapExp	1	4	2	3	1	target	1	827	587	20807	13.328	13.137	13.524
DTProbeTrack03	20	ProbeTrackDT	1.1	SCS215a	20110128.144217	20110128.144252	single-task	8	0.013328	60	10	60-180	60	84	GapExp	1	5	2	1	1	target	1	1120	440	21247	13.328	12.938	13.718
DTProbeTrack03	20	ProbeTrackDT	1.1	SCS215a	20110128.144217	20110128.144257	single-task	8	0.013328	60	10	60-180	60	91	GapExp	0	6	2	9	1	target	1	1133	434	21681	13.328	12.889	13.758
DTProbeTrack03	20	ProbeTrackDT	1.1	SCS215a	20110128.144217	20110128.144303	single-task	8	0.013328	60	10	60-180	60	78	GapExp	0	7	2	6	1	target	1	987	507	22188	13.328	13.075	13.589
DTProbeTrack03	20	ProbeTrackDT	1.1	SCS215a	20110128.144217	20110128.144309	single-task	8	0.013328	60	10	60-180	60	109	GapExp	0	8	2	3	0	distractor	1	1107	447	22635	13.328	13.233	13.426
DTProbeTrack03	20	ProbeTrackDT	1.1	SCS215a	20110128.144217	20110128.144315	single-task	8	0.013328	60	10	60-180	60	130	GapExp	0	9	2	1	0	distractor	1	853	574	23209	13.328	12.872	13.790
DTProbeTrack03	20	ProbeTrackDT	1.1	SCS215a	20110128.144217	20110128.144321	single-task	8	0.013328	60	10	60-180	60	148	GapExp	0	10	2	6	1	target	1	1893	54	23263	13.328	12.895	13.771
DTProbeTrack03	20	ProbeTrackDT	1.1	SCS215a	20110128.144217	20110128.144328	single-task	8	0.013328	60	10	60-180	60	92	GapExp	0	11	2	45	1	target	1	1933	34	23297	13.328	12.851	13.804
DTProbeTrack03	20	ProbeTrackDT	1.1	SCS215a	20110128.144217	20110128.144336	single-task	8	0.013328	60	10	60-180	60	130	GapExp	0	12	2	45	1	target	1	534	733	24030	13.328	13.307	13.348
DTProbeTrack03	20	ProbeTrackDT	1.1	SCS215a	20110128.144217	20110128.144342	single-task	8	0.013328	60	10	60-180	60	74	GapExp	0	13	2	6	1	target	1	1107	447	24477	13.328	13.017	13.654
DTProbeTrack03	20	ProbeTrackDT	1.1	SCS215a	20110128.144217	20110128.144347	single-task	8	0.013328	60	10	60-180	60	97	GapExp	0	14	2	45	1	target	1	653	674	25151	13.328	13.099	13.556
DTProbeTrack03	20	ProbeTrackDT	1.1	SCS215a	20110128.144217	20110128.144353	single-task	8	0.013328	60	10	60-180	60	158	GapExp	0	15	2	6	1	target	1	1093	454	25605	13.328	13.062	13.664
DTProbeTrack03	20	ProbeTrackDT	1.1	SCS215a	20110128.144217	20110128.144400	single-task	8	0.013328	60	10	60-180	60	100	GapExp	0	16	2	45	1	target	1	747	627	26232	13.328	13.105	13.551
DTProbeTrack03	20	ProbeTrackDT	1.1	SCS215a	20110128.144217	20110128.144406	single-task	8	0.013328	60	10	60-180	60	86	GapExp	0	17	2	9	0	distractor	1	1493	254	26486	13.328	13.104	13.557
DTProbeTrack03	20	ProbeTrackDT	1.1	SCS215a	20110128.144217	20110128.144413	single-task	8	0.013328	60	10	60-180	60	132	GapExp	0	18	2	3	0	distractor	1	1506	247	26733	13.328	13.080	13.566
DTProbeTrack03	20	ProbeTrackDT	1.1	SCS215a	20110128.144217	20110128.144419	single-task	8	0.013328	60	10	60-180	60	93	GapExp	0	19	2	9	0	distractor	1	813	594	27327	13.328	12.850	13.806
DTProbeTrack03	20	ProbeTrackDT	1.1	SCS215a	20110128.144217	20110128.144425	single-task	8	0.013328	60	10	60-180	60	140	GapExp	0	20	2	45	0	target	0	973	-1000	26327	13.328	13.308	13.344
DTProbeTrack03	20	ProbeTrackDT	1.1	SCS215a	20110128.144217	20110128.144432	single-task	8	0.013328	60	10	60-180	60	114	GapExp	0	21	2	1	1	target	1	1240	380	26707	13.328	13.059	13.597
DTProbeTrack03	20	ProbeTrackDT	1.1	SCS215a	20110128.144217	20110128.144438	single-task	8	0.013328	60	10	60-180	60	179	GapExp	0	22	2	1	0	distractor	1	1200	400	27107	13.328	12.962	13.685
DTProbeTrack03	20	ProbeTrackDT	1.1	SCS215a	20110128.144217	20110128.144445	single-task	8	0.013328	60	10	60-180	60	164	GapExp	0	23	2	1	1	target	1	1000	500	27607	13.328	12.953	13.708
DTProbeTrack03	20	ProbeTrackDT	1.1	SCS215a	20110128.144217	20110128.144452	single-task	8	0.013328	60	10	60-180	60	118	GapExp	0	24	2	6	0	target	0	880	-1000	26607	13.328	12.869	13.790
DTProbeTrack03	20	ProbeTrackDT	1.1	SCS215a	20110128.144217	20110128.144458	single-task	8	0.013328	60	10	60-180	60	83	GapExp	0	25	2	1	0	target	0	2506	-1000	25607	13.328	12.885	13.754
DTProbeTrack03	20	ProbeTrackDT	1.1	SCS215a	20110128.144217	20110128.144505	single-task	8	0.013328	60	10	60-180	60	109	GapExp	0	26	2	9	1	target	1	1213	394	26001	13.328	13.006	13.637
DTProbeTrack03	20	ProbeTrackDT	1.1	SCS215a	20110128.144217	20110128.144511	single-task	8	0.013328	60	10	60-180	60	128	GapExp	0	27	2	9	0	distractor	1	893	554	26555	13.328	13.113	13.553
DTProbeTrack03	20	ProbeTrackDT	1.1	SCS215a	20110128.144217	20110128.144517	single-task	8	0.013328	60	10	60-180	60	110	GapExp	0	28	2	3	0	distractor	1	1186	407	26962	13.328	12.922	13.738
DTProbeTrack03	20	ProbeTrackDT	1.1	SCS215a	20110128.144217	20110128.144523	single-task	8	0.013328	60	10	60-180	60	139	GapExp	0	29	2	9	0	distractor	1	1000	500	27462	13.328	12.928	13.733
DTProbeTrack03	20	ProbeTrackDT	1.1	SCS215a	20110128.144217	20110128.144530	single-task	8	0.013328	60	10	60-180	60	169	GapExp	0	30	2	6	0	distractor	1	813	594	28056	13.328	13.309	13.344
DTProbeTrack03	20	ProbeTrackDT	1.1	SCS215a	20110128.144217	20110128.144536	single-task	8	0.013328	60	10	60-180	60	172	GapExp	0	31	2	9	1	target	1	1080	460	28516	13.328	13.099	13.556
DTProbeTrack03	20	ProbeTrackDT	1.1	SCS215a	20110128.144217	20110128.144543	single-task	8	0.013328	60	10	60-180	60	122	GapExp	0	32	2	3	1	target	1	760	620	29136	13.328	13.310	13.345
DTProbeTrack03	20	ProbeTrackDT	1.1	SCS215a	20110128.144217	20110128.144549	single-task	8	0.013328	60	10	60-180	60	147	GapExp	0	33	2	6	0	target	0	2839	-1000	28136	13.328	13.294	13.357
DTProbeTrack03	20	ProbeTrackDT	1.1	SCS215a	20110128.144217	20110128.144557	single-task	8	0.013328	60	10	60-180	60	145	GapExp	0	34	2	3	1	distractor	0	760	-1000	27136	13.328	12.984	13.665
DTProbeTrack03	20	ProbeTrackDT	1.1	SCS215a	20110128.144217	20110128.144603	single-task	8	0.013328	60	10	60-180	60	168	GapExp	0	35	2	3	1	target	1	600	700	27836	13.328	12.877	13.778
DTProbeTrack03	20	ProbeTrackDT	1.1	SCS215a	20110128.144217	20110128.144610	single-task	8	0.013328	60	10	60-180	60	146	GapExp	0	36	2	45	1	target	1	920	540	28376	13.328	13.152	13.506
DTProbeTrack03	20	ProbeTrackDT	1.1	SCS215a	20110128.144217	20110128.144617	single-task	8	0.013328	60	10	60-180	60	177	GapExp	0	37	2	3	1	target	1	773	614	28990	13.328	12.941	13.710
DTProbeTrack03	20	ProbeTrackDT	1.1	SCS215a	20110128.144217	20110128.144623	single-task	8	0.013328	60	10	60-180	60	132	GapExp	0	38	2	1	0	target	0	1333	-1000	27990	13.328	12.874	13.773
DTProbeTrack03	20	ProbeTrackDT	1.1	SCS215a	20110128.144217	20110128.144630	single-task	8	0.013328	60	10	60-180	60	136	GapExp	0	39	2	1	0	target	0	1573	-1000	26990	13.328	13.303	13.347
DTProbeTrack03	20	ProbeTrackDT	1.1	SCS215a	20110128.144217	20110128.144637	single-task	8	0.013328	60	10	60-180	60	90	GapExp	0	40	2	9	1	target	1	653	674	27664	13.328	13.291	13.373
DTProbeTrack03	20	ProbeTrackDT	1.1	SCS215a	20110128.144217	20110128.144642	single-task	8	0.013328	60	10	60-180	60	144	GapExp	0	41	2	9	0	distractor	1	1107	447	28111	13.328	13.307	13.346
DTProbeTrack03	20	ProbeTrackDT	1.1	SCS215a	20110128.144217	20110128.144649	single-task	8	0.013328	60	10	60-180	60	166	GapExp	0	42	2	6	0	distractor	1	1027	487	28598	13.328	13.055	13.589
DTProbeTrack03	20	ProbeTrackDT	1.1	SCS215a	20110128.144217	20110128.144656	single-task	8	0.013328	60	10	60-180	60	179	GapExp	0	43	2	1	1	target	1	1506	247	28845	13.328	12.854	13.807
DTProbeTrack03	20	ProbeTrackDT	1.1	SCS215a	20110128.144217	20110128.144703	single-task	8	0.013328	60	10	60-180	60	94	GapExp	0	44	2	1	0	distractor	1	2266	0	28845	13.328	13.089	13.559
DTProbeTrack03	20	ProbeTrackDT	1.1	SCS215a	20110128.144217	20110128.144710	single-task	8	0.013328	60	10	60-180	60	91	GapExp	0	45	2	6	0	distractor	1	707	647	29492	13.328	13.094	13.561
DTProbeTrack03	20	ProbeTrackDT	1.1	SCS215a	20110128.144217	20110128.144715	single-task	8	0.013328	60	10	60-180	60	71	GapExp	0	46	2	3	0	distractor	1	1107	447	29939	13.328	12.926	13.730
DTProbeTrack03	20	ProbeTrackDT	1.1	SCS215a	20110128.144217	20110128.144721	single-task	8	0.013328	60	10	60-180	60	129	GapExp	0	47	2	9	1	target	1	827	587	30526	13.328	13.304	13.349
DTProbeTrack03	20	ProbeTrackDT	1.1	SCS215a	20110128.144217	20110128.144727	single-task	8	0.013328	60	10	60-180	60	106	GapExp	0	48	2	3	1	target	1	1200	400	30926	13.328	13.305	13.348
DTProbeTrack03	20	ProbeTrackDT	1.1	SCS215a	20110128.144217	20110128.144733	single-task	8	0.013328	60	10	60-180	60	102	GapExp	0	49	2	45	0	distractor	1	520	740	31666	13.328	12.967	13.687
DTProbeTrack03	20	ProbeTrackDT	1.1	SCS215a	20110128.144217	20110128.144739	single-task	8	0.013328	60	10	60-180	60	174	GapExp	0	50	2	45	1	target	1	667	667	32333	13.328	12.846	13.800
DTProbeTrack03	20	ProbeTrackDT	1.1	SCS215a	20110128.144217	20110128.144814	single-task	8	0.013328	60	10	60-180	60	155	GapExp	0	51	2	3	1	target	1	827	587	32920	13.328	13.107	13.561
DTProbeTrack03	20	ProbeTrackDT	1.1	SCS215a	20110128.144217	20110128.144820	single-task	8	0.013328	60	10	60-180	60	73	GapExp	0	52	2	45	1	target	1	1386	307	33227	13.328	13.132	13.524
DTProbeTrack03	20	ProbeTrackDT	1.1	SCS215a	20110128.144217	20110128.144827	single-task	8	0.013328	60	10	60-180	60	70	GapExp	0	53	2	3	1	target	1	1346	327	33554	13.328	12.845	13.768
DTProbeTrack03	20	ProbeTrackDT	1.1	SCS215a	20110128.144217	20110128.144832	single-task	8	0.013328	60	10	60-180	60	123	GapExp	0	54	2	6	0	distractor	1	1253	374	33928	13.328	13.074	13.577
DTProbeTrack03	20	ProbeTrackDT	1.1	SCS215a	20110128.144217	20110128.144839	single-task	8	0.013328	60	10	60-180	60	139	GapExp	0	55	2	6	1	target	1	853	574	34502	13.328	13.046	13.615
DTProbeTrack03	20	ProbeTrackDT	1.1	SCS215a	20110128.144217	20110128.144845	single-task	8	0.013328	60	10	60-180	60	137	GapExp	0	56	2	1	1	target	1	787	607	35109	13.328	12.873	13.781
DTProbeTrack03	20	ProbeTrackDT	1.1	SCS215a	20110128.144217	20110128.144851	single-task	8	0.013328	60	10	60-180	60	72	GapExp	0	57	2	1	0	distractor	1	1266	367	35476	13.328	12.853	13.804
DTProbeTrack03	20	ProbeTrackDT	1.1	SCS215a	20110128.144217	20110128.144857	single-task	8	0.013328	60	10	60-180	60	162	GapExp	0	58	2	9	0	distractor	1	973	514	35990	13.328	12.939	13.720
DTProbeTrack03	20	ProbeTrackDT	1.1	SCS215a	20110128.144217	20110128.144904	single-task	8	0.013328	60	10	60-180	60	168	GapExp	0	59	2	9	0	distractor	1	1027	487	36477	13.328	12.886	13.763
DTProbeTrack03	20	ProbeTrackDT	1.1	SCS215a	20110128.144217	20110128.144910	single-task	8	0.013328	60	10	60-180	60	99	GapExp	0	60	2	1	0	distractor	1	800	600	37077	13.328	12.872	13.782
DTProbeTrack03	20	ProbeTrackDT	1.1	SCS215a	20110128.144217	20110128.144916	single-task	8	0.013328	60	10	60-180	60	95	GapExp	0	61	2	6	1	target	1	853	574	37651	13.328	13.058	13.591
DTProbeTrack03	20	ProbeTrackDT	1.1	SCS215a	20110128.144217	20110128.144921	single-task	8	0.013328	60	10	60-180	60	172	GapExp	0	62	2	3	1	target	1	1333	334	37985	13.328	13.097	13.601
DTProbeTrack03	20	ProbeTrackDT	1.1	SCS215a	20110128.144217	20110128.144929	single-task	8	0.013328	60	10	60-180	60	137	GapExp	0	63	2	3	1	target	1	840	580	38565	13.328	12.849	13.815
DTProbeTrack03	20	ProbeTrackDT	1.1	SCS215a	20110128.144217	20110128.144935	single-task	8	0.013328	60	10	60-180	60	141	GapExp	0	64	2	9	1	target	1	694	653	39218	13.328	13.091	13.712
DTProbeTrack03	20	ProbeTrackDT	1.1	SCS215a	20110128.144217	20110128.144941	single-task	8	0.013328	60	10	60-180	60	149	GapExp	0	65	2	45	1	target	1	827	587	39805	13.328	12.988	13.675
DTProbeTrack03	20	ProbeTrackDT	1.1	SCS215a	20110128.144217	20110128.144948	single-task	8	0.013328	60	10	60-180	60	112	GapExp	0	66	2	1	1	target	1	1226	387	40192	13.328	13.286	13.373
DTProbeTrack03	20	ProbeTrackDT	1.1	SCS215a	20110128.144217	20110128.144954	single-task	8	0.013328	60	10	60-180	60	127	GapExp	0	67	2	6	0	distractor	1	1027	487	40679	13.328	12.917	13.741
DTProbeTrack03	20	ProbeTrackDT	1.1	SCS215a	20110128.144217	20110128.145000	single-task	8	0.013328	60	10	60-180	60	132	GapExp	0	68	2	6	1	target	1	973	514	41193	13.328	13.137	13.526
DTProbeTrack03	20	ProbeTrackDT	1.1	SCS215a	20110128.144217	20110128.145006	single-task	8	0.013328	60	10	60-180	60	143	GapExp	0	69	2	1	1	target	1	1040	480	41673	13.328	12.936	13.727
DTProbeTrack03	20	ProbeTrackDT	1.1	SCS215a	20110128.144217	20110128.145013	single-task	8	0.013328	60	10	60-180	60	100	GapExp	0	70	2	3	1	target	1	1093	454	42127	13.328	13.027	13.623
DTProbeTrack03	20	ProbeTrackDT	1.1	SCS215a	20110128.144217	20110128.145018	single-task	8	0.013328	60	10	60-180	60	115	GapExp	0	71	2	6	0	distractor	1	800	600	42727	13.328	12.897	13.755
DTProbeTrack03	20	ProbeTrackDT	1.1	SCS215a	20110128.144217	20110128.145024	single-task	8	0.013328	60	10	60-180	60	121	GapExp	0	72	2	3	0	distractor	1	920	540	43267	13.328	12.940	13.710
DTProbeTrack03	20	ProbeTrackDT	1.1	SCS215a	20110128.144217	20110128.145030	single-task	8	0.013328	60	10	60-180	60	76	GapExp	0	73	2	1	0	distractor	1	1440	280	43547	13.328	12.888	13.765
DTProbeTrack03	20	ProbeTrackDT	1.1	SCS215a	20110128.144217	20110128.145036	single-task	8	0.013328	60	10	60-180	60	136	GapExp	0	74	2	9	0	distractor	1	680	660	44207	13.328	12.934	13.720
DTProbeTrack03	20	ProbeTrackDT	1.1	SCS215a	20110128.144217	20110128.145042	single-task	8	0.013328	60	10	60-180	60	160	GapExp	0	75	2	1	1	target	1	1240	380	44587	13.328	12.932	13.738
DTProbeTrack03	20	ProbeTrackDT	1.1	SCS215a	20110128.144217	20110128.145049	single-task	8	0.013328	60	10	60-180	60	120	GapExp	0	76	2	1	1	target	1	813	594	45181	13.328	13.057	13.612
DTProbeTrack03	20	ProbeTrackDT	1.1	SCS215a	20110128.144217	20110128.145055	single-task	8	0.013328	60	10	60-180	60	123	GapExp	0	77	2	6	1	target	1	787	607	45788	13.328	12.986	13.664
DTProbeTrack03	20	ProbeTrackDT	1.1	SCS215a	20110128.144217	20110128.145101	single-task	8	0.013328	60	10	60-180	60	134	GapExp	0	78	2	6	0	distractor	1	587	707	46495	13.328	13.036	13.603
DTProbeTrack03	20	ProbeTrackDT	1.1	SCS215a	20110128.144217	20110128.145106	single-task	8	0.013328	60	10	60-180	60	135	GapExp	0	79	2	3	0	distractor	1	840	580	47075	13.328	12.927	13.735
DTProbeTrack03	20	ProbeTrackDT	1.1	SCS215a	20110128.144217	20110128.145112	single-task	8	0.013328	60	10	60-180	60	165	GapExp	0	80	2	3	0	distractor	1	1067	467	47542	13.328	12.850	13.811
DTProbeTrack03	20	ProbeTrackDT	1.1	SCS215a	20110128.144217	20110128.145119	single-task	8	0.013328	60	10	60-180	60	72	GapExp	0	81	2	6	1	distractor	0	1080	-1000	46542	13.328	13.066	13.598
DTProbeTrack03	20	ProbeTrackDT	1.1	SCS215a	20110128.144217	20110128.145125	single-task	8	0.013328	60	10	60-180	60	74	GapExp	0	82	2	3	0	distractor	1	1320	340	46882	13.328	12.901	13.753
DTProbeTrack03	20	ProbeTrackDT	1.1	SCS215a	20110128.144217	20110128.145131	single-task	8	0.013328	60	10	60-180	60	136	GapExp	0	83	2	9	0	distractor	1	1253	374	47256	13.328	12.875	13.776
DTProbeTrack03	20	ProbeTrackDT	1.1	SCS215a	20110128.144217	20110128.145137	single-task	8	0.013328	60	10	60-180	60	62	GapExp	0	84	2	1	1	target	1	1346	327	47583	13.328	12.890	13.757
DTProbeTrack03	20	ProbeTrackDT	1.1	SCS215a	20110128.144217	20110128.145143	single-task	8	0.013328	60	10	60-180	60	66	GapExp	0	85	2	9	0	distractor	1	1027	487	48070	13.328	13.087	13.555
DTProbeTrack03	20	ProbeTrackDT	1.1	SCS215a	20110128.144217	20110128.145148	single-task	8	0.013328	60	10	60-180	60	73	GapExp	0	86	2	3	1	target	1	1373	314	48384	13.328	12.988	13.675
DTProbeTrack03	20	ProbeTrackDT	1.1	SCS215a	20110128.144217	20110128.145154	single-task	8	0.013328	60	10	60-180	60	162	GapExp	0	87	2	3	0	distractor	1	1480	260	48644	13.328	13.020	13.629
DTProbeTrack03	20	ProbeTrackDT	1.1	SCS215a	20110128.144217	20110128.145201	single-task	8	0.013328	60	10	60-180	60	89	GapExp	0	88	2	1	1	target	1	987	507	49151	13.328	13.293	13.362
DTProbeTrack03	20	ProbeTrackDT	1.1	SCS215a	20110128.144217	20110128.145207	single-task	8	0.013328	60	10	60-180	60	121	GapExp	0	89	2	1	0	distractor	1	1093	454	49605	13.328	13.061	13.595
DTProbeTrack03	20	ProbeTrackDT	1.1	SCS215a	20110128.144217	20110128.145213	single-task	8	0.013328	60	10	60-180	60	67	GapExp	0	90	2	9	0	distractor	1	880	560	50165	13.328	13.307	13.345
DTProbeTrack03	20	ProbeTrackDT	1.1	SCS215a	20110128.144217	20110128.145218	single-task	8	0.013328	60	10	60-180	60	84	GapExp	0	91	2	6	0	distractor	1	760	620	50785	13.328	13.016	13.645
DTProbeTrack03	20	ProbeTrackDT	1.1	SCS215a	20110128.144217	20110128.145223	single-task	8	0.013328	60	10	60-180	60	173	GapExp	0	92	2	6	0	distractor	1	880	560	51345	13.328	13.097	13.557
DTProbeTrack03	20	ProbeTrackDT	1.1	SCS215a	20110128.144217	20110128.145230	single-task	8	0.013328	60	10	60-180	60	179	GapExp	0	93	2	3	0	distractor	1	1560	220	51565	13.328	13.110	13.547
DTProbeTrack03	20	ProbeTrackDT	1.1	SCS215a	20110128.144217	20110128.145238	single-task	8	0.013328	60	10	60-180	60	116	GapExp	0	94	2	45	0	target	0	1013	-1000	50565	13.328	12.902	13.756
DTProbeTrack03	20	ProbeTrackDT	1.1	SCS215a	20110128.144217	20110128.145244	single-task	8	0.013328	60	10	60-180	60	126	GapExp	0	95	2	9	0	distractor	1	827	587	51152	13.328	13.045	13.559
DTProbeTrack03	20	ProbeTrackDT	1.1	SCS215a	20110128.144217	20110128.145250	single-task	8	0.013328	60	10	60-180	60	149	GapExp	0	96	2	1	0	distractor	1	1027	487	51639	13.328	13.304	13.348
DTProbeTrack03	20	ProbeTrackDT	1.1	SCS215a	20110128.144217	20110128.145257	single-task	8	0.013328	60	10	60-180	60	143	GapExp	0	97	2	45	0	target	0	1013	-1000	50639	13.328	12.851	13.805
DTProbeTrack03	20	ProbeTrackDT	1.1	SCS215a	20110128.144217	20110128.145304	single-task	8	0.013328	60	10	60-180	60	163	GapExp	0	98	2	45	1	target	1	853	574	51213	13.328	12.980	13.676
DTProbeTrack03	20	ProbeTrackDT	1.1	SCS215a	20110128.144217	20110128.145311	single-task	8	0.013328	60	10	60-180	60	175	GapExp	0	99	2	6	0	distractor	1	827	587	51800	13.328	12.906	13.752
DTProbeTrack03	20	ProbeTrackDT	1.1	SCS215a	20110128.144217	20110128.145317	single-task	8	0.013328	60	10	60-180	60	111	GapExp	0	100	2	45	0	target	0	760	-1000	50800	13.328	13.301	13.357
DTProbeTrack03	20	ProbeTrackDT	1.1	SCS215a	20110128.144217	20110128.145429	single-task	8	0.013328	60	10	60-180	60	173	GapExp	0	101	2	45	1	target	1	640	680	51480	13.328	12.860	13.792
DTProbeTrack03	20	ProbeTrackDT	1.1	SCS215a	20110128.144217	20110128.145436	single-task	8	0.013328	60	10	60-180	60	130	GapExp	0	102	2	6	1	target	1	667	667	52147	13.328	12.866	13.804
DTProbeTrack03	20	ProbeTrackDT	1.1	SCS215a	20110128.144217	20110128.145442	single-task	8	0.013328	60	10	60-180	60	132	GapExp	0	103	2	9	0	target	0	973	-1000	51147	13.328	12.968	13.689
DTProbeTrack03	20	ProbeTrackDT	1.1	SCS215a	20110128.144217	20110128.145449	single-task	8	0.013328	60	10	60-180	60	130	GapExp	0	104	2	1	1	target	1	773	614	51761	13.328	12.919	13.736
DTProbeTrack03	20	ProbeTrackDT	1.1	SCS215a	20110128.144217	20110128.145454	single-task	8	0.013328	60	10	60-180	60	157	GapExp	0	105	2	45	0	target	0	1213	-1000	50761	13.366	13.050	26.293
DTProbeTrack03	20	ProbeTrackDT	1.1	SCS215a	20110128.144217	20110128.145502	single-task	8	0.013328	60	10	60-180	60	80	GapExp	0	106	2	9	1	distractor	0	773	-1000	49761	13.328	13.305	13.346
DTProbeTrack03	20	ProbeTrackDT	1.1	SCS215a	20110128.144217	20110128.145507	single-task	8	0.013328	60	10	60-180	60	135	GapExp	0	107	2	6	1	target	1	627	687	50448	13.328	13.016	13.641
DTProbeTrack03	20	ProbeTrackDT	1.1	SCS215a	20110128.144217	20110128.145513	single-task	8	0.013328	60	10	60-180	60	91	GapExp	0	108	2	9	0	distractor	1	1080	460	50908	13.328	13.031	13.612
DTProbeTrack03	20	ProbeTrackDT	1.1	SCS215a	20110128.144217	20110128.145519	single-task	8	0.013328	60	10	60-180	60	107	GapExp	0	109	2	9	1	target	1	1133	434	51342	13.328	13.041	13.596
DTProbeTrack03	20	ProbeTrackDT	1.1	SCS215a	20110128.144217	20110128.145525	single-task	8	0.013328	60	10	60-180	60	69	GapExp	0	110	2	3	0	target	0	1253	-1000	50342	13.328	13.081	13.580
DTProbeTrack03	20	ProbeTrackDT	1.1	SCS215a	20110128.144217	20110128.145531	single-task	8	0.013328	60	10	60-180	60	117	GapExp	0	111	2	3	0	distractor	1	827	587	50929	13.328	13.311	13.345
DTProbeTrack03	20	ProbeTrackDT	1.1	SCS215a	20110128.144217	20110128.145537	single-task	8	0.013328	60	10	60-180	60	104	GapExp	0	112	2	3	0	distractor	1	1000	500	51429	13.328	13.298	13.356
DTProbeTrack03	20	ProbeTrackDT	1.1	SCS215a	20110128.144217	20110128.145543	single-task	8	0.013328	60	10	60-180	60	100	GapExp	0	113	2	45	1	target	1	587	707	52136	13.327	13.305	13.354
DTProbeTrack03	20	ProbeTrackDT	1.1	SCS215a	20110128.144217	20110128.145549	single-task	8	0.013328	60	10	60-180	60	150	GapExp	0	114	2	3	0	target	0	880	-1000	51136	13.328	13.115	13.547
DTProbeTrack03	20	ProbeTrackDT	1.1	SCS215a	20110128.144217	20110128.145555	single-task	8	0.013328	60	10	60-180	60	85	GapExp	0	115	2	45	0	target	0	907	-1000	50136	13.328	13.031	13.621
DTProbeTrack03	20	ProbeTrackDT	1.1	SCS215a	20110128.144217	20110128.145601	single-task	8	0.013328	60	10	60-180	60	125	GapExp	0	116	2	6	0	distractor	1	867	567	50703	13.328	13.042	13.627
DTProbeTrack03	20	ProbeTrackDT	1.1	SCS215a	20110128.144217	20110128.145607	single-task	8	0.013328	60	10	60-180	60	111	GapExp	0	117	2	45	0	distractor	1	760	620	51323	13.328	12.834	13.813
DTProbeTrack03	20	ProbeTrackDT	1.1	SCS215a	20110128.144217	20110128.145613	single-task	8	0.013328	60	10	60-180	60	140	GapExp	0	118	2	45	1	distractor	0	947	-1000	50323	13.328	12.865	13.795
DTProbeTrack03	20	ProbeTrackDT	1.1	SCS215a	20110128.144217	20110128.145620	single-task	8	0.013328	60	10	60-180	60	125	GapExp	0	119	2	6	1	target	1	853	574	50897	13.328	12.913	13.733
DTProbeTrack03	20	ProbeTrackDT	1.1	SCS215a	20110128.144217	20110128.145626	single-task	8	0.013328	60	10	60-180	60	170	GapExp	0	120	2	45	0	distractor	1	853	574	51471	13.328	12.865	13.804
DTProbeTrack03	20	ProbeTrackDT	1.1	SCS215a	20110128.144217	20110128.145633	single-task	8	0.013328	60	10	60-180	60	126	GapExp	0	121	2	45	0	distractor	1	1173	414	51885	13.328	12.857	13.798
DTProbeTrack03	20	ProbeTrackDT	1.1	SCS215a	20110128.144217	20110128.145640	single-task	8	0.013328	60	10	60-180	60	103	GapExp	0	122	2	9	1	target	1	1213	394	52279	13.328	13.289	13.366
DTProbeTrack03	20	ProbeTrackDT	1.1	SCS215a	20110128.144217	20110128.145646	single-task	8	0.013328	60	10	60-180	60	85	GapExp	0	123	2	9	1	target	1	747	627	52906	13.328	12.915	13.743
DTProbeTrack03	20	ProbeTrackDT	1.1	SCS215a	20110128.144217	20110128.145652	single-task	8	0.013328	60	10	60-180	60	127	GapExp	0	124	2	9	1	target	1	627	687	53593	13.328	13.028	13.642
DTProbeTrack03	20	ProbeTrackDT	1.1	SCS215a	20110128.144217	20110128.145657	single-task	8	0.013328	60	10	60-180	60	82	GapExp	0	125	2	3	1	target	1	3026	0	53593	13.328	13.098	13.553
DTProbeTrack03	20	ProbeTrackDT	1.1	SCS215a	20110128.144217	20110128.145705	single-task	8	0.013328	60	10	60-180	60	117	GapExp	0	126	2	45	1	target	1	480	760	54353	13.328	12.887	13.782
DTProbeTrack03	20	ProbeTrackDT	1.1	SCS215a	20110128.144217	20110128.145711	single-task	8	0.013328	60	10	60-180	60	133	GapExp	0	127	2	1	0	target	0	1320	-1000	53353	13.328	12.866	13.782
DTProbeTrack03	20	ProbeTrackDT	1.1	SCS215a	20110128.144217	20110128.145718	single-task	8	0.013328	60	10	60-180	60	82	GapExp	0	128	2	9	1	target	1	787	607	53960	13.328	13.081	13.580
DTProbeTrack03	20	ProbeTrackDT	1.1	SCS215a	20110128.144217	20110128.145723	single-task	8	0.013328	60	10	60-180	60	149	GapExp	0	129	2	1	0	distractor	1	1306	347	54307	13.328	12.963	13.700
DTProbeTrack03	20	ProbeTrackDT	1.1	SCS215a	20110128.144217	20110128.145730	single-task	8	0.013328	60	10	60-180	60	146	GapExp	0	130	2	1	1	target	1	893	554	54861	13.328	12.857	13.792
DTProbeTrack03	20	ProbeTrackDT	1.1	SCS215a	20110128.144217	20110128.145736	single-task	8	0.013328	60	10	60-180	60	128	GapExp	0	131	2	9	1	target	1	800	600	55461	13.328	12.895	13.777
DTProbeTrack03	20	ProbeTrackDT	1.1	SCS215a	20110128.144217	20110128.145742	single-task	8	0.013328	60	10	60-180	60	180	GapExp	0	132	2	3	0	distractor	1	947	527	55988	13.328	12.873	13.792
DTProbeTrack03	20	ProbeTrackDT	1.1	SCS215a	20110128.144217	20110128.145749	single-task	8	0.013328	60	10	60-180	60	152	GapExp	0	133	2	1	1	distractor	0	1107	-1000	54988	13.328	13.309	13.346
DTProbeTrack03	20	ProbeTrackDT	1.1	SCS215a	20110128.144217	20110128.145755	single-task	8	0.013328	60	10	60-180	60	171	GapExp	0	134	2	45	0	distractor	1	520	740	55728	13.328	12.875	13.780
DTProbeTrack03	20	ProbeTrackDT	1.1	SCS215a	20110128.144217	20110128.145802	single-task	8	0.013328	60	10	60-180	60	61	GapExp	0	135	2	3	0	distractor	1	907	547	56275	13.328	12.881	13.776
DTProbeTrack03	20	ProbeTrackDT	1.1	SCS215a	20110128.144217	20110128.145807	single-task	8	0.013328	60	10	60-180	60	177	GapExp	0	136	2	9	1	target	1	1733	134	56409	13.368	13.101	26.802
DTProbeTrack03	20	ProbeTrackDT	1.1	SCS215a	20110128.144217	20110128.145815	single-task	8	0.013328	60	10	60-180	60	145	GapExp	0	137	2	1	0	distractor	1	1373	314	56723	13.328	12.860	13.789
DTProbeTrack03	20	ProbeTrackDT	1.1	SCS215a	20110128.144217	20110128.145822	single-task	8	0.013328	60	10	60-180	60	175	GapExp	0	138	2	1	1	target	1	827	587	57310	13.328	12.833	13.817
DTProbeTrack03	20	ProbeTrackDT	1.1	SCS215a	20110128.144217	20110128.145828	single-task	8	0.013328	60	10	60-180	60	93	GapExp	0	139	2	1	0	distractor	1	720	640	57950	13.328	12.919	13.744
DTProbeTrack03	20	ProbeTrackDT	1.1	SCS215a	20110128.144217	20110128.145834	single-task	8	0.013328	60	10	60-180	60	164	GapExp	0	140	2	45	0	distractor	1	640	680	58630	13.328	12.873	13.777
DTProbeTrack03	20	ProbeTrackDT	1.1	SCS215a	20110128.144217	20110128.145840	single-task	8	0.013328	60	10	60-180	60	68	GapExp	0	141	2	9	0	distractor	1	1280	360	58990	13.328	13.081	13.570
DTProbeTrack03	20	ProbeTrackDT	1.1	SCS215a	20110128.144217	20110128.145846	single-task	8	0.013328	60	10	60-180	60	70	GapExp	0	142	2	3	1	target	1	1746	127	59117	13.328	13.305	13.346
DTProbeTrack03	20	ProbeTrackDT	1.1	SCS215a	20110128.144217	20110128.145852	single-task	8	0.013328	60	10	60-180	60	151	GapExp	0	143	2	6	0	distractor	1	800	600	59717	13.328	13.297	13.360
DTProbeTrack03	20	ProbeTrackDT	1.1	SCS215a	20110128.144217	20110128.145859	single-task	8	0.013328	60	10	60-180	60	66	GapExp	0	144	2	9	0	distractor	1	653	674	60391	13.328	13.311	13.348
DTProbeTrack03	20	ProbeTrackDT	1.1	SCS215a	20110128.144217	20110128.145904	single-task	8	0.013328	60	10	60-180	60	84	GapExp	0	145	2	45	0	distractor	1	680	660	61051	13.328	13.083	13.554
DTProbeTrack03	20	ProbeTrackDT	1.1	SCS215a	20110128.144217	20110128.145909	single-task	8	0.013328	60	10	60-180	60	104	GapExp	0	146	2	3	1	distractor	0	1960	-1000	60051	13.328	12.972	13.685
DTProbeTrack03	20	ProbeTrackDT	1.1	SCS215a	20110128.144217	20110128.145916	single-task	8	0.013328	60	10	60-180	60	180	GapExp	0	147	2	45	1	distractor	0	947	-1000	59051	13.328	13.106	13.551
DTProbeTrack03	20	ProbeTrackDT	1.1	SCS215a	20110128.144217	20110128.145924	single-task	8	0.013328	60	10	60-180	60	119	GapExp	0	148	2	45	0	distractor	1	1040	480	59531	13.328	13.030	13.643
DTProbeTrack03	20	ProbeTrackDT	1.1	SCS215a	20110128.144217	20110128.145930	single-task	8	0.013328	60	10	60-180	60	174	GapExp	0	149	2	9	1	target	1	1240	380	59911	13.328	13.103	13.558
DTProbeTrack03	20	ProbeTrackDT	1.1	SCS215a	20110128.144217	20110128.145937	single-task	8	0.013328	60	10	60-180	60	80	GapExp	0	150	2	3	1	target	1	733	634	60545	13.328	13.066	13.584
DTProbeTrack03	20	ProbeTrackDT	1.1	SCS215a	20110128.144217	20110128.150009	single-task	8	0.013328	60	10	60-180	60	115	GapExp	0	151	2	6	0	target	0	893	-1000	59545	13.328	13.302	13.354
DTProbeTrack03	20	ProbeTrackDT	1.1	SCS215a	20110128.144217	20110128.150015	single-task	8	0.013328	60	10	60-180	60	173	GapExp	0	152	2	6	1	target	1	653	674	60219	13.328	12.983	13.672
DTProbeTrack03	20	ProbeTrackDT	1.1	SCS215a	20110128.144217	20110128.150021	single-task	8	0.013328	60	10	60-180	60	109	GapExp	0	153	2	9	1	distractor	0	1200	-1000	59219	13.328	13.106	13.561
DTProbeTrack03	20	ProbeTrackDT	1.1	SCS215a	20110128.144217	20110128.150027	single-task	8	0.013328	60	10	60-180	60	63	GapExp	0	154	2	45	0	distractor	1	1093	454	59673	13.328	13.105	13.559
DTProbeTrack03	20	ProbeTrackDT	1.1	SCS215a	20110128.144217	20110128.150033	single-task	8	0.013328	60	10	60-180	60	145	GapExp	0	155	2	45	1	target	1	1293	354	60027	13.328	12.955	13.708
DTProbeTrack03	20	ProbeTrackDT	1.1	SCS215a	20110128.144217	20110128.150040	single-task	8	0.013328	60	10	60-180	60	121	GapExp	0	156	2	3	1	target	1	867	567	60594	13.328	12.932	13.705
DTProbeTrack03	20	ProbeTrackDT	1.1	SCS215a	20110128.144217	20110128.150046	single-task	8	0.013328	60	10	60-180	60	141	GapExp	0	157	2	9	1	distractor	0	880	-1000	59594	13.328	13.306	13.350
DTProbeTrack03	20	ProbeTrackDT	1.1	SCS215a	20110128.144217	20110128.150052	single-task	8	0.013328	60	10	60-180	60	134	GapExp	0	158	2	1	1	target	1	600	700	60294	13.328	13.124	13.518
DTProbeTrack03	20	ProbeTrackDT	1.1	SCS215a	20110128.144217	20110128.150058	single-task	8	0.013328	60	10	60-180	60	78	GapExp	0	159	2	45	0	distractor	1	707	647	60941	13.328	13.289	13.365
DTProbeTrack03	20	ProbeTrackDT	1.1	SCS215a	20110128.144217	20110128.150104	single-task	8	0.013328	60	10	60-180	60	161	GapExp	0	160	2	3	1	target	1	853	574	61515	13.328	12.937	13.720
DTProbeTrack03	20	ProbeTrackDT	1.1	SCS215a	20110128.144217	20110128.150110	single-task	8	0.013328	60	10	60-180	60	159	GapExp	0	161	2	9	0	distractor	1	800	600	62115	13.328	13.086	13.555
DTProbeTrack03	20	ProbeTrackDT	1.1	SCS215a	20110128.144217	20110128.150117	single-task	8	0.013328	60	10	60-180	60	124	GapExp	0	162	2	45	1	target	1	454	773	62888	13.328	12.925	13.717
DTProbeTrack03	20	ProbeTrackDT	1.1	SCS215a	20110128.144217	20110128.150123	single-task	8	0.013328	60	10	60-180	60	86	GapExp	0	163	2	45	1	target	1	773	614	63502	13.328	13.102	13.544
DTProbeTrack03	20	ProbeTrackDT	1.1	SCS215a	20110128.144217	20110128.150129	single-task	8	0.013328	60	10	60-180	60	180	GapExp	0	164	2	9	1	target	1	1213	394	63896	13.328	12.961	13.692
DTProbeTrack03	20	ProbeTrackDT	1.1	SCS215a	20110128.144217	20110128.150136	single-task	8	0.013328	60	10	60-180	60	70	GapExp	0	165	2	3	0	distractor	1	867	567	64463	13.328	13.304	13.355
DTProbeTrack03	20	ProbeTrackDT	1.1	SCS215a	20110128.144217	20110128.150141	single-task	8	0.013328	60	10	60-180	60	92	GapExp	0	166	2	9	0	distractor	1	653	674	65137	13.328	13.096	13.547
DTProbeTrack03	20	ProbeTrackDT	1.1	SCS215a	20110128.144217	20110128.150147	single-task	8	0.013328	60	10	60-180	60	123	GapExp	0	167	2	3	0	distractor	1	747	627	65764	13.328	12.877	13.795
DTProbeTrack03	20	ProbeTrackDT	1.1	SCS215a	20110128.144217	20110128.150152	single-task	8	0.013328	60	10	60-180	60	85	GapExp	0	168	2	1	1	distractor	0	1160	-1000	64764	13.328	12.932	13.718
DTProbeTrack03	20	ProbeTrackDT	1.1	SCS215a	20110128.144217	20110128.150158	single-task	8	0.013328	60	10	60-180	60	150	GapExp	0	169	2	6	1	target	1	560	720	65484	13.328	13.112	13.545
DTProbeTrack03	20	ProbeTrackDT	1.1	SCS215a	20110128.144217	20110128.150204	single-task	8	0.013328	60	10	60-180	60	110	GapExp	0	170	2	6	0	distractor	1	640	680	66164	13.328	12.910	13.734
DTProbeTrack03	20	ProbeTrackDT	1.1	SCS215a	20110128.144217	20110128.150210	single-task	8	0.013328	60	10	60-180	60	116	GapExp	0	171	2	9	0	distractor	1	1040	480	66644	13.328	12.882	13.761
DTProbeTrack03	20	ProbeTrackDT	1.1	SCS215a	20110128.144217	20110128.150216	single-task	8	0.013328	60	10	60-180	60	71	GapExp	0	172	2	1	0	distractor	1	787	607	67251	13.328	13.118	13.545
DTProbeTrack03	20	ProbeTrackDT	1.1	SCS215a	20110128.144217	20110128.150221	single-task	8	0.013328	60	10	60-180	60	159	GapExp	0	173	2	1	1	target	1	587	707	67958	13.328	12.933	13.737
DTProbeTrack03	20	ProbeTrackDT	1.1	SCS215a	20110128.144217	20110128.150227	single-task	8	0.013328	60	10	60-180	60	172	GapExp	0	174	2	1	0	distractor	1	600	700	68658	13.328	12.911	13.742
DTProbeTrack03	20	ProbeTrackDT	1.1	SCS215a	20110128.144217	20110128.150234	single-task	8	0.013328	60	10	60-180	60	103	GapExp	0	175	2	6	0	distractor	1	707	647	69305	13.328	13.098	13.559
DTProbeTrack03	20	ProbeTrackDT	1.1	SCS215a	20110128.144217	20110128.150239	single-task	8	0.013328	60	10	60-180	60	172	GapExp	0	176	2	3	1	target	1	800	600	69905	13.328	13.041	13.609
DTProbeTrack03	20	ProbeTrackDT	1.1	SCS215a	20110128.144217	20110128.150246	single-task	8	0.013328	60	10	60-180	60	170	GapExp	0	177	2	6	1	target	1	534	733	70638	13.328	12.855	13.799
DTProbeTrack03	20	ProbeTrackDT	1.1	SCS215a	20110128.144217	20110128.150252	single-task	8	0.013328	60	10	60-180	60	102	GapExp	0	178	2	6	1	target	1	1013	494	71132	13.328	13.035	13.622
DTProbeTrack03	20	ProbeTrackDT	1.1	SCS215a	20110128.144217	20110128.150258	single-task	8	0.013328	60	10	60-180	60	149	GapExp	0	179	2	9	0	distractor	1	707	647	71779	13.328	13.040	13.625
DTProbeTrack03	20	ProbeTrackDT	1.1	SCS215a	20110128.144217	20110128.150304	single-task	8	0.013328	60	10	60-180	60	82	GapExp	0	180	2	9	1	distractor	0	1187	-1000	70779	13.328	13.307	13.346
DTProbeTrack03	20	ProbeTrackDT	1.1	SCS215a	20110128.144217	20110128.150310	single-task	8	0.013328	60	10	60-180	60	154	GapExp	0	181	2	45	0	distractor	1	600	700	71479	13.328	13.116	13.543
DTProbeTrack03	20	ProbeTrackDT	1.1	SCS215a	20110128.144217	20110128.150317	single-task	8	0.013328	60	10	60-180	60	154	GapExp	0	182	2	6	1	target	1	973	514	71993	13.328	13.098	13.559
DTProbeTrack03	20	ProbeTrackDT	1.1	SCS215a	20110128.144217	20110128.150323	single-task	8	0.013328	60	10	60-180	60	157	GapExp	0	183	2	6	1	target	1	707	647	72640	13.328	12.892	13.769
DTProbeTrack03	20	ProbeTrackDT	1.1	SCS215a	20110128.144217	20110128.150329	single-task	8	0.013328	60	10	60-180	60	80	GapExp	0	184	2	45	1	distractor	0	680	-1000	71640	13.328	13.030	13.638
DTProbeTrack03	20	ProbeTrackDT	1.1	SCS215a	20110128.144217	20110128.150335	single-task	8	0.013328	60	10	60-180	60	154	GapExp	0	185	2	1	0	distractor	1	787	607	72247	13.328	13.006	13.644
DTProbeTrack03	20	ProbeTrackDT	1.1	SCS215a	20110128.144217	20110128.150341	single-task	8	0.013328	60	10	60-180	60	85	GapExp	0	186	2	3	1	distractor	0	760	-1000	71247	13.328	12.959	13.706
DTProbeTrack03	20	ProbeTrackDT	1.1	SCS215a	20110128.144217	20110128.150347	single-task	8	0.013328	60	10	60-180	60	156	GapExp	0	187	2	45	0	target	0	907	-1000	70247	13.328	13.307	13.345
DTProbeTrack03	20	ProbeTrackDT	1.1	SCS215a	20110128.144217	20110128.150354	single-task	8	0.013328	60	10	60-180	60	79	GapExp	0	188	2	3	1	target	1	1093	454	70701	13.328	13.309	13.348
DTProbeTrack03	20	ProbeTrackDT	1.1	SCS215a	20110128.144217	20110128.150359	single-task	8	0.013328	60	10	60-180	60	137	GapExp	0	189	2	9	1	target	1	747	627	71328	13.328	13.071	13.586
DTProbeTrack03	20	ProbeTrackDT	1.1	SCS215a	20110128.144217	20110128.150405	single-task	8	0.013328	60	10	60-180	60	101	GapExp	0	190	2	45	1	target	1	907	547	71875	13.328	13.055	13.599
DTProbeTrack03	20	ProbeTrackDT	1.1	SCS215a	20110128.144217	20110128.150412	single-task	8	0.013328	60	10	60-180	60	117	GapExp	0	191	2	1	0	distractor	1	787	607	72482	13.328	13.111	13.545
DTProbeTrack03	20	ProbeTrackDT	1.1	SCS215a	20110128.144217	20110128.150417	single-task	8	0.013328	60	10	60-180	60	68	GapExp	0	192	2	6	1	target	1	947	527	73009	13.328	13.307	13.348
DTProbeTrack03	20	ProbeTrackDT	1.1	SCS215a	20110128.144217	20110128.150423	single-task	8	0.013328	60	10	60-180	60	176	GapExp	0	193	2	45	0	distractor	1	693	654	73663	13.328	13.293	13.362
DTProbeTrack03	20	ProbeTrackDT	1.1	SCS215a	20110128.144217	20110128.150430	single-task	8	0.013328	60	10	60-180	60	95	GapExp	0	194	2	6	0	distractor	1	827	587	74250	13.328	13.307	13.345
DTProbeTrack03	20	ProbeTrackDT	1.1	SCS215a	20110128.144217	20110128.150435	single-task	8	0.013328	60	10	60-180	60	110	GapExp	0	195	2	1	1	target	1	1560	220	74470	13.328	13.307	13.348
DTProbeTrack03	20	ProbeTrackDT	1.1	SCS215a	20110128.144217	20110128.150442	single-task	8	0.013328	60	10	60-180	60	167	GapExp	0	196	2	3	0	distractor	1	2439	0	74470	13.328	13.106	13.556
DTProbeTrack03	20	ProbeTrackDT	1.1	SCS215a	20110128.144217	20110128.150450	single-task	8	0.013328	60	10	60-180	60	78	GapExp	0	197	2	45	0	distractor	1	534	733	75203	13.328	12.913	13.744
DTProbeTrack03	20	ProbeTrackDT	1.1	SCS215a	20110128.144217	20110128.150455	single-task	8	0.013328	60	10	60-180	60	114	GapExp	0	198	2	3	0	target	0	3306	-1000	74203	13.328	12.915	13.753
DTProbeTrack03	20	ProbeTrackDT	1.1	SCS215a	20110128.144217	20110128.150504	single-task	8	0.013328	60	10	60-180	60	96	GapExp	0	199	2	6	1	target	1	574	713	74916	13.328	12.928	13.765
DTProbeTrack03	20	ProbeTrackDT	1.1	SCS215a	20110128.144217	20110128.150509	single-task	8	0.013328	60	10	60-180	60	173	GapExp	0	200	2	1	0	distractor	1	680	660	75576	13.328	12.840	13.815
DTProbeTrack03	20	ProbeTrackDT	1.1	SCS215a	20110128.144217	20110128.150543	single-task	8	0.013328	60	10	60-180	60	138	GapExp	0	201	2	6	0	distractor	1	640	680	76256	13.328	13.093	13.551
DTProbeTrack03	20	ProbeTrackDT	1.1	SCS215a	20110128.144217	20110128.150549	single-task	8	0.013328	60	10	60-180	60	157	GapExp	0	202	2	1	1	distractor	0	653	-1000	75256	13.328	13.073	13.593
DTProbeTrack03	20	ProbeTrackDT	1.1	SCS215a	20110128.144217	20110128.150555	single-task	8	0.013328	60	10	60-180	60	142	GapExp	0	203	2	6	0	distractor	1	653	674	75930	13.328	13.308	13.346
DTProbeTrack03	20	ProbeTrackDT	1.1	SCS215a	20110128.144217	20110128.150601	single-task	8	0.013328	60	10	60-180	60	61	GapExp	0	204	2	45	1	target	1	1053	474	76404	13.328	13.070	13.579
DTProbeTrack03	20	ProbeTrackDT	1.1	SCS215a	20110128.144217	20110128.150607	single-task	8	0.013328	60	10	60-180	60	81	GapExp	0	205	2	1	1	target	1	1413	294	76698	13.328	13.305	13.350
DTProbeTrack03	20	ProbeTrackDT	1.1	SCS215a	20110128.151047	20110128.151054	dt-generate	8	0.013328	60	10	60-180	60	82	GapPrac	1	1	2	3	1	distractor	0	853	-1000	75698	13.328	13.195	13.468
DTProbeTrack03	20	ProbeTrackDT	1.1	SCS215a	20110128.151047	20110128.151059	dt-generate	8	0.013328	60	10	60-180	60	147	GapPrac	1	2	2	6	0	target	0	1107	-1000	74698	13.328	12.846	13.792
DTProbeTrack03	20	ProbeTrackDT	1.1	SCS215a	20110128.151047	20110128.151106	dt-generate	8	0.013328	60	10	60-180	60	165	GapPrac	1	3	2	45	0	distractor	1	1760	120	74818	13.328	12.979	13.664
DTProbeTrack03	20	ProbeTrackDT	1.1	SCS215a	20110128.151047	20110128.151114	dt-generate	8	0.013328	60	10	60-180	60	122	GapPrac	1	4	2	1	1	target	1	1120	440	75258	13.328	13.091	13.564
DTProbeTrack03	20	ProbeTrackDT	1.1	SCS215a	20110128.151047	20110128.151120	dt-generate	8	0.013328	60	10	60-180	60	66	GapPrac	1	5	2	1	0	distractor	1	2133	0	75258	13.327	13.101	13.555
DTProbeTrack03	20	ProbeTrackDT	1.1	SCS215a	20110128.151047	20110128.151127	dt-generate	8	0.013328	60	10	60-180	60	148	GapPrac	1	6	2	45	0	distractor	1	2093	0	75258	13.328	13.099	13.565
DTProbeTrack03	20	ProbeTrackDT	1.1	SCS215a	20110128.151047	20110128.151135	dt-generate	8	0.013328	60	10	60-180	60	89	GapPrac	1	7	2	6	0	distractor	1	1186	407	75665	13.328	12.914	13.724
DTProbeTrack03	20	ProbeTrackDT	1.1	SCS215a	20110128.151047	20110128.151141	dt-generate	8	0.013328	60	10	60-180	60	93	GapPrac	1	8	2	45	1	distractor	0	1613	-1000	74665	13.328	13.305	13.348
DTProbeTrack03	20	ProbeTrackDT	1.1	SCS215a	20110128.151047	20110128.151147	dt-generate	8	0.013328	60	10	60-180	60	94	GapPrac	1	9	2	3	0	target	0	1933	-1000	73665	13.328	12.867	13.795
DTProbeTrack03	20	ProbeTrackDT	1.1	SCS215a	20110128.151047	20110128.151154	dt-generate	8	0.013328	60	10	60-180	60	111	GapPrac	1	10	2	9	1	target	1	2093	0	73665	13.328	13.098	13.558
DTProbeTrack03	20	ProbeTrackDT	1.1	SCS215a	20110128.151047	20110128.151201	dt-generate	8	0.013328	60	10	60-180	60	89	GapPrac	1	11	2	3	1	target	1	2826	0	73665	13.328	13.035	13.606
DTProbeTrack03	20	ProbeTrackDT	1.1	SCS215a	20110128.151047	20110128.151209	dt-generate	8	0.013328	60	10	60-180	60	70	GapPrac	1	12	2	1	1	distractor	0	5331	-1000	72665	13.328	12.893	13.765
DTProbeTrack03	20	ProbeTrackDT	1.1	SCS215a	20110128.151047	20110128.151218	dt-generate	8	0.013328	60	10	60-180	60	179	GapPrac	1	13	2	6	1	target	1	1600	200	72865	13.328	12.861	13.795
DTProbeTrack03	20	ProbeTrackDT	1.1	SCS215a	20110128.151047	20110128.151226	dt-generate	8	0.013328	60	10	60-180	60	159	GapPrac	1	14	2	9	1	target	1	-13	1007	73872	13.328	13.150	13.513
DTProbeTrack03	20	ProbeTrackDT	1.1	SCS215a	20110128.151047	20110128.151231	dt-generate	8	0.013328	60	10	60-180	60	94	GapPrac	1	15	2	9	0	target	0	1826	-1000	72872	13.328	13.245	13.411
DTProbeTrack03	20	ProbeTrackDT	1.1	SCS215a	20110128.151047	20110128.151238	dt-generate	8	0.013328	60	10	60-180	60	179	GapPrac	1	16	2	1	0	distractor	1	2426	0	72872	13.328	12.850	13.819
DTProbeTrack03	20	ProbeTrackDT	1.1	SCS215a	20110128.151047	20110128.151246	dt-generate	8	0.013328	60	10	60-180	60	88	GapPrac	1	17	2	45	1	target	1	1306	347	73219	13.328	12.903	13.744
DTProbeTrack03	20	ProbeTrackDT	1.1	SCS215a	20110128.151047	20110128.151253	dt-generate	8	0.013328	60	10	60-180	60	178	GapPrac	1	18	2	6	1	target	1	1333	334	73553	13.328	12.929	13.722
DTProbeTrack03	20	ProbeTrackDT	1.1	SCS215a	20110128.151047	20110128.151300	dt-generate	8	0.013328	60	10	60-180	60	126	GapPrac	1	19	2	9	0	target	0	2026	-1000	72553	13.328	12.961	13.695
DTProbeTrack03	20	ProbeTrackDT	1.1	SCS215a	20110128.151047	20110128.151307	dt-generate	8	0.013328	60	10	60-180	60	112	GapPrac	1	20	2	3	0	distractor	1	2026	0	72553	13.328	12.890	13.763
DTProbeTrack03	20	ProbeTrackDT	1.1	SCS215a	20110128.151349	20110128.151357	dt-generate	8	0.013327	60	10	60-180	60	100	GapExp	1	1	2	9	1	target	1	1573	214	72767	13.328	13.308	13.349
DTProbeTrack03	20	ProbeTrackDT	1.1	SCS215a	20110128.151349	20110128.151403	dt-generate	8	0.013327	60	10	60-180	60	67	GapExp	1	2	2	6	0	distractor	1	3226	0	72767	13.328	13.092	13.559
DTProbeTrack03	20	ProbeTrackDT	1.1	SCS215a	20110128.151349	20110128.151411	dt-generate	8	0.013327	60	10	60-180	60	158	GapExp	1	3	2	3	1	target	1	1107	447	73214	13.328	12.862	13.799
DTProbeTrack03	20	ProbeTrackDT	1.1	SCS215a	20110128.151349	20110128.151417	dt-generate	8	0.013327	60	10	60-180	60	114	GapExp	1	4	2	3	0	target	0	1400	-1000	72214	13.328	12.917	13.736
DTProbeTrack03	20	ProbeTrackDT	1.1	SCS215a	20110128.151349	20110128.151424	dt-generate	8	0.013327	60	10	60-180	60	151	GapExp	1	5	2	45	1	distractor	0	1466	-1000	71214	13.328	12.876	13.676
DTProbeTrack03	20	ProbeTrackDT	1.1	SCS215a	20110128.151349	20110128.151431	dt-generate	8	0.013327	60	10	60-180	60	149	GapExp	0	6	2	45	0	target	0	1826	-1000	70214	13.328	13.292	13.347
DTProbeTrack03	20	ProbeTrackDT	1.1	SCS215a	20110128.151349	20110128.151439	dt-generate	8	0.013327	60	10	60-180	60	99	GapExp	0	7	2	1	1	target	1	1160	420	70634	13.328	12.887	13.784
DTProbeTrack03	20	ProbeTrackDT	1.1	SCS215a	20110128.151349	20110128.151445	dt-generate	8	0.013327	60	10	60-180	60	93	GapExp	0	8	2	3	1	target	1	1680	160	70794	13.328	12.855	13.801
DTProbeTrack03	20	ProbeTrackDT	1.1	SCS215a	20110128.151349	20110128.151451	dt-generate	8	0.013327	60	10	60-180	60	117	GapExp	0	9	2	1	0	distractor	1	1120	440	71234	13.328	12.913	13.735
DTProbeTrack03	20	ProbeTrackDT	1.1	SCS215a	20110128.151349	20110128.151457	dt-generate	8	0.013327	60	10	60-180	60	164	GapExp	0	10	2	9	1	distractor	0	773	-1000	70234	13.328	13.008	13.630
DTProbeTrack03	20	ProbeTrackDT	1.1	SCS215a	20110128.151349	20110128.151504	dt-generate	8	0.013327	60	10	60-180	60	153	GapExp	0	11	2	1	0	distractor	1	1013	494	70728	13.328	12.927	13.736
DTProbeTrack03	20	ProbeTrackDT	1.1	SCS215a	20110128.151349	20110128.151510	dt-generate	8	0.013327	60	10	60-180	60	176	GapExp	0	12	2	3	0	target	0	707	-1000	69728	13.328	12.871	13.782
DTProbeTrack03	20	ProbeTrackDT	1.1	SCS215a	20110128.151349	20110128.151517	dt-generate	8	0.013327	60	10	60-180	60	79	GapExp	0	13	2	45	0	distractor	1	1067	467	70195	13.328	12.895	13.747
DTProbeTrack03	20	ProbeTrackDT	1.1	SCS215a	20110128.151349	20110128.151523	dt-generate	8	0.013327	60	10	60-180	60	149	GapExp	0	14	2	9	0	distractor	1	907	547	70742	13.328	12.991	13.656
DTProbeTrack03	20	ProbeTrackDT	1.1	SCS215a	20110128.151349	20110128.151529	dt-generate	8	0.013327	60	10	60-180	60	65	GapExp	0	15	2	1	0	distractor	1	3625	0	70742	13.328	13.080	13.575
DTProbeTrack03	20	ProbeTrackDT	1.1	SCS215a	20110128.151349	20110128.151537	dt-generate	8	0.013327	60	10	60-180	60	114	GapExp	0	16	2	9	1	distractor	0	1533	-1000	69742	13.328	13.019	13.652
DTProbeTrack03	20	ProbeTrackDT	1.1	SCS215a	20110128.151349	20110128.151544	dt-generate	8	0.013327	60	10	60-180	60	174	GapExp	0	17	2	6	1	target	1	907	547	70289	13.328	12.964	13.694
DTProbeTrack03	20	ProbeTrackDT	1.1	SCS215a	20110128.151349	20110128.151550	dt-generate	8	0.013327	60	10	60-180	60	106	GapExp	0	18	2	6	0	distractor	1	667	667	70956	13.328	12.943	13.708
DTProbeTrack03	20	ProbeTrackDT	1.1	SCS215a	20110128.151349	20110128.151556	dt-generate	8	0.013327	60	10	60-180	60	162	GapExp	0	19	2	1	1	target	1	507	747	71703	13.328	12.962	13.698
DTProbeTrack03	20	ProbeTrackDT	1.1	SCS215a	20110128.151349	20110128.151602	dt-generate	8	0.013327	60	10	60-180	60	75	GapExp	0	20	2	3	1	distractor	0	1173	-1000	70703	13.328	13.307	13.348
DTProbeTrack03	20	ProbeTrackDT	1.1	SCS215a	20110128.151349	20110128.151608	dt-generate	8	0.013327	60	10	60-180	60	161	GapExp	0	21	2	1	1	distractor	0	1386	-1000	69703	13.328	12.944	13.726
DTProbeTrack03	20	ProbeTrackDT	1.1	SCS215a	20110128.151349	20110128.151615	dt-generate	8	0.013327	60	10	60-180	60	158	GapExp	0	22	2	3	0	target	0	2533	-1000	68703	13.328	12.960	13.711
DTProbeTrack03	20	ProbeTrackDT	1.1	SCS215a	20110128.151349	20110128.151623	dt-generate	8	0.013327	60	10	60-180	60	69	GapExp	0	23	2	3	1	distractor	0	707	-1000	67703	13.328	13.307	13.347
DTProbeTrack03	20	ProbeTrackDT	1.1	SCS215a	20110128.151349	20110128.151628	dt-generate	8	0.013327	60	10	60-180	60	122	GapExp	0	24	2	3	1	distractor	0	733	-1000	66703	13.328	13.108	13.551
DTProbeTrack03	20	ProbeTrackDT	1.1	SCS215a	20110128.151349	20110128.151634	dt-generate	8	0.013327	60	10	60-180	60	142	GapExp	0	25	2	1	1	target	1	787	607	67310	13.328	12.846	13.817
DTProbeTrack03	20	ProbeTrackDT	1.1	SCS215a	20110128.151349	20110128.151640	dt-generate	8	0.013327	60	10	60-180	60	159	GapExp	0	26	2	45	1	distractor	0	920	-1000	66310	13.328	12.891	13.758
DTProbeTrack03	20	ProbeTrackDT	1.1	SCS215a	20110128.151349	20110128.151647	dt-generate	8	0.013327	60	10	60-180	60	94	GapExp	0	27	2	9	0	target	0	1160	-1000	65310	13.328	12.870	13.782
DTProbeTrack03	20	ProbeTrackDT	1.1	SCS215a	20110128.151349	20110128.151653	dt-generate	8	0.013327	60	10	60-180	60	75	GapExp	0	28	2	9	0	distractor	1	2306	0	65310	13.328	12.866	13.800
DTProbeTrack03	20	ProbeTrackDT	1.1	SCS215a	20110128.151349	20110128.151659	dt-generate	8	0.013327	60	10	60-180	60	76	GapExp	0	29	2	9	1	target	1	1586	207	65517	13.328	13.308	13.345
DTProbeTrack03	20	ProbeTrackDT	1.1	SCS215a	20110128.151349	20110128.151706	dt-generate	8	0.013327	60	10	60-180	60	148	GapExp	0	30	2	1	1	distractor	0	1533	-1000	64517	13.328	12.865	13.777
DTProbeTrack03	20	ProbeTrackDT	1.1	SCS215a	20110128.151349	20110128.151713	dt-generate	8	0.013327	60	10	60-180	60	140	GapExp	0	31	2	6	0	distractor	1	787	607	65124	13.328	13.052	13.608
DTProbeTrack03	20	ProbeTrackDT	1.1	SCS215a	20110128.151349	20110128.151719	dt-generate	8	0.013327	60	10	60-180	60	80	GapExp	0	32	2	3	1	target	1	1466	267	65391	13.328	13.118	13.545
DTProbeTrack03	20	ProbeTrackDT	1.1	SCS215a	20110128.151349	20110128.151725	dt-generate	8	0.013327	60	10	60-180	60	67	GapExp	0	33	2	45	1	target	1	653	674	66065	13.328	13.032	13.623
DTProbeTrack03	20	ProbeTrackDT	1.1	SCS215a	20110128.151349	20110128.151730	dt-generate	8	0.013327	60	10	60-180	60	134	GapExp	0	34	2	9	0	target	0	1533	-1000	65065	13.328	12.865	13.795
DTProbeTrack03	20	ProbeTrackDT	1.1	SCS215a	20110128.151349	20110128.151737	dt-generate	8	0.013327	60	10	60-180	60	128	GapExp	0	35	2	9	1	distractor	0	2026	-1000	64065	13.328	13.105	13.551
DTProbeTrack03	20	ProbeTrackDT	1.1	SCS215a	20110128.151349	20110128.151744	dt-generate	8	0.013327	60	10	60-180	60	106	GapExp	0	36	2	45	1	target	1	1840	80	64145	13.328	12.877	13.776
DTProbeTrack03	20	ProbeTrackDT	1.1	SCS215a	20110128.151349	20110128.151752	dt-generate	8	0.013327	60	10	60-180	60	105	GapExp	0	37	2	3	0	distractor	1	693	654	64799	13.328	13.106	13.552
DTProbeTrack03	20	ProbeTrackDT	1.1	SCS215a	20110128.151349	20110128.151757	dt-generate	8	0.013327	60	10	60-180	60	139	GapExp	0	38	2	1	1	target	1	933	534	65333	13.328	12.849	13.812
DTProbeTrack03	20	ProbeTrackDT	1.1	SCS215a	20110128.151349	20110128.151803	dt-generate	8	0.013327	60	10	60-180	60	160	GapExp	0	39	2	1	1	target	1	1013	494	65827	13.328	13.105	13.552
DTProbeTrack03	20	ProbeTrackDT	1.1	SCS215a	20110128.151349	20110128.151810	dt-generate	8	0.013327	60	10	60-180	60	77	GapExp	0	40	2	45	0	distractor	1	693	654	66481	13.327	13.305	13.346
DTProbeTrack03	20	ProbeTrackDT	1.1	SCS215a	20110128.151349	20110128.151816	dt-generate	8	0.013327	60	10	60-180	60	80	GapExp	0	41	2	45	0	target	0	1546	-1000	65481	13.328	12.985	13.673
DTProbeTrack03	20	ProbeTrackDT	1.1	SCS215a	20110128.151349	20110128.151822	dt-generate	8	0.013327	60	10	60-180	60	157	GapExp	0	42	2	3	1	distractor	0	747	-1000	64481	13.328	12.848	13.802
DTProbeTrack03	20	ProbeTrackDT	1.1	SCS215a	20110128.151349	20110128.151829	dt-generate	8	0.013327	60	10	60-180	60	82	GapExp	0	43	2	3	0	target	0	6518	-1000	63481	13.328	12.994	13.650
DTProbeTrack03	20	ProbeTrackDT	1.1	SCS215a	20110128.151349	20110128.151840	dt-generate	8	0.013327	60	10	60-180	60	72	GapExp	0	44	2	6	0	distractor	1	1333	334	63815	13.328	13.103	13.552
DTProbeTrack03	20	ProbeTrackDT	1.1	SCS215a	20110128.151349	20110128.151845	dt-generate	8	0.013327	60	10	60-180	60	105	GapExp	0	45	2	1	0	distractor	1	1773	114	63929	13.328	13.307	13.347
DTProbeTrack03	20	ProbeTrackDT	1.1	SCS215a	20110128.151349	20110128.151852	dt-generate	8	0.013327	60	10	60-180	60	139	GapExp	0	46	2	9	1	distractor	0	1240	-1000	62929	13.328	12.993	13.664
DTProbeTrack03	20	ProbeTrackDT	1.1	SCS215a	20110128.151349	20110128.151859	dt-generate	8	0.013327	60	10	60-180	60	113	GapExp	0	47	2	9	1	target	1	547	727	63656	13.328	13.308	13.346
DTProbeTrack03	20	ProbeTrackDT	1.1	SCS215a	20110128.151349	20110128.151904	dt-generate	8	0.013327	60	10	60-180	60	68	GapExp	0	48	2	1	1	distractor	0	2319	-1000	62656	13.328	13.013	13.650
DTProbeTrack03	20	ProbeTrackDT	1.1	SCS215a	20110128.151349	20110128.151911	dt-generate	8	0.013327	60	10	60-180	60	89	GapExp	0	49	2	6	0	target	0	1746	-1000	61656	13.328	12.992	13.649
DTProbeTrack03	20	ProbeTrackDT	1.1	SCS215a	20110128.151349	20110128.151917	dt-generate	8	0.013327	60	10	60-180	60	85	GapExp	0	50	2	1	0	distractor	1	2066	0	61656	13.328	13.097	13.564
DTProbeTrack03	20	ProbeTrackDT	1.1	SCS215a	20110128.151349	20110128.151942	dt-generate	8	0.013327	60	10	60-180	60	84	GapExp	0	51	2	45	0	distractor	1	1426	287	61943	13.328	13.310	13.345
DTProbeTrack03	20	ProbeTrackDT	1.1	SCS215a	20110128.151349	20110128.151948	dt-generate	8	0.013327	60	10	60-180	60	131	GapExp	0	52	2	6	1	target	1	920	540	62483	13.328	13.310	13.347
DTProbeTrack03	20	ProbeTrackDT	1.1	SCS215a	20110128.151349	20110128.151954	dt-generate	8	0.013327	60	10	60-180	60	125	GapExp	0	53	2	1	0	target	0	960	-1000	61483	13.328	12.955	13.699
DTProbeTrack03	20	ProbeTrackDT	1.1	SCS215a	20110128.151349	20110128.152000	dt-generate	8	0.013327	60	10	60-180	60	63	GapExp	0	54	2	3	1	distractor	0	1426	-1000	60483	13.327	13.144	13.522
DTProbeTrack03	20	ProbeTrackDT	1.1	SCS215a	20110128.151349	20110128.152006	dt-generate	8	0.013327	60	10	60-180	60	173	GapExp	0	55	2	45	0	target	0	1586	-1000	59483	13.328	12.958	13.691
DTProbeTrack03	20	ProbeTrackDT	1.1	SCS215a	20110128.151349	20110128.152014	dt-generate	8	0.013327	60	10	60-180	60	125	GapExp	0	56	2	3	1	target	1	1800	100	59583	13.328	12.863	13.805
DTProbeTrack03	20	ProbeTrackDT	1.1	SCS215a	20110128.151349	20110128.152021	dt-generate	8	0.013327	60	10	60-180	60	124	GapExp	0	57	2	3	1	distractor	0	1680	-1000	58583	13.328	12.984	13.676
DTProbeTrack03	20	ProbeTrackDT	1.1	SCS215a	20110128.151349	20110128.152028	dt-generate	8	0.013327	60	10	60-180	60	131	GapExp	0	58	2	9	1	target	1	667	667	59250	13.328	13.306	13.348
DTProbeTrack03	20	ProbeTrackDT	1.1	SCS215a	20110128.151349	20110128.152034	dt-generate	8	0.013327	60	10	60-180	60	64	GapExp	0	59	2	3	0	target	0	4892	-1000	58250	13.328	13.309	13.347
DTProbeTrack03	20	ProbeTrackDT	1.1	SCS215a	20110128.151349	20110128.152043	dt-generate	8	0.013327	60	10	60-180	60	131	GapExp	0	60	2	45	1	distractor	0	1386	-1000	57250	13.328	13.306	13.348
DTProbeTrack03	20	ProbeTrackDT	1.1	SCS215a	20110128.151349	20110128.152050	dt-generate	8	0.013327	60	10	60-180	60	70	GapExp	0	61	2	9	1	target	1	720	640	57890	13.328	13.307	13.349
DTProbeTrack03	20	ProbeTrackDT	1.1	SCS215a	20110128.151349	20110128.152055	dt-generate	8	0.013327	60	10	60-180	60	69	GapExp	0	62	2	9	1	target	1	1773	114	58004	13.328	13.009	13.648
DTProbeTrack03	20	ProbeTrackDT	1.1	SCS215a	20110128.151349	20110128.152101	dt-generate	8	0.013327	60	10	60-180	60	62	GapExp	0	63	2	6	0	distractor	1	827	587	58591	13.328	12.966	13.681
DTProbeTrack03	20	ProbeTrackDT	1.1	SCS215a	20110128.151349	20110128.152106	dt-generate	8	0.013327	60	10	60-180	60	138	GapExp	0	64	2	9	1	target	1	1840	80	58671	13.328	13.306	13.353
DTProbeTrack03	20	ProbeTrackDT	1.1	SCS215a	20110128.151349	20110128.152114	dt-generate	8	0.013327	60	10	60-180	60	116	GapExp	0	65	2	45	0	distractor	1	2413	0	58671	13.328	12.854	13.800
DTProbeTrack03	20	ProbeTrackDT	1.1	SCS215a	20110128.151349	20110128.152122	dt-generate	8	0.013327	60	10	60-180	60	127	GapExp	0	66	2	1	0	target	0	1160	-1000	57671	13.328	12.924	13.747
DTProbeTrack03	20	ProbeTrackDT	1.1	SCS215a	20110128.151349	20110128.152128	dt-generate	8	0.013327	60	10	60-180	60	129	GapExp	0	67	2	1	1	target	1	987	507	58178	13.328	12.831	13.817
DTProbeTrack03	20	ProbeTrackDT	1.1	SCS215a	20110128.151349	20110128.152134	dt-generate	8	0.013327	60	10	60-180	60	147	GapExp	0	68	2	6	0	distractor	1	760	620	58798	13.328	13.108	13.561
DTProbeTrack03	20	ProbeTrackDT	1.1	SCS215a	20110128.151349	20110128.152140	dt-generate	8	0.013327	60	10	60-180	60	162	GapExp	0	69	2	6	0	target	0	480	-1000	57798	13.328	13.309	13.347
DTProbeTrack03	20	ProbeTrackDT	1.1	SCS215a	20110128.151349	20110128.152147	dt-generate	8	0.013327	60	10	60-180	60	82	GapExp	0	70	2	6	1	distractor	0	374	-1000	56798	13.328	13.308	13.347
DTProbeTrack03	20	ProbeTrackDT	1.1	SCS215a	20110128.151349	20110128.152152	dt-generate	8	0.013327	60	10	60-180	60	69	GapExp	0	71	2	3	0	target	0	1107	-1000	55798	13.328	12.886	13.783
DTProbeTrack03	20	ProbeTrackDT	1.1	SCS215a	20110128.151349	20110128.152157	dt-generate	8	0.013327	60	10	60-180	60	105	GapExp	0	72	2	9	0	distractor	1	1213	394	56192	13.327	13.137	13.564
DTProbeTrack03	20	ProbeTrackDT	1.1	SCS215a	20110128.151349	20110128.152203	dt-generate	8	0.013327	60	10	60-180	60	127	GapExp	0	73	2	9	1	target	1	680	660	56852	13.328	12.887	13.776
DTProbeTrack03	20	ProbeTrackDT	1.1	SCS215a	20110128.151349	20110128.152209	dt-generate	8	0.013327	60	10	60-180	60	138	GapExp	0	74	2	6	1	distractor	0	1866	-1000	55852	13.328	12.869	13.799
DTProbeTrack03	20	ProbeTrackDT	1.1	SCS215a	20110128.151349	20110128.152216	dt-generate	8	0.013327	60	10	60-180	60	114	GapExp	0	75	2	3	1	target	1	1226	387	56239	13.328	12.999	13.642
DTProbeTrack03	20	ProbeTrackDT	1.1	SCS215a	20110128.151349	20110128.152223	dt-generate	8	0.013327	60	10	60-180	60	115	GapExp	0	76	2	6	0	distractor	1	1493	254	56493	13.328	12.975	13.682
DTProbeTrack03	20	ProbeTrackDT	1.1	SCS215a	20110128.151349	20110128.152229	dt-generate	8	0.013327	60	10	60-180	60	170	GapExp	0	77	2	9	1	target	1	1400	300	56793	13.369	12.910	26.668
DTProbeTrack03	20	ProbeTrackDT	1.1	SCS215a	20110128.151349	20110128.152236	dt-generate	8	0.013327	60	10	60-180	60	70	GapExp	0	78	2	6	0	distractor	1	1586	207	57000	13.327	12.997	13.647
DTProbeTrack03	20	ProbeTrackDT	1.1	SCS215a	20110128.151349	20110128.152242	dt-generate	8	0.013327	60	10	60-180	60	136	GapExp	0	79	2	3	0	target	0	1240	-1000	56000	13.328	12.972	13.692
DTProbeTrack03	20	ProbeTrackDT	1.1	SCS215a	20110128.151349	20110128.152249	dt-generate	8	0.013327	60	10	60-180	60	79	GapExp	0	80	2	45	0	distractor	1	2066	0	56000	13.328	12.878	13.788
DTProbeTrack03	20	ProbeTrackDT	1.1	SCS215a	20110128.151349	20110128.152256	dt-generate	8	0.013327	60	10	60-180	60	80	GapExp	0	81	2	3	0	target	0	1680	-1000	55000	13.328	13.224	13.431
DTProbeTrack03	20	ProbeTrackDT	1.1	SCS215a	20110128.151349	20110128.152302	dt-generate	8	0.013327	60	10	60-180	60	87	GapExp	0	82	2	9	0	distractor	1	947	527	55527	13.328	13.115	13.546
DTProbeTrack03	20	ProbeTrackDT	1.1	SCS215a	20110128.151349	20110128.152308	dt-generate	8	0.013327	60	10	60-180	60	94	GapExp	0	83	2	9	0	target	0	1506	-1000	54527	13.328	12.965	13.707
DTProbeTrack03	20	ProbeTrackDT	1.1	SCS215a	20110128.151349	20110128.152314	dt-generate	8	0.013327	60	10	60-180	60	79	GapExp	0	84	2	3	0	distractor	1	1146	427	54954	13.328	12.895	13.763
DTProbeTrack03	20	ProbeTrackDT	1.1	SCS215a	20110128.151349	20110128.152320	dt-generate	8	0.013327	60	10	60-180	60	108	GapExp	0	85	2	3	1	target	1	1000	500	55454	13.328	13.130	13.523
DTProbeTrack03	20	ProbeTrackDT	1.1	SCS215a	20110128.151349	20110128.152326	dt-generate	8	0.013327	60	10	60-180	60	70	GapExp	0	86	2	1	1	target	1	-13	1007	56461	13.328	12.851	13.792
DTProbeTrack03	20	ProbeTrackDT	1.1	SCS215a	20110128.151349	20110128.152330	dt-generate	8	0.013327	60	10	60-180	60	160	GapExp	0	87	2	9	1	target	1	1613	194	56655	13.328	12.919	13.735
DTProbeTrack03	20	ProbeTrackDT	1.1	SCS215a	20110128.151349	20110128.152337	dt-generate	8	0.013327	60	10	60-180	60	67	GapExp	0	88	2	45	0	distractor	1	893	554	57209	13.328	13.297	13.347
DTProbeTrack03	20	ProbeTrackDT	1.1	SCS215a	20110128.151349	20110128.152343	dt-generate	8	0.013327	60	10	60-180	60	163	GapExp	0	89	2	9	1	target	1	880	560	57769	13.328	13.102	13.549
DTProbeTrack03	20	ProbeTrackDT	1.1	SCS215a	20110128.151349	20110128.152350	dt-generate	8	0.013327	60	10	60-180	60	123	GapExp	0	90	2	6	1	target	1	2173	0	57769	13.328	12.871	13.781
DTProbeTrack03	20	ProbeTrackDT	1.1	SCS215a	20110128.151349	20110128.152357	dt-generate	8	0.013327	60	10	60-180	60	95	GapExp	0	91	2	1	0	target	0	1773	-1000	56769	13.328	13.006	13.660
DTProbeTrack03	20	ProbeTrackDT	1.1	SCS215a	20110128.151349	20110128.152403	dt-generate	8	0.013327	60	10	60-180	60	155	GapExp	0	92	2	1	1	target	1	667	667	57436	13.328	12.874	13.796
DTProbeTrack03	20	ProbeTrackDT	1.1	SCS215a	20110128.151349	20110128.152410	dt-generate	8	0.013327	60	10	60-180	60	106	GapExp	0	93	2	45	0	target	0	1080	-1000	56436	13.328	12.919	13.737
DTProbeTrack03	20	ProbeTrackDT	1.1	SCS215a	20110128.151349	20110128.152416	dt-generate	8	0.013327	60	10	60-180	60	82	GapExp	0	94	2	1	1	target	1	1146	427	56863	13.328	13.101	13.558
DTProbeTrack03	20	ProbeTrackDT	1.1	SCS215a	20110128.151349	20110128.152422	dt-generate	8	0.013327	60	10	60-180	60	175	GapExp	0	95	2	6	1	distractor	0	1999	-1000	55863	13.328	13.002	13.646
DTProbeTrack03	20	ProbeTrackDT	1.1	SCS215a	20110128.151349	20110128.152430	dt-generate	8	0.013327	60	10	60-180	60	103	GapExp	0	96	2	9	0	target	0	1067	-1000	54863	13.328	13.098	13.561
DTProbeTrack03	20	ProbeTrackDT	1.1	SCS215a	20110128.151349	20110128.152436	dt-generate	8	0.013327	60	10	60-180	60	95	GapExp	0	97	2	45	1	distractor	0	2359	-1000	53863	13.328	12.864	13.795
DTProbeTrack03	20	ProbeTrackDT	1.1	SCS215a	20110128.151349	20110128.152443	dt-generate	8	0.013327	60	10	60-180	60	152	GapExp	0	98	2	9	0	target	0	1906	-1000	52863	13.328	12.998	13.667
DTProbeTrack03	20	ProbeTrackDT	1.1	SCS215a	20110128.151349	20110128.152451	dt-generate	8	0.013327	60	10	60-180	60	105	GapExp	0	99	2	3	0	distractor	1	1680	160	53023	13.328	13.100	13.544
DTProbeTrack03	20	ProbeTrackDT	1.1	SCS215a	20110128.151349	20110128.152457	dt-generate	8	0.013327	60	10	60-180	60	141	GapExp	0	100	2	9	1	target	1	1346	327	53350	13.328	12.880	13.760
DTProbeTrack03	20	ProbeTrackDT	1.1	SCS215a	20110128.151349	20110128.152512	dt-generate	8	0.013327	60	10	60-180	60	84	GapExp	0	101	2	45	1	distractor	0	1186	-1000	52350	13.328	13.096	13.547
DTProbeTrack03	20	ProbeTrackDT	1.1	SCS215a	20110128.151349	20110128.152518	dt-generate	8	0.013327	60	10	60-180	60	103	GapExp	0	102	2	3	1	target	1	1080	460	52810	13.328	13.112	13.552
DTProbeTrack03	20	ProbeTrackDT	1.1	SCS215a	20110128.151349	20110128.152524	dt-generate	8	0.013327	60	10	60-180	60	76	GapExp	0	103	2	45	1	target	1	494	753	53563	13.328	12.863	13.803
DTProbeTrack03	20	ProbeTrackDT	1.1	SCS215a	20110128.151349	20110128.152529	dt-generate	8	0.013327	60	10	60-180	60	156	GapExp	0	104	2	3	0	target	0	3825	-1000	52563	13.328	13.015	13.628
DTProbeTrack03	20	ProbeTrackDT	1.1	SCS215a	20110128.151349	20110128.152539	dt-generate	8	0.013327	60	10	60-180	60	173	GapExp	0	105	2	45	1	target	1	4119	0	52563	13.328	13.100	13.542
DTProbeTrack03	20	ProbeTrackDT	1.1	SCS215a	20110128.151349	20110128.152549	dt-generate	8	0.013327	60	10	60-180	60	71	GapExp	0	106	2	6	0	distractor	1	494	753	53316	13.328	12.995	13.683
DTProbeTrack03	20	ProbeTrackDT	1.1	SCS215a	20110128.151349	20110128.152554	dt-generate	8	0.013327	60	10	60-180	60	81	GapExp	0	107	2	3	1	target	1	0	1000	54316	13.328	13.115	13.556
DTProbeTrack03	20	ProbeTrackDT	1.1	SCS215a	20110128.151349	20110128.152559	dt-generate	8	0.013327	60	10	60-180	60	71	GapExp	0	108	2	9	1	target	1	787	607	54923	13.328	13.072	13.586
DTProbeTrack03	20	ProbeTrackDT	1.1	SCS215a	20110128.151349	20110128.152604	dt-generate	8	0.013327	60	10	60-180	60	142	GapExp	0	109	2	45	1	target	1	1626	187	55110	13.368	13.101	26.663
DTProbeTrack03	20	ProbeTrackDT	1.1	SCS215a	20110128.151349	20110128.152611	dt-generate	8	0.013327	60	10	60-180	60	165	GapExp	0	110	2	1	0	distractor	1	2293	0	55110	13.328	12.905	13.751
DTProbeTrack03	20	ProbeTrackDT	1.1	SCS215a	20110128.151349	20110128.152619	dt-generate	8	0.013327	60	10	60-180	60	179	GapExp	0	111	2	6	1	target	1	1440	280	55390	13.328	12.881	13.785
DTProbeTrack03	20	ProbeTrackDT	1.1	SCS215a	20110128.151349	20110128.152627	dt-generate	8	0.013327	60	10	60-180	60	114	GapExp	0	112	2	6	0	distractor	1	1320	340	55730	13.328	12.905	13.770
DTProbeTrack03	20	ProbeTrackDT	1.1	SCS215a	20110128.151349	20110128.152633	dt-generate	8	0.013327	60	10	60-180	60	84	GapExp	0	113	2	1	1	target	1	1626	187	55917	13.328	12.878	13.779
DTProbeTrack03	20	ProbeTrackDT	1.1	SCS215a	20110128.151349	20110128.152639	dt-generate	8	0.013327	60	10	60-180	60	89	GapExp	0	114	2	3	1	target	1	787	607	56524	13.328	13.307	13.349
DTProbeTrack03	20	ProbeTrackDT	1.1	SCS215a	20110128.151349	20110128.152645	dt-generate	8	0.013327	60	10	60-180	60	103	GapExp	0	115	2	1	1	distractor	0	867	-1000	55524	13.328	13.014	13.679
DTProbeTrack03	20	ProbeTrackDT	1.1	SCS215a	20110128.151349	20110128.152650	dt-generate	8	0.013327	60	10	60-180	60	64	GapExp	0	116	2	6	0	target	0	1386	-1000	54524	13.328	13.099	13.550
DTProbeTrack03	20	ProbeTrackDT	1.1	SCS215a	20110128.151349	20110128.152656	dt-generate	8	0.013327	60	10	60-180	60	154	GapExp	0	117	2	6	1	distractor	0	667	-1000	53524	13.328	12.850	13.807
DTProbeTrack03	20	ProbeTrackDT	1.1	SCS215a	20110128.151349	20110128.152702	dt-generate	8	0.013327	60	10	60-180	60	126	GapExp	0	118	2	6	1	target	1	1040	480	54004	13.328	12.900	13.759
DTProbeTrack03	20	ProbeTrackDT	1.1	SCS215a	20110128.151349	20110128.152708	dt-generate	8	0.013327	60	10	60-180	60	167	GapExp	0	119	2	3	1	target	1	840	580	54584	13.370	12.871	26.816
DTProbeTrack03	20	ProbeTrackDT	1.1	SCS215a	20110128.151349	20110128.152715	dt-generate	8	0.013327	60	10	60-180	60	147	GapExp	0	120	2	6	1	target	1	174	913	55497	13.328	13.016	13.531
DTProbeTrack03	20	ProbeTrackDT	1.1	SCS215a	20110128.151349	20110128.152721	dt-generate	8	0.013327	60	10	60-180	60	156	GapExp	0	121	2	1	1	target	1	1240	380	55877	13.328	12.876	13.768
DTProbeTrack03	20	ProbeTrackDT	1.1	SCS215a	20110128.151349	20110128.152727	dt-generate	8	0.013327	60	10	60-180	60	61	GapExp	0	122	2	3	0	target	0	640	-1000	54877	13.328	12.873	13.790
DTProbeTrack03	20	ProbeTrackDT	1.1	SCS215a	20110128.151349	20110128.152732	dt-generate	8	0.013327	60	10	60-180	60	103	GapExp	0	123	2	6	0	target	0	1440	-1000	53877	13.328	12.886	13.778
DTProbeTrack03	20	ProbeTrackDT	1.1	SCS215a	20110128.151349	20110128.152739	dt-generate	8	0.013327	60	10	60-180	60	102	GapExp	0	124	2	45	1	target	1	1253	374	54251	13.328	12.959	13.722
DTProbeTrack03	20	ProbeTrackDT	1.1	SCS215a	20110128.151349	20110128.152745	dt-generate	8	0.013327	60	10	60-180	60	96	GapExp	0	125	2	9	0	target	0	880	-1000	53251	13.328	12.878	13.785
DTProbeTrack03	20	ProbeTrackDT	1.1	SCS215a	20110128.151349	20110128.152751	dt-generate	8	0.013327	60	10	60-180	60	70	GapExp	0	126	2	6	1	distractor	0	1173	-1000	52251	13.328	12.983	13.675
DTProbeTrack03	20	ProbeTrackDT	1.1	SCS215a	20110128.151349	20110128.152756	dt-generate	8	0.013327	60	10	60-180	60	108	GapExp	0	127	2	45	1	distractor	0	640	-1000	51251	13.328	13.029	13.629
DTProbeTrack03	20	ProbeTrackDT	1.1	SCS215a	20110128.151349	20110128.152803	dt-generate	8	0.013327	60	10	60-180	60	132	GapExp	0	128	2	45	1	target	1	880	560	51811	13.328	13.038	13.543
DTProbeTrack03	20	ProbeTrackDT	1.1	SCS215a	20110128.151349	20110128.152809	dt-generate	8	0.013327	60	10	60-180	60	99	GapExp	0	129	2	45	1	target	1	2159	0	51811	13.327	13.005	13.665
DTProbeTrack03	20	ProbeTrackDT	1.1	SCS215a	20110128.151349	20110128.152817	dt-generate	8	0.013327	60	10	60-180	60	73	GapExp	0	130	2	6	0	distractor	1	1120	440	52251	13.327	13.020	13.792
DTProbeTrack03	20	ProbeTrackDT	1.1	SCS215a	20110128.151349	20110128.152822	dt-generate	8	0.013327	60	10	60-180	60	120	GapExp	0	131	2	45	1	target	1	853	574	52825	13.328	13.012	13.637
DTProbeTrack03	20	ProbeTrackDT	1.1	SCS215a	20110128.151349	20110128.152829	dt-generate	8	0.013327	60	10	60-180	60	113	GapExp	0	132	2	9	1	target	1	1373	314	53139	13.328	12.857	13.796
DTProbeTrack03	20	ProbeTrackDT	1.1	SCS215a	20110128.151349	20110128.152835	dt-generate	8	0.013327	60	10	60-180	60	114	GapExp	0	133	2	1	1	target	1	1120	440	53579	13.328	13.105	13.559
DTProbeTrack03	20	ProbeTrackDT	1.1	SCS215a	20110128.151349	20110128.152841	dt-generate	8	0.013327	60	10	60-180	60	160	GapExp	0	134	2	1	0	distractor	1	1067	467	54046	13.328	13.008	13.654
DTProbeTrack03	20	ProbeTrackDT	1.1	SCS215a	20110128.151349	20110128.152848	dt-generate	8	0.013327	60	10	60-180	60	126	GapExp	0	135	2	9	0	target	0	1000	-1000	53046	13.328	12.986	13.679
DTProbeTrack03	20	ProbeTrackDT	1.1	SCS215a	20110128.151349	20110128.152854	dt-generate	8	0.013327	60	10	60-180	60	77	GapExp	0	136	2	45	1	target	1	947	527	53573	13.328	12.839	13.813
DTProbeTrack03	20	ProbeTrackDT	1.1	SCS215a	20110128.151349	20110128.152900	dt-generate	8	0.013327	60	10	60-180	60	157	GapExp	0	137	2	9	0	target	0	1253	-1000	52573	13.328	13.091	13.579
DTProbeTrack03	20	ProbeTrackDT	1.1	SCS215a	20110128.151349	20110128.152907	dt-generate	8	0.013327	60	10	60-180	60	120	GapExp	0	138	2	6	1	distractor	0	1613	-1000	51573	13.328	12.893	13.756
DTProbeTrack03	20	ProbeTrackDT	1.1	SCS215a	20110128.151349	20110128.152914	dt-generate	8	0.013327	60	10	60-180	60	66	GapExp	0	139	2	3	1	target	1	2892	0	51573	13.328	13.190	13.484
DTProbeTrack03	20	ProbeTrackDT	1.1	SCS215a	20110128.151349	20110128.152921	dt-generate	8	0.013327	60	10	60-180	60	78	GapExp	0	140	2	1	0	distractor	1	1320	340	51913	13.328	12.876	13.786
DTProbeTrack03	20	ProbeTrackDT	1.1	SCS215a	20110128.151349	20110128.152927	dt-generate	8	0.013327	60	10	60-180	60	178	GapExp	0	141	2	6	1	target	1	1173	414	52327	13.328	13.308	13.347
DTProbeTrack03	20	ProbeTrackDT	1.1	SCS215a	20110128.151349	20110128.152934	dt-generate	8	0.013327	60	10	60-180	60	179	GapExp	0	142	2	6	0	target	0	1186	-1000	51327	13.328	13.000	13.655
DTProbeTrack03	20	ProbeTrackDT	1.1	SCS215a	20110128.151349	20110128.152941	dt-generate	8	0.013327	60	10	60-180	60	80	GapExp	0	143	2	9	0	distractor	1	1453	274	51601	13.328	13.306	13.349
DTProbeTrack03	20	ProbeTrackDT	1.1	SCS215a	20110128.151349	20110128.152947	dt-generate	8	0.013327	60	10	60-180	60	115	GapExp	0	144	2	1	0	target	0	1200	-1000	50601	13.328	12.896	13.769
DTProbeTrack03	20	ProbeTrackDT	1.1	SCS215a	20110128.151349	20110128.152953	dt-generate	8	0.013327	60	10	60-180	60	100	GapExp	0	145	2	6	1	distractor	0	1533	-1000	49601	13.328	12.973	13.683
DTProbeTrack03	20	ProbeTrackDT	1.1	SCS215a	20110128.151349	20110128.152959	dt-generate	8	0.013327	60	10	60-180	60	98	GapExp	0	146	2	3	0	target	0	1067	-1000	48601	13.328	12.874	13.780
DTProbeTrack03	20	ProbeTrackDT	1.1	SCS215a	20110128.151349	20110128.153005	dt-generate	8	0.013327	60	10	60-180	60	69	GapExp	0	147	2	9	0	distractor	1	120	940	49541	13.328	13.104	13.546
DTProbeTrack03	20	ProbeTrackDT	1.1	SCS215a	20110128.151349	20110128.153010	dt-generate	8	0.013327	60	10	60-180	60	104	GapExp	0	148	2	45	0	distractor	1	1453	274	49815	13.328	12.903	13.760
DTProbeTrack03	20	ProbeTrackDT	1.1	SCS215a	20110128.151349	20110128.153017	dt-generate	8	0.013327	60	10	60-180	60	136	GapExp	0	149	2	6	1	target	1	1000	500	50315	13.328	13.306	13.346
DTProbeTrack03	20	ProbeTrackDT	1.1	SCS215a	20110128.151349	20110128.153023	dt-generate	8	0.013327	60	10	60-180	60	68	GapExp	0	150	2	1	0	target	0	1733	-1000	49315	13.328	13.121	13.547
DTProbeTrack03	20	ProbeTrackDT	1.1	SCS215a	20110128.151349	20110128.153044	dt-generate	8	0.013327	60	10	60-180	60	77	GapExp	0	151	2	1	1	target	1	933	534	49849	13.328	13.308	13.347
DTProbeTrack03	20	ProbeTrackDT	1.1	SCS215a	20110128.151349	20110128.153049	dt-generate	8	0.013327	60	10	60-180	60	125	GapExp	0	152	2	6	0	target	0	1067	-1000	48849	13.328	12.885	13.786
DTProbeTrack03	20	ProbeTrackDT	1.1	SCS215a	20110128.151349	20110128.153056	dt-generate	8	0.013327	60	10	60-180	60	117	GapExp	0	153	2	1	0	distractor	1	1400	300	49149	13.328	12.902	13.748
DTProbeTrack03	20	ProbeTrackDT	1.1	SCS215a	20110128.151349	20110128.153102	dt-generate	8	0.013327	60	10	60-180	60	81	GapExp	0	154	2	3	0	target	0	1906	-1000	48149	13.444	12.890	27.093
DTProbeTrack03	20	ProbeTrackDT	1.1	SCS215a	20110128.151349	20110128.153108	dt-generate	8	0.013327	60	10	60-180	60	139	GapExp	0	155	2	45	0	distractor	1	907	547	48696	13.328	13.051	13.680
DTProbeTrack03	20	ProbeTrackDT	1.1	SCS215a	20110128.151349	20110128.153115	dt-generate	8	0.013327	60	10	60-180	60	94	GapExp	0	156	2	6	1	target	1	200	900	49596	13.328	13.096	13.515
DTProbeTrack03	20	ProbeTrackDT	1.1	SCS215a	20110128.151349	20110128.153120	dt-generate	8	0.013327	60	10	60-180	60	138	GapExp	0	157	2	9	1	target	1	1080	460	50056	13.328	12.860	13.804
DTProbeTrack03	20	ProbeTrackDT	1.1	SCS215a	20110128.151349	20110128.153127	dt-generate	8	0.013327	60	10	60-180	60	66	GapExp	0	158	2	3	1	target	1	773	614	50670	13.328	13.302	13.347
DTProbeTrack03	20	ProbeTrackDT	1.1	SCS215a	20110128.151349	20110128.153132	dt-generate	8	0.013327	60	10	60-180	60	148	GapExp	0	159	2	3	0	target	0	1093	-1000	49670	13.328	13.109	13.557
DTProbeTrack03	20	ProbeTrackDT	1.1	SCS215a	20110128.151349	20110128.153138	dt-generate	8	0.013327	60	10	60-180	60	172	GapExp	0	160	2	6	1	target	1	867	567	50237	13.328	12.961	13.684
DTProbeTrack03	20	ProbeTrackDT	1.1	SCS215a	20110128.151349	20110128.153145	dt-generate	8	0.013327	60	10	60-180	60	123	GapExp	0	161	2	45	0	distractor	1	1320	340	50577	13.328	13.035	13.613
DTProbeTrack03	20	ProbeTrackDT	1.1	SCS215a	20110128.151349	20110128.153152	dt-generate	8	0.013327	60	10	60-180	60	180	GapExp	0	162	2	1	0	target	0	1147	-1000	49577	13.328	12.992	13.670
DTProbeTrack03	20	ProbeTrackDT	1.1	SCS215a	20110128.151349	20110128.153159	dt-generate	8	0.013327	60	10	60-180	60	156	GapExp	0	163	2	1	0	distractor	1	733	634	50211	13.328	12.945	13.706
DTProbeTrack03	20	ProbeTrackDT	1.1	SCS215a	20110128.151349	20110128.153205	dt-generate	8	0.013327	60	10	60-180	60	99	GapExp	0	164	2	9	0	distractor	1	1760	120	50331	13.328	12.933	13.724
DTProbeTrack03	20	ProbeTrackDT	1.1	SCS215a	20110128.151349	20110128.153212	dt-generate	8	0.013327	60	10	60-180	60	126	GapExp	0	165	2	45	1	target	1	1093	454	50785	13.328	13.277	13.382
DTProbeTrack03	20	ProbeTrackDT	1.1	SCS215a	20110128.151349	20110128.153219	dt-generate	8	0.013327	60	10	60-180	60	82	GapExp	0	166	2	9	0	distractor	1	1600	200	50985	13.328	13.108	13.555
DTProbeTrack03	20	ProbeTrackDT	1.1	SCS215a	20110128.151349	20110128.153225	dt-generate	8	0.013327	60	10	60-180	60	144	GapExp	0	167	2	6	1	target	1	787	607	51592	13.328	12.953	13.688
DTProbeTrack03	20	ProbeTrackDT	1.1	SCS215a	20110128.151349	20110128.153231	dt-generate	8	0.013327	60	10	60-180	60	80	GapExp	0	168	2	1	1	target	1	693	654	52246	13.328	12.962	13.688
DTProbeTrack03	20	ProbeTrackDT	1.1	SCS215a	20110128.151349	20110128.153236	dt-generate	8	0.013327	60	10	60-180	60	143	GapExp	0	169	2	9	0	target	0	1253	-1000	51246	13.328	12.952	13.703
DTProbeTrack03	20	ProbeTrackDT	1.1	SCS215a	20110128.151349	20110128.153243	dt-generate	8	0.013327	60	10	60-180	60	100	GapExp	0	170	2	45	0	target	0	973	-1000	50246	13.328	12.938	13.726
DTProbeTrack03	20	ProbeTrackDT	1.1	SCS215a	20110128.151349	20110128.153249	dt-generate	8	0.013327	60	10	60-180	60	86	GapExp	0	171	2	1	0	distractor	1	760	620	50866	13.328	13.303	13.356
DTProbeTrack03	20	ProbeTrackDT	1.1	SCS215a	20110128.151349	20110128.153254	dt-generate	8	0.013327	60	10	60-180	60	88	GapExp	0	172	2	3	0	distractor	1	1173	414	51280	13.328	13.105	13.551
DTProbeTrack03	20	ProbeTrackDT	1.1	SCS215a	20110128.151349	20110128.153300	dt-generate	8	0.013327	60	10	60-180	60	157	GapExp	0	173	2	3	0	target	0	1360	-1000	50280	13.328	12.893	13.765
DTProbeTrack03	20	ProbeTrackDT	1.1	SCS215a	20110128.151349	20110128.153307	dt-generate	8	0.013327	60	10	60-180	60	168	GapExp	0	174	2	45	1	target	1	1147	427	50707	13.328	12.869	13.804
DTProbeTrack03	20	ProbeTrackDT	1.1	SCS215a	20110128.151349	20110128.153315	dt-generate	8	0.013327	60	10	60-180	60	103	GapExp	0	175	2	45	1	target	1	840	580	51287	13.328	13.113	13.539
DTProbeTrack03	20	ProbeTrackDT	1.1	SCS215a	20110128.151349	20110128.153321	dt-generate	8	0.013327	60	10	60-180	60	84	GapExp	0	176	2	3	0	distractor	1	1640	180	51467	13.328	13.099	13.553
DTProbeTrack03	20	ProbeTrackDT	1.1	SCS215a	20110128.151349	20110128.153327	dt-generate	8	0.013327	60	10	60-180	60	118	GapExp	0	177	2	45	1	target	1	1320	340	51807	13.328	12.887	13.776
DTProbeTrack03	20	ProbeTrackDT	1.1	SCS215a	20110128.151349	20110128.153334	dt-generate	8	0.013327	60	10	60-180	60	113	GapExp	0	178	2	1	0	distractor	1	1200	400	52207	13.328	13.310	13.348
DTProbeTrack03	20	ProbeTrackDT	1.1	SCS215a	20110128.151349	20110128.153340	dt-generate	8	0.013327	60	10	60-180	60	78	GapExp	0	179	2	45	0	distractor	1	587	707	52914	13.328	12.893	13.770
DTProbeTrack03	20	ProbeTrackDT	1.1	SCS215a	20110128.151349	20110128.153346	dt-generate	8	0.013327	60	10	60-180	60	80	GapExp	0	180	2	9	1	distractor	0	1000	-1000	51914	13.328	13.308	13.345
DTProbeTrack03	20	ProbeTrackDT	1.1	SCS215a	20110128.151349	20110128.153351	dt-generate	8	0.013327	60	10	60-180	60	93	GapExp	0	181	2	6	0	target	0	4265	-1000	50914	13.328	12.967	13.684
DTProbeTrack03	20	ProbeTrackDT	1.1	SCS215a	20110128.151349	20110128.153400	dt-generate	8	0.013327	60	10	60-180	60	96	GapExp	0	182	2	1	1	target	1	2079	0	50914	13.328	12.981	13.665
DTProbeTrack03	20	ProbeTrackDT	1.1	SCS215a	20110128.151349	20110128.153407	dt-generate	8	0.013327	60	10	60-180	60	149	GapExp	0	183	2	1	0	target	0	1186	-1000	49914	13.328	13.096	13.553
DTProbeTrack03	20	ProbeTrackDT	1.1	SCS215a	20110128.151349	20110128.153414	dt-generate	8	0.013327	60	10	60-180	60	158	GapExp	0	184	2	9	0	distractor	1	1200	400	50314	13.328	13.305	13.357
DTProbeTrack03	20	ProbeTrackDT	1.1	SCS215a	20110128.151349	20110128.153420	dt-generate	8	0.013327	60	10	60-180	60	68	GapExp	0	185	2	6	0	distractor	1	1027	487	50801	13.328	13.113	13.542
DTProbeTrack03	20	ProbeTrackDT	1.1	SCS215a	20110128.151349	20110128.153426	dt-generate	8	0.013327	60	10	60-180	60	147	GapExp	0	186	2	45	0	target	0	414	-1000	49801	13.328	12.914	13.736
DTProbeTrack03	20	ProbeTrackDT	1.1	SCS215a	20110128.151349	20110128.153432	dt-generate	8	0.013327	60	10	60-180	60	74	GapExp	0	187	2	6	0	target	0	1600	-1000	48801	13.328	13.098	13.551
DTProbeTrack03	20	ProbeTrackDT	1.1	SCS215a	20110128.151349	20110128.153438	dt-generate	8	0.013327	60	10	60-180	60	146	GapExp	0	188	2	3	1	distractor	0	1240	-1000	47801	13.328	12.957	13.697
DTProbeTrack03	20	ProbeTrackDT	1.1	SCS215a	20110128.151349	20110128.153445	dt-generate	8	0.013327	60	10	60-180	60	119	GapExp	0	189	2	45	0	distractor	1	560	720	48521	13.328	12.973	13.668
DTProbeTrack03	20	ProbeTrackDT	1.1	SCS215a	20110128.151349	20110128.153451	dt-generate	8	0.013327	60	10	60-180	60	165	GapExp	0	190	2	9	1	distractor	0	1280	-1000	47521	13.328	13.039	13.626
DTProbeTrack03	20	ProbeTrackDT	1.1	SCS215a	20110128.151349	20110128.153458	dt-generate	8	0.013327	60	10	60-180	60	78	GapExp	0	191	2	45	0	target	0	560	-1000	46521	13.328	13.309	13.347
DTProbeTrack03	20	ProbeTrackDT	1.1	SCS215a	20110128.151349	20110128.153504	dt-generate	8	0.013327	60	10	60-180	60	173	GapExp	0	192	2	3	0	distractor	1	2013	0	46521	13.328	13.128	13.533
DTProbeTrack03	20	ProbeTrackDT	1.1	SCS215a	20110128.151349	20110128.153511	dt-generate	8	0.013327	60	10	60-180	60	157	GapExp	0	193	2	45	1	distractor	0	880	-1000	45521	13.328	13.302	13.359
DTProbeTrack03	20	ProbeTrackDT	1.1	SCS215a	20110128.151349	20110128.153518	dt-generate	8	0.013327	60	10	60-180	60	70	GapExp	0	194	2	6	0	target	0	1959	-1000	44521	13.328	12.988	13.654
DTProbeTrack03	20	ProbeTrackDT	1.1	SCS215a	20110128.151349	20110128.153525	dt-generate	8	0.013327	60	10	60-180	60	136	GapExp	0	195	2	3	1	target	1	893	554	45075	13.328	12.959	13.691
DTProbeTrack03	20	ProbeTrackDT	1.1	SCS215a	20110128.151349	20110128.153531	dt-generate	8	0.013327	60	10	60-180	60	159	GapExp	0	196	2	45	0	distractor	1	480	760	45835	13.328	13.064	13.592
DTProbeTrack03	20	ProbeTrackDT	1.1	SCS215a	20110128.151349	20110128.153538	dt-generate	8	0.013327	60	10	60-180	60	115	GapExp	0	197	2	6	1	target	1	813	594	46429	13.328	12.930	13.710
DTProbeTrack03	20	ProbeTrackDT	1.1	SCS215a	20110128.151349	20110128.153543	dt-generate	8	0.013327	60	10	60-180	60	93	GapExp	0	198	2	6	1	target	1	920	540	46969	13.328	12.963	13.685
DTProbeTrack03	20	ProbeTrackDT	1.1	SCS215a	20110128.151349	20110128.153549	dt-generate	8	0.013327	60	10	60-180	60	173	GapExp	0	199	2	3	1	target	1	1773	114	47083	13.328	12.846	13.800
DTProbeTrack03	20	ProbeTrackDT	1.1	SCS215a	20110128.151349	20110128.153557	dt-generate	8	0.013327	60	10	60-180	60	134	GapExp	0	200	2	45	0	target	0	627	-1000	46083	13.328	12.942	13.724
DTProbeTrack03	20	ProbeTrackDT	1.1	SCS215a	20110128.151349	20110128.153613	dt-generate	8	0.013327	60	10	60-180	60	131	GapExp	0	201	2	9	0	target	0	1986	-1000	45083	13.328	13.102	13.562
DTProbeTrack03	20	ProbeTrackDT	1.1	SCS215a	20110128.151349	20110128.153620	dt-generate	8	0.013327	60	10	60-180	60	156	GapExp	0	202	2	1	0	distractor	1	387	807	45890	13.328	12.869	13.775
DTProbeTrack03	20	ProbeTrackDT	1.1	SCS215a	20110128.151349	20110128.153626	dt-generate	8	0.013327	60	10	60-180	60	69	GapExp	0	203	2	1	1	target	1	1067	467	46357	13.327	12.980	13.662
DTProbeTrack03	20	ProbeTrackDT	1.1	SCS215a	20110128.151349	20110128.153632	dt-generate	8	0.013327	60	10	60-180	60	169	GapExp	0	204	2	3	0	distractor	1	960	520	46877	13.328	12.915	13.738
DTProbeTrack03	20	ProbeTrackDT	1.1	SCS215a	20110128.151349	20110128.153638	dt-generate	8	0.013327	60	10	60-180	60	134	GapExp	0	205	2	9	0	distractor	1	1280	360	47237	13.328	12.872	13.789
DTProbeTrack03	20	ProbeTrackDT	1.1	SCS215a	20110128.153725	20110128.153729	dt-shadow	8	0.013328	60	10	60-180	60	107	GapPrac	1	1	2	3	0	distractor	1	1013	494	47731	13.328	13.218	13.447
DTProbeTrack03	20	ProbeTrackDT	1.1	SCS215a	20110128.153725	20110128.153735	dt-shadow	8	0.013328	60	10	60-180	60	167	GapPrac	1	2	2	9	0	target	0	1107	-1000	46731	13.328	13.019	13.650
DTProbeTrack03	20	ProbeTrackDT	1.1	SCS215a	20110128.153725	20110128.153742	dt-shadow	8	0.013328	60	10	60-180	60	73	GapPrac	1	3	2	1	0	distractor	1	853	574	47305	13.328	13.048	13.622
DTProbeTrack03	20	ProbeTrackDT	1.1	SCS215a	20110128.153725	20110128.153747	dt-shadow	8	0.013328	60	10	60-180	60	85	GapPrac	1	4	2	3	0	distractor	1	1000	500	47805	13.328	13.146	13.511
DTProbeTrack03	20	ProbeTrackDT	1.1	SCS215a	20110128.153725	20110128.153753	dt-shadow	8	0.013328	60	10	60-180	60	157	GapPrac	1	5	2	45	0	distractor	1	667	667	48472	13.328	13.106	13.552
DTProbeTrack03	20	ProbeTrackDT	1.1	SCS215a	20110128.153725	20110128.153800	dt-shadow	8	0.013328	60	10	60-180	60	112	GapPrac	1	6	2	3	1	distractor	0	1213	-1000	47472	13.328	13.309	13.346
DTProbeTrack03	20	ProbeTrackDT	1.1	SCS215a	20110128.153725	20110128.153806	dt-shadow	8	0.013328	60	10	60-180	60	174	GapPrac	1	7	2	6	0	distractor	1	653	674	48146	13.328	12.993	13.656
DTProbeTrack03	20	ProbeTrackDT	1.1	SCS215a	20110128.153725	20110128.153812	dt-shadow	8	0.013328	60	10	60-180	60	90	GapPrac	1	8	2	9	1	distractor	0	667	-1000	47146	13.328	12.885	13.768
DTProbeTrack03	20	ProbeTrackDT	1.1	SCS215a	20110128.153725	20110128.153818	dt-shadow	8	0.013328	60	10	60-180	60	169	GapPrac	1	9	2	3	1	distractor	0	880	-1000	46146	13.328	12.915	13.738
DTProbeTrack03	20	ProbeTrackDT	1.1	SCS215a	20110128.153725	20110128.153824	dt-shadow	8	0.013328	60	10	60-180	60	135	GapPrac	1	10	2	6	1	target	1	1013	494	46640	13.328	13.312	13.350
DTProbeTrack03	20	ProbeTrackDT	1.1	SCS215a	20110128.153725	20110128.153831	dt-shadow	8	0.013328	60	10	60-180	60	110	GapPrac	1	11	2	1	0	target	0	1067	-1000	45640	13.328	13.082	13.565
DTProbeTrack03	20	ProbeTrackDT	1.1	SCS215a	20110128.153725	20110128.153837	dt-shadow	8	0.013328	60	10	60-180	60	112	GapPrac	1	12	2	9	0	distractor	1	827	587	46227	13.328	13.111	13.545
DTProbeTrack03	20	ProbeTrackDT	1.1	SCS215a	20110128.153725	20110128.153843	dt-shadow	8	0.013328	60	10	60-180	60	149	GapPrac	1	13	2	45	1	target	1	1067	467	46694	13.328	12.861	13.787
DTProbeTrack03	20	ProbeTrackDT	1.1	SCS215a	20110128.153725	20110128.153850	dt-shadow	8	0.013328	60	10	60-180	60	95	GapPrac	1	14	2	45	1	distractor	0	973	-1000	45694	13.328	12.945	13.694
DTProbeTrack03	20	ProbeTrackDT	1.1	SCS215a	20110128.153725	20110128.153856	dt-shadow	8	0.013328	60	10	60-180	60	71	GapPrac	1	15	2	1	1	target	1	947	527	46221	13.328	12.945	13.711
DTProbeTrack03	20	ProbeTrackDT	1.1	SCS215a	20110128.153725	20110128.153901	dt-shadow	8	0.013328	60	10	60-180	60	151	GapPrac	1	16	2	6	1	target	1	813	594	46815	13.328	13.296	13.348
DTProbeTrack03	20	ProbeTrackDT	1.1	SCS215a	20110128.153725	20110128.153907	dt-shadow	8	0.013328	60	10	60-180	60	116	GapPrac	1	17	2	9	1	target	1	880	560	47375	13.328	12.884	13.772
DTProbeTrack03	20	ProbeTrackDT	1.1	SCS215a	20110128.153725	20110128.153913	dt-shadow	8	0.013328	60	10	60-180	60	80	GapPrac	1	18	2	6	0	distractor	1	813	594	47969	13.328	12.837	13.811
DTProbeTrack03	20	ProbeTrackDT	1.1	SCS215a	20110128.153725	20110128.153919	dt-shadow	8	0.013328	60	10	60-180	60	161	GapPrac	1	19	2	1	1	distractor	0	1160	-1000	46969	13.328	13.092	13.580
DTProbeTrack03	20	ProbeTrackDT	1.1	SCS215a	20110128.153725	20110128.153925	dt-shadow	8	0.013328	60	10	60-180	60	63	GapPrac	1	20	2	45	0	distractor	1	574	713	47682	13.328	12.881	13.766
DTProbeTrack03	20	ProbeTrackDT	1.1	SCS215a	20110128.154001	20110128.154006	dt-shadow	8	0.013328	60	10	60-180	60	80	GapExp	1	1	2	3	1	distractor	0	880	-1000	46682	13.327	13.308	13.347
DTProbeTrack03	20	ProbeTrackDT	1.1	SCS215a	20110128.154001	20110128.154011	dt-shadow	8	0.013328	60	10	60-180	60	130	GapExp	1	2	2	3	0	target	0	694	-1000	45682	13.328	12.905	13.750
DTProbeTrack03	20	ProbeTrackDT	1.1	SCS215a	20110128.154001	20110128.154017	dt-shadow	8	0.013328	60	10	60-180	60	155	GapExp	1	3	2	45	0	distractor	1	907	547	46229	13.328	12.881	13.782
DTProbeTrack03	20	ProbeTrackDT	1.1	SCS215a	20110128.154001	20110128.154024	dt-shadow	8	0.013328	60	10	60-180	60	150	GapExp	1	4	2	9	0	distractor	1	853	574	46803	13.328	12.868	13.793
DTProbeTrack03	20	ProbeTrackDT	1.1	SCS215a	20110128.154001	20110128.154030	dt-shadow	8	0.013328	60	10	60-180	60	76	GapExp	1	5	2	1	1	distractor	0	1027	-1000	45803	13.328	12.894	13.779
DTProbeTrack03	20	ProbeTrackDT	1.1	SCS215a	20110128.154001	20110128.154036	dt-shadow	8	0.013328	60	10	60-180	60	97	GapExp	0	6	2	9	1	distractor	0	853	-1000	44803	13.328	13.296	13.361
DTProbeTrack03	20	ProbeTrackDT	1.1	SCS215a	20110128.154001	20110128.154041	dt-shadow	8	0.013328	60	10	60-180	60	117	GapExp	0	7	2	45	1	target	1	494	753	45556	13.328	12.952	13.699
DTProbeTrack03	20	ProbeTrackDT	1.1	SCS215a	20110128.154001	20110128.154048	dt-shadow	8	0.013328	60	10	60-180	60	143	GapExp	0	8	2	1	0	distractor	1	720	640	46196	13.328	13.054	13.609
DTProbeTrack03	20	ProbeTrackDT	1.1	SCS215a	20110128.154001	20110128.154054	dt-shadow	8	0.013328	60	10	60-180	60	133	GapExp	0	9	2	1	0	distractor	1	1107	447	46643	13.328	13.297	13.349
DTProbeTrack03	20	ProbeTrackDT	1.1	SCS215a	20110128.154001	20110128.154100	dt-shadow	8	0.013328	60	10	60-180	60	84	GapExp	0	10	2	3	1	target	1	947	527	47170	13.328	12.843	13.799
DTProbeTrack03	20	ProbeTrackDT	1.1	SCS215a	20110128.154001	20110128.154105	dt-shadow	8	0.013328	60	10	60-180	60	171	GapExp	0	11	2	1	1	target	1	853	574	47744	13.328	12.880	13.769
DTProbeTrack03	20	ProbeTrackDT	1.1	SCS215a	20110128.154001	20110128.154112	dt-shadow	8	0.013328	60	10	60-180	60	128	GapExp	0	12	2	1	1	target	1	667	667	48411	13.328	13.047	13.589
DTProbeTrack03	20	ProbeTrackDT	1.1	SCS215a	20110128.154001	20110128.154118	dt-shadow	8	0.013328	60	10	60-180	60	65	GapExp	0	13	2	6	1	distractor	0	1093	-1000	47411	13.328	12.855	13.797
DTProbeTrack03	20	ProbeTrackDT	1.1	SCS215a	20110128.154001	20110128.154123	dt-shadow	8	0.013328	60	10	60-180	60	125	GapExp	0	14	2	45	0	distractor	1	547	727	48138	13.328	12.882	13.771
DTProbeTrack03	20	ProbeTrackDT	1.1	SCS215a	20110128.154001	20110128.154129	dt-shadow	8	0.013328	60	10	60-180	60	137	GapExp	0	15	2	45	1	target	1	973	514	48652	13.329	12.952	13.702
DTProbeTrack03	20	ProbeTrackDT	1.1	SCS215a	20110128.154001	20110128.154136	dt-shadow	8	0.013328	60	10	60-180	60	76	GapExp	0	16	2	6	0	distractor	1	907	547	49199	13.328	13.042	13.614
DTProbeTrack03	20	ProbeTrackDT	1.1	SCS215a	20110128.154001	20110128.154142	dt-shadow	8	0.013328	60	10	60-180	60	178	GapExp	0	17	2	45	0	distractor	1	827	587	49786	13.328	12.890	13.764
DTProbeTrack03	20	ProbeTrackDT	1.1	SCS215a	20110128.154001	20110128.154149	dt-shadow	8	0.013328	60	10	60-180	60	175	GapExp	0	18	2	45	1	target	1	680	660	50446	13.328	13.298	13.359
DTProbeTrack03	20	ProbeTrackDT	1.1	SCS215a	20110128.154001	20110128.154156	dt-shadow	8	0.013328	60	10	60-180	60	126	GapExp	0	19	2	6	0	distractor	1	600	700	51146	13.328	12.877	13.782
DTProbeTrack03	20	ProbeTrackDT	1.1	SCS215a	20110128.154001	20110128.154202	dt-shadow	8	0.013328	60	10	60-180	60	154	GapExp	0	20	2	3	1	target	1	440	780	51926	13.329	13.066	13.701
DTProbeTrack03	20	ProbeTrackDT	1.1	SCS215a	20110128.154001	20110128.154208	dt-shadow	8	0.013328	60	10	60-180	60	139	GapExp	0	21	2	1	0	distractor	1	760	620	52546	13.328	12.893	13.560
DTProbeTrack03	20	ProbeTrackDT	1.1	SCS215a	20110128.154001	20110128.154214	dt-shadow	8	0.013328	60	10	60-180	60	71	GapExp	0	22	2	1	0	distractor	1	893	554	53100	13.328	13.136	13.537
DTProbeTrack03	20	ProbeTrackDT	1.1	SCS215a	20110128.154001	20110128.154219	dt-shadow	8	0.013328	60	10	60-180	60	101	GapExp	0	23	2	9	1	target	1	707	647	53747	13.328	13.306	13.348
DTProbeTrack03	20	ProbeTrackDT	1.1	SCS215a	20110128.154001	20110128.154224	dt-shadow	8	0.013328	60	10	60-180	60	156	GapExp	0	24	2	6	1	distractor	0	547	-1000	52747	13.328	12.968	13.680
DTProbeTrack03	20	ProbeTrackDT	1.1	SCS215a	20110128.154001	20110128.154230	dt-shadow	8	0.013328	60	10	60-180	60	110	GapExp	0	25	2	6	1	target	1	480	760	53507	13.328	12.892	13.764
DTProbeTrack03	20	ProbeTrackDT	1.1	SCS215a	20110128.154001	20110128.154236	dt-shadow	8	0.013328	60	10	60-180	60	74	GapExp	0	26	2	3	1	target	1	747	627	54134	13.327	13.069	13.581
DTProbeTrack03	20	ProbeTrackDT	1.1	SCS215a	20110128.154001	20110128.154241	dt-shadow	8	0.013328	60	10	60-180	60	136	GapExp	0	27	2	6	1	target	1	747	627	54761	13.328	13.108	13.546
DTProbeTrack03	20	ProbeTrackDT	1.1	SCS215a	20110128.154001	20110128.154247	dt-shadow	8	0.013328	60	10	60-180	60	139	GapExp	0	28	2	1	1	target	1	534	733	55494	13.328	13.022	13.649
DTProbeTrack03	20	ProbeTrackDT	1.1	SCS215a	20110128.154001	20110128.154253	dt-shadow	8	0.013328	60	10	60-180	60	168	GapExp	0	29	2	9	1	target	1	720	640	56134	13.328	12.866	13.782
DTProbeTrack03	20	ProbeTrackDT	1.1	SCS215a	20110128.154001	20110128.154259	dt-shadow	8	0.013328	60	10	60-180	60	97	GapExp	0	30	2	6	0	distractor	1	627	687	56821	13.328	12.885	13.779
DTProbeTrack03	20	ProbeTrackDT	1.1	SCS215a	20110128.154001	20110128.154305	dt-shadow	8	0.013328	60	10	60-180	60	65	GapExp	0	31	2	6	1	target	1	560	720	57541	13.328	12.966	13.720
DTProbeTrack03	20	ProbeTrackDT	1.1	SCS215a	20110128.154001	20110128.154310	dt-shadow	8	0.013328	60	10	60-180	60	177	GapExp	0	32	2	9	1	target	1	760	620	58161	13.328	13.000	13.655
DTProbeTrack03	20	ProbeTrackDT	1.1	SCS215a	20110128.154001	20110128.154316	dt-shadow	8	0.013328	60	10	60-180	60	121	GapExp	0	33	2	45	0	distractor	1	960	520	58681	13.328	13.138	13.562
DTProbeTrack03	20	ProbeTrackDT	1.1	SCS215a	20110128.154001	20110128.154323	dt-shadow	8	0.013328	60	10	60-180	60	130	GapExp	0	34	2	9	0	distractor	1	800	600	59281	13.328	12.870	13.793
DTProbeTrack03	20	ProbeTrackDT	1.1	SCS215a	20110128.154001	20110128.154329	dt-shadow	8	0.013328	60	10	60-180	60	162	GapExp	0	35	2	6	1	target	1	640	680	59961	13.328	12.951	13.777
DTProbeTrack03	20	ProbeTrackDT	1.1	SCS215a	20110128.154001	20110128.154335	dt-shadow	8	0.013328	60	10	60-180	60	157	GapExp	0	36	2	9	0	target	0	1746	-1000	58961	13.328	12.846	13.815
