exp	sub	code	rev	comp	runtime	trialtime	nstim	refreshdur	cuedur	gapdur	gapOnsetRange	durPostProbe	gapOnsetTime	blocktype	prac	trial	ntargets	soa	probeTarget	resp	acc	rt	pts	tpts	meanFrameDur	minFrameDur	maxFrameDur
ProbeTrackDT01	11	ProbeTrack	10.4	SCS215a	20100706.105519	20100706.105635	8	0.013327	60	0	60-180	60	179	NoGap	1	1	2	2	0	distractor	1	2055	0	0	13.328	13.130	13.526
ProbeTrackDT01	11	ProbeTrack	10.4	SCS215a	20100706.105519	20100706.105643	8	0.013327	60	0	60-180	60	141	NoGap	1	2	2	75	1	target	1	1786	107	107	13.328	13.266	13.390
ProbeTrackDT01	11	ProbeTrack	10.4	SCS215a	20100706.105519	20100706.105651	8	0.013327	60	0	60-180	60	124	NoGap	1	3	2	1	0	distractor	1	1213	394	501	13.379	13.293	26.240
ProbeTrackDT01	11	ProbeTrack	10.4	SCS215a	20100706.105519	20100706.105657	8	0.013327	60	0	60-180	60	142	NoGap	1	4	2	75	1	target	1	1853	74	575	13.328	13.172	13.484
ProbeTrackDT01	11	ProbeTrack	10.4	SCS215a	20100706.105519	20100706.105705	8	0.013327	60	0	60-180	60	93	NoGap	1	5	2	4	1	target	1	1453	274	849	13.328	13.114	13.530
ProbeTrackDT01	11	ProbeTrack	10.4	SCS215a	20100706.105519	20100706.105711	8	0.013327	60	0	60-180	60	150	NoGap	1	6	2	4	0	distractor	1	1213	394	1243	13.328	13.146	13.475
ProbeTrackDT01	11	ProbeTrack	10.4	SCS215a	20100706.105519	20100706.105718	8	0.013327	60	0	60-180	60	70	NoGap	1	7	2	1	0	distractor	1	1293	354	1597	13.328	13.293	13.363
ProbeTrackDT01	11	ProbeTrack	10.4	SCS215a	20100706.105519	20100706.105724	8	0.013327	60	0	60-180	60	106	NoGap	1	8	2	0	0	distractor	1	1000	500	2097	13.328	13.215	13.440
ProbeTrackDT01	11	ProbeTrack	10.4	SCS215a	20100706.105519	20100706.105729	8	0.013327	60	0	60-180	60	127	NoGap	1	9	2	2	1	target	1	1213	394	2491	13.328	13.234	13.419
ProbeTrackDT01	11	ProbeTrack	10.4	SCS215a	20100706.105519	20100706.105736	8	0.013327	60	0	60-180	60	63	NoGap	1	10	2	75	0	distractor	1	827	587	3078	13.328	13.292	13.363
ProbeTrackDT01	11	ProbeTrack	10.4	SCS215a	20100706.105519	20100706.105742	8	0.013327	60	0	60-180	60	148	NoGap	1	11	2	4	1	target	1	1213	394	3472	13.328	13.293	13.363
ProbeTrackDT01	11	ProbeTrack	10.4	SCS215a	20100706.105519	20100706.105748	8	0.013327	60	0	60-180	60	149	NoGap	1	12	2	4	0	distractor	1	1027	487	3959	13.328	13.147	13.539
ProbeTrackDT01	11	ProbeTrack	10.4	SCS215a	20100706.105519	20100706.105755	8	0.013327	60	0	60-180	60	113	NoGap	1	13	2	4	1	target	1	800	600	4559	13.328	13.009	13.647
ProbeTrackDT01	11	ProbeTrack	10.4	SCS215a	20100706.105519	20100706.105800	8	0.013327	60	0	60-180	60	128	NoGap	1	14	2	0	0	target	0	2093	-1000	3559	13.328	13.092	13.530
ProbeTrackDT01	11	ProbeTrack	10.4	SCS215a	20100706.105519	20100706.105807	8	0.013327	60	0	60-180	60	165	NoGap	1	15	2	75	0	distractor	1	1200	400	3959	13.328	13.293	13.363
ProbeTrackDT01	11	ProbeTrack	10.4	SCS215a	20100706.105519	20100706.105815	8	0.013327	60	0	60-180	60	175	NoGap	1	16	2	75	0	distractor	1	1320	340	4299	13.328	12.960	13.697
ProbeTrackDT01	11	ProbeTrack	10.4	SCS215a	20100706.105519	20100706.105823	8	0.013327	60	0	60-180	60	159	NoGap	1	17	2	0	1	target	1	1067	467	4766	13.328	13.041	13.649
ProbeTrackDT01	11	ProbeTrack	10.4	SCS215a	20100706.105519	20100706.105830	8	0.013327	60	0	60-180	60	110	NoGap	1	18	2	0	0	distractor	1	1280	360	5126	13.328	13.113	13.509
ProbeTrackDT01	11	ProbeTrack	10.4	SCS215a	20100706.105519	20100706.105836	8	0.013327	60	0	60-180	60	124	NoGap	1	19	2	0	1	target	1	827	587	5713	13.328	13.290	13.367
ProbeTrackDT01	11	ProbeTrack	10.4	SCS215a	20100706.105519	20100706.105842	8	0.013327	60	0	60-180	60	88	NoGap	1	20	2	2	0	distractor	1	1200	400	6113	13.328	13.072	13.584
ProbeTrackDT01	11	ProbeTrack	10.4	SCS215a	20100706.105519	20100706.105847	8	0.013327	60	0	60-180	60	98	NoGap	1	21	2	4	0	distractor	1	893	554	6667	13.328	13.171	13.485
ProbeTrackDT01	11	ProbeTrack	10.4	SCS215a	20100706.105519	20100706.105853	8	0.013327	60	0	60-180	60	112	NoGap	1	22	2	75	0	distractor	1	920	540	7207	13.328	13.161	13.494
ProbeTrackDT01	11	ProbeTrack	10.4	SCS215a	20100706.105519	20100706.105900	8	0.013327	60	0	60-180	60	151	NoGap	1	23	2	4	1	target	1	1213	394	7601	13.328	13.191	13.465
ProbeTrackDT01	11	ProbeTrack	10.4	SCS215a	20100706.105519	20100706.105906	8	0.013327	60	0	60-180	60	112	NoGap	1	24	2	1	1	target	1	1426	287	7888	13.328	13.289	13.363
ProbeTrackDT01	11	ProbeTrack	10.4	SCS215a	20100706.105519	20100706.105913	8	0.013327	60	0	60-180	60	175	NoGap	1	25	2	2	1	target	1	733	634	8522	13.328	13.038	13.584
ProbeTrackDT01	11	ProbeTrack	10.4	SCS215a	20100706.105519	20100706.105919	8	0.013327	60	0	60-180	60	120	NoGap	1	26	2	0	1	target	1	680	660	9182	13.328	13.293	13.363
ProbeTrackDT01	11	ProbeTrack	10.4	SCS215a	20100706.105519	20100706.105925	8	0.013327	60	0	60-180	60	63	NoGap	1	27	2	2	1	target	1	787	607	9789	13.328	13.160	13.530
ProbeTrackDT01	11	ProbeTrack	10.4	SCS215a	20100706.105519	20100706.105930	8	0.013327	60	0	60-180	60	159	NoGap	1	28	2	1	1	target	1	720	640	10429	13.328	13.264	13.363
ProbeTrackDT01	11	ProbeTrack	10.4	SCS215a	20100706.105519	20100706.105936	8	0.013327	60	0	60-180	60	160	NoGap	1	29	2	1	1	target	1	787	607	11036	13.328	13.120	13.503
ProbeTrackDT01	11	ProbeTrack	10.4	SCS215a	20100706.105519	20100706.105942	8	0.013327	60	0	60-180	60	169	NoGap	1	30	2	1	0	distractor	1	1373	314	11350	13.328	13.217	13.438
ProbeTrackDT01	11	ProbeTrack	10.4	SCS215a	20100706.105519	20100706.105949	8	0.013327	60	0	60-180	60	82	NoGap	1	31	2	1	0	distractor	1	987	507	11857	13.328	13.293	13.363
ProbeTrackDT01	11	ProbeTrack	10.4	SCS215a	20100706.105519	20100706.105955	8	0.013327	60	0	60-180	60	141	NoGap	1	32	2	1	1	target	1	973	514	12371	13.328	13.256	13.365
ProbeTrackDT01	11	ProbeTrack	10.4	SCS215a	20100706.105519	20100706.110001	8	0.013327	60	0	60-180	60	155	NoGap	1	33	2	0	1	target	1	720	640	13011	13.328	13.293	13.363
ProbeTrackDT01	11	ProbeTrack	10.4	SCS215a	20100706.105519	20100706.110007	8	0.013327	60	0	60-180	60	128	NoGap	1	34	2	2	0	distractor	1	1053	474	13485	13.328	13.293	13.366
ProbeTrackDT01	11	ProbeTrack	10.4	SCS215a	20100706.105519	20100706.110013	8	0.013327	60	0	60-180	60	84	NoGap	1	35	2	75	1	target	1	800	600	14085	13.328	13.107	13.550
ProbeTrackDT01	11	ProbeTrack	10.4	SCS215a	20100706.105519	20100706.110019	8	0.013327	60	0	60-180	60	156	NoGap	1	36	2	0	0	distractor	1	1613	194	14279	13.328	13.175	13.479
ProbeTrackDT01	11	ProbeTrack	10.4	SCS215a	20100706.105519	20100706.110026	8	0.013327	60	0	60-180	60	121	NoGap	1	37	2	2	0	distractor	1	1067	467	14746	13.328	13.182	13.508
ProbeTrackDT01	11	ProbeTrack	10.4	SCS215a	20100706.105519	20100706.110032	8	0.013327	60	0	60-180	60	129	NoGap	1	38	2	2	1	target	1	592	704	15450	13.328	13.129	13.493
ProbeTrackDT01	11	ProbeTrack	10.4	SCS215a	20100706.105519	20100706.110038	8	0.013327	60	0	60-180	60	96	NoGap	1	39	2	4	0	distractor	1	880	560	16010	13.328	13.002	13.688
ProbeTrackDT01	11	ProbeTrack	10.4	SCS215a	20100706.105519	20100706.110043	8	0.013327	60	0	60-180	60	86	NoGap	1	40	2	75	1	target	1	653	674	16684	13.328	13.293	13.363
ProbeTrackDT01	11	ProbeTrack	10.4	SCS215a	20100706.110155	20100706.110204	8	0.013328	60	10	60-180	60	141	GapPrac	1	1	2	1	0	distractor	1	987	507	17191	13.328	13.189	13.433
ProbeTrackDT01	11	ProbeTrack	10.4	SCS215a	20100706.110155	20100706.110210	8	0.013328	60	10	60-180	60	93	GapPrac	1	2	2	0	1	distractor	0	1453	-1000	16191	13.328	13.075	13.581
ProbeTrackDT01	11	ProbeTrack	10.4	SCS215a	20100706.110155	20100706.110217	8	0.013328	60	10	60-180	60	139	GapPrac	1	3	2	4	1	target	1	1386	307	16498	13.328	13.293	13.363
ProbeTrackDT01	11	ProbeTrack	10.4	SCS215a	20100706.110155	20100706.110223	8	0.013328	60	10	60-180	60	177	GapPrac	1	4	2	1	1	target	1	1213	394	16892	13.328	13.223	13.433
ProbeTrackDT01	11	ProbeTrack	10.4	SCS215a	20100706.110155	20100706.110230	8	0.013328	60	10	60-180	60	95	GapPrac	1	5	2	2	0	target	0	920	-1000	15892	13.328	13.088	13.568
ProbeTrackDT01	11	ProbeTrack	10.4	SCS215a	20100706.110155	20100706.110236	8	0.013328	60	10	60-180	60	135	GapPrac	1	6	2	75	0	target	0	1640	-1000	14892	13.328	13.293	13.363
ProbeTrackDT01	11	ProbeTrack	10.4	SCS215a	20100706.110155	20100706.110244	8	0.013328	60	10	60-180	60	175	GapPrac	1	7	2	2	1	target	1	2093	0	14892	13.328	13.099	13.524
ProbeTrackDT01	11	ProbeTrack	10.4	SCS215a	20100706.110155	20100706.110252	8	0.013328	60	10	60-180	60	86	GapPrac	1	8	2	2	1	target	1	1506	247	15139	13.328	13.154	13.501
ProbeTrackDT01	11	ProbeTrack	10.4	SCS215a	20100706.110155	20100706.110258	8	0.013328	60	10	60-180	60	91	GapPrac	1	9	2	2	0	distractor	1	1506	247	15386	13.328	13.293	13.396
ProbeTrackDT01	11	ProbeTrack	10.4	SCS215a	20100706.110155	20100706.110304	8	0.013328	60	10	60-180	60	135	GapPrac	1	10	2	75	1	target	1	1186	407	15793	13.328	13.293	13.364
ProbeTrackDT01	11	ProbeTrack	10.4	SCS215a	20100706.110155	20100706.110312	8	0.013328	60	10	60-180	60	68	GapPrac	1	11	2	4	0	distractor	1	1613	194	15987	13.328	13.265	13.393
ProbeTrackDT01	11	ProbeTrack	10.4	SCS215a	20100706.110155	20100706.110318	8	0.013328	60	10	60-180	60	89	GapPrac	1	12	2	0	1	target	1	1226	387	16374	13.328	13.104	13.551
ProbeTrackDT01	11	ProbeTrack	10.4	SCS215a	20100706.110155	20100706.110324	8	0.013328	60	10	60-180	60	169	GapPrac	1	13	2	1	1	target	1	907	547	16921	13.328	13.293	13.363
ProbeTrackDT01	11	ProbeTrack	10.4	SCS215a	20100706.110155	20100706.110331	8	0.013328	60	10	60-180	60	90	GapPrac	1	14	2	1	0	target	0	1586	-1000	15921	13.328	13.041	13.614
ProbeTrackDT01	11	ProbeTrack	10.4	SCS215a	20100706.110155	20100706.110337	8	0.013328	60	10	60-180	60	141	GapPrac	1	15	2	0	0	distractor	1	2133	0	15921	13.328	13.074	13.615
ProbeTrackDT01	11	ProbeTrack	10.4	SCS215a	20100706.110155	20100706.110344	8	0.013328	60	10	60-180	60	131	GapPrac	1	16	2	75	0	distractor	1	1813	94	16015	13.328	13.241	13.402
ProbeTrackDT01	11	ProbeTrack	10.4	SCS215a	20100706.110155	20100706.110353	8	0.013328	60	10	60-180	60	94	GapPrac	1	17	2	75	1	target	1	1813	94	16109	13.328	13.164	13.492
ProbeTrackDT01	11	ProbeTrack	10.4	SCS215a	20100706.110155	20100706.110400	8	0.013328	60	10	60-180	60	169	GapPrac	1	18	2	0	0	distractor	1	1413	294	16403	13.328	12.962	13.660
ProbeTrackDT01	11	ProbeTrack	10.4	SCS215a	20100706.110155	20100706.110407	8	0.013328	60	10	60-180	60	180	GapPrac	1	19	2	4	1	target	1	787	607	17010	13.328	13.146	13.509
ProbeTrackDT01	11	ProbeTrack	10.4	SCS215a	20100706.110155	20100706.110414	8	0.013328	60	10	60-180	60	80	GapPrac	1	20	2	4	0	distractor	1	1266	367	17377	13.328	13.289	13.363
ProbeTrackDT01	11	ProbeTrack	10.4	SCS215a	20100706.110447	20100706.110453	8	0.013328	60	10	60-180	60	93	GapPrac	1	1	2	75	0	distractor	1	1093	454	17831	13.328	13.293	13.363
ProbeTrackDT01	11	ProbeTrack	10.4	SCS215a	20100706.110447	20100706.110500	8	0.013328	60	10	60-180	60	173	GapPrac	1	2	2	2	0	target	0	1200	-1000	16831	13.328	13.293	13.363
ProbeTrackDT01	11	ProbeTrack	10.4	SCS215a	20100706.110447	20100706.110507	8	0.013328	60	10	60-180	60	124	GapPrac	1	3	2	2	0	distractor	1	2906	0	16831	13.328	13.292	13.364
ProbeTrackDT01	11	ProbeTrack	10.4	SCS215a	20100706.110447	20100706.110515	8	0.013328	60	10	60-180	60	68	GapPrac	1	4	2	75	0	distractor	1	1466	267	17098	13.328	13.236	13.454
ProbeTrackDT01	11	ProbeTrack	10.4	SCS215a	20100706.110447	20100706.110522	8	0.013328	60	10	60-180	60	113	GapPrac	1	5	2	75	1	target	1	840	580	17678	13.328	13.293	13.363
ProbeTrackDT01	11	ProbeTrack	10.4	SCS215a	20100706.110447	20100706.110529	8	0.013328	60	10	60-180	60	141	GapPrac	1	6	2	4	0	distractor	1	1426	287	17965	13.328	13.292	13.363
ProbeTrackDT01	11	ProbeTrack	10.4	SCS215a	20100706.110447	20100706.110536	8	0.013328	60	10	60-180	60	162	GapPrac	1	7	2	4	0	distractor	1	1173	414	18379	13.328	13.290	13.367
ProbeTrackDT01	11	ProbeTrack	10.4	SCS215a	20100706.110447	20100706.110543	8	0.013328	60	10	60-180	60	124	GapPrac	1	8	2	75	1	target	1	693	654	19033	13.328	13.293	13.363
ProbeTrackDT01	11	ProbeTrack	10.4	SCS215a	20100706.110447	20100706.110550	8	0.013328	60	10	60-180	60	71	GapPrac	1	9	2	4	1	target	1	1333	334	19367	13.328	13.293	13.363
ProbeTrackDT01	11	ProbeTrack	10.4	SCS215a	20100706.110447	20100706.110555	8	0.013328	60	10	60-180	60	125	GapPrac	1	10	2	0	0	distractor	1	1400	300	19667	13.328	13.291	13.366
ProbeTrackDT01	11	ProbeTrack	10.4	SCS215a	20100706.110447	20100706.110602	8	0.013328	60	10	60-180	60	70	GapPrac	1	11	2	0	0	target	0	1586	-1000	18667	13.328	13.293	13.363
ProbeTrackDT01	11	ProbeTrack	10.4	SCS215a	20100706.110447	20100706.110608	8	0.013328	60	10	60-180	60	176	GapPrac	1	12	2	0	1	target	1	1240	380	19047	13.328	13.292	13.363
ProbeTrackDT01	11	ProbeTrack	10.4	SCS215a	20100706.110447	20100706.110615	8	0.013328	60	10	60-180	60	125	GapPrac	1	13	2	2	1	target	1	907	547	19594	13.328	13.290	13.365
ProbeTrackDT01	11	ProbeTrack	10.4	SCS215a	20100706.110447	20100706.110621	8	0.013328	60	10	60-180	60	97	GapPrac	1	14	2	1	1	target	1	1173	414	20008	13.328	13.293	13.363
ProbeTrackDT01	11	ProbeTrack	10.4	SCS215a	20100706.110447	20100706.110627	8	0.013328	60	10	60-180	60	177	GapPrac	1	15	2	1	0	distractor	1	1413	294	20302	13.328	13.203	13.417
ProbeTrackDT01	11	ProbeTrack	10.4	SCS215a	20100706.110447	20100706.110634	8	0.013328	60	10	60-180	60	62	GapPrac	1	16	2	1	0	distractor	1	1493	254	20556	13.328	13.090	13.566
ProbeTrackDT01	11	ProbeTrack	10.4	SCS215a	20100706.110447	20100706.110640	8	0.013328	60	10	60-180	60	113	GapPrac	1	17	2	2	1	target	1	1000	500	21056	13.328	13.153	13.535
ProbeTrackDT01	11	ProbeTrack	10.4	SCS215a	20100706.110447	20100706.110646	8	0.013328	60	10	60-180	60	79	GapPrac	1	18	2	1	1	target	1	1027	487	21543	13.328	13.293	13.363
ProbeTrackDT01	11	ProbeTrack	10.4	SCS215a	20100706.110447	20100706.110651	8	0.013328	60	10	60-180	60	117	GapPrac	1	19	2	4	1	target	1	787	607	22150	13.328	13.293	13.363
ProbeTrackDT01	11	ProbeTrack	10.4	SCS215a	20100706.110447	20100706.110657	8	0.013328	60	10	60-180	60	124	GapPrac	1	20	2	0	1	target	1	960	520	22670	13.328	13.288	13.366
ProbeTrackDT01	11	ProbeTrack	10.4	SCS215a	20100706.110910	20100706.110917	8	0.013328	60	10	60-180	60	90	GapExp	1	1	2	4	1	target	1	3172	0	22670	13.328	13.293	13.363
ProbeTrackDT01	11	ProbeTrack	10.4	SCS215a	20100706.110910	20100706.110925	8	0.013328	60	10	60-180	60	99	GapExp	1	2	2	75	0	distractor	1	1333	334	23004	13.328	13.293	13.363
ProbeTrackDT01	11	ProbeTrack	10.4	SCS215a	20100706.110910	20100706.110932	8	0.013328	60	10	60-180	60	62	GapExp	1	3	2	2	0	target	0	1573	-1000	22004	13.328	13.293	13.363
ProbeTrackDT01	11	ProbeTrack	10.4	SCS215a	20100706.110910	20100706.110938	8	0.013328	60	10	60-180	60	140	GapExp	1	4	2	2	1	distractor	0	1880	-1000	21004	13.328	13.131	13.491
ProbeTrackDT01	11	ProbeTrack	10.4	SCS215a	20100706.110910	20100706.110945	8	0.013328	60	10	60-180	60	140	GapExp	1	5	2	1	1	distractor	0	8477	-1000	20004	13.328	13.293	13.382
ProbeTrackDT01	11	ProbeTrack	10.4	SCS215a	20100706.110910	20100706.110959	8	0.013328	60	10	60-180	60	65	GapExp	1	6	2	0	1	target	1	3439	0	20004	13.328	13.293	13.363
ProbeTrackDT01	11	ProbeTrack	10.4	SCS215a	20100706.110910	20100706.111007	8	0.013328	60	10	60-180	60	123	GapExp	1	7	2	1	0	distractor	1	1653	174	20178	13.328	13.169	13.520
ProbeTrackDT01	11	ProbeTrack	10.4	SCS215a	20100706.110910	20100706.111013	8	0.013328	60	10	60-180	60	117	GapExp	1	8	2	4	0	distractor	1	1613	194	20372	13.328	13.163	13.527
ProbeTrackDT01	11	ProbeTrack	10.4	SCS215a	20100706.110910	20100706.111020	8	0.013328	60	10	60-180	60	175	GapExp	1	9	2	0	0	distractor	1	1346	327	20699	13.328	13.202	13.419
ProbeTrackDT01	11	ProbeTrack	10.4	SCS215a	20100706.110910	20100706.111027	8	0.013328	60	10	60-180	60	137	GapExp	1	10	2	75	1	distractor	0	9077	-1000	19699	13.328	13.293	13.363
ProbeTrackDT01	11	ProbeTrack	10.4	SCS215a	20100706.110910	20100706.111043	8	0.013328	60	10	60-180	60	159	GapExp	0	11	2	4	0	target	0	800	-1000	18699	13.328	13.293	13.365
ProbeTrackDT01	11	ProbeTrack	10.4	SCS215a	20100706.110910	20100706.111049	8	0.013328	60	10	60-180	60	125	GapExp	0	12	2	4	1	target	1	1666	167	18866	13.328	13.293	13.363
ProbeTrackDT01	11	ProbeTrack	10.4	SCS215a	20100706.110910	20100706.111056	8	0.013328	60	10	60-180	60	121	GapExp	0	13	2	1	0	target	0	4012	-1000	17866	13.328	13.220	13.469
ProbeTrackDT01	11	ProbeTrack	10.4	SCS215a	20100706.110910	20100706.111105	8	0.013328	60	10	60-180	60	164	GapExp	0	14	2	0	0	distractor	1	1053	474	18340	13.328	13.050	13.604
ProbeTrackDT01	11	ProbeTrack	10.4	SCS215a	20100706.110910	20100706.111112	8	0.013328	60	10	60-180	60	115	GapExp	0	15	2	1	0	target	0	1333	-1000	17340	13.328	13.292	13.364
ProbeTrackDT01	11	ProbeTrack	10.4	SCS215a	20100706.110910	20100706.111118	8	0.013328	60	10	60-180	60	89	GapExp	0	16	2	75	0	target	0	4518	-1000	16340	13.328	13.293	13.363
ProbeTrackDT01	11	ProbeTrack	10.4	SCS215a	20100706.110910	20100706.111128	8	0.013328	60	10	60-180	60	149	GapExp	0	17	2	0	0	distractor	1	1933	34	16374	13.328	13.282	13.363
ProbeTrackDT01	11	ProbeTrack	10.4	SCS215a	20100706.110910	20100706.111136	8	0.013328	60	10	60-180	60	105	GapExp	0	18	2	0	1	target	1	1560	220	16594	13.328	13.293	13.363
ProbeTrackDT01	11	ProbeTrack	10.4	SCS215a	20100706.110910	20100706.111142	8	0.013328	60	10	60-180	60	73	GapExp	0	19	2	0	0	distractor	1	1960	20	16614	13.328	13.179	13.510
ProbeTrackDT01	11	ProbeTrack	10.4	SCS215a	20100706.110910	20100706.111148	8	0.013328	60	10	60-180	60	144	GapExp	0	20	2	1	0	target	0	1960	-1000	15614	13.328	13.293	13.364
ProbeTrackDT01	11	ProbeTrack	10.4	SCS215a	20100706.110910	20100706.111156	8	0.013328	60	10	60-180	60	90	GapExp	0	21	2	1	1	target	1	6318	0	15614	13.328	13.263	13.425
ProbeTrackDT01	11	ProbeTrack	10.4	SCS215a	20100706.110910	20100706.111207	8	0.013328	60	10	60-180	60	146	GapExp	0	22	2	75	0	distractor	1	6638	0	15614	13.328	13.291	13.363
ProbeTrackDT01	11	ProbeTrack	10.4	SCS215a	20100706.110910	20100706.111220	8	0.013328	60	10	60-180	60	89	GapExp	0	23	2	1	0	target	0	1748	-1000	14614	13.328	12.959	13.663
ProbeTrackDT01	11	ProbeTrack	10.4	SCS215a	20100706.110910	20100706.111226	8	0.013328	60	10	60-180	60	101	GapExp	0	24	2	75	1	target	1	8717	0	14614	13.328	13.158	13.482
ProbeTrackDT01	11	ProbeTrack	10.4	SCS215a	20100706.110910	20100706.111240	8	0.013328	60	10	60-180	60	117	GapExp	0	25	2	0	0	target	0	3825	-1000	13614	13.328	13.103	13.553
ProbeTrackDT01	11	ProbeTrack	10.4	SCS215a	20100706.110910	20100706.111249	8	0.013328	60	10	60-180	60	172	GapExp	0	26	2	0	1	target	1	1200	400	14014	13.328	13.202	13.477
ProbeTrackDT01	11	ProbeTrack	10.4	SCS215a	20100706.110910	20100706.111256	8	0.013328	60	10	60-180	60	149	GapExp	0	27	2	1	1	target	1	1226	387	14401	13.328	13.239	13.451
ProbeTrackDT01	11	ProbeTrack	10.4	SCS215a	20100706.110910	20100706.111303	8	0.013328	60	10	60-180	60	108	GapExp	0	28	2	0	1	target	1	1493	254	14655	13.328	13.023	13.667
ProbeTrackDT01	11	ProbeTrack	10.4	SCS215a	20100706.110910	20100706.111309	8	0.013328	60	10	60-180	60	123	GapExp	0	29	2	0	1	distractor	0	1360	-1000	13655	13.328	13.159	13.496
ProbeTrackDT01	11	ProbeTrack	10.4	SCS215a	20100706.110910	20100706.111316	8	0.013328	60	10	60-180	60	168	GapExp	0	30	2	4	1	target	1	1586	207	13862	13.328	13.100	13.557
ProbeTrackDT01	11	ProbeTrack	10.4	SCS215a	20100706.110910	20100706.111323	8	0.013328	60	10	60-180	60	64	GapExp	0	31	2	1	1	target	1	1453	274	14136	13.328	13.168	13.488
ProbeTrackDT01	11	ProbeTrack	10.4	SCS215a	20100706.110910	20100706.111329	8	0.013328	60	10	60-180	60	100	GapExp	0	32	2	1	1	target	1	4079	0	14136	13.328	13.209	13.447
ProbeTrackDT01	11	ProbeTrack	10.4	SCS215a	20100706.110910	20100706.111338	8	0.013328	60	10	60-180	60	112	GapExp	0	33	2	75	1	target	1	3039	0	14136	13.328	13.293	13.363
ProbeTrackDT01	11	ProbeTrack	10.4	SCS215a	20100706.110910	20100706.111347	8	0.013328	60	10	60-180	60	161	GapExp	0	34	2	0	1	target	1	1160	420	14556	13.328	12.981	13.696
ProbeTrackDT01	11	ProbeTrack	10.4	SCS215a	20100706.110910	20100706.111353	8	0.013328	60	10	60-180	60	172	GapExp	0	35	2	75	1	target	1	3479	0	14556	13.328	13.129	13.526
ProbeTrackDT01	11	ProbeTrack	10.4	SCS215a	20100706.110910	20100706.111404	8	0.013328	60	10	60-180	60	139	GapExp	0	36	2	2	1	target	1	787	607	15163	13.328	13.293	13.363
ProbeTrackDT01	11	ProbeTrack	10.4	SCS215a	20100706.110910	20100706.111410	8	0.013328	60	10	60-180	60	135	GapExp	0	37	2	2	0	target	0	494	-1000	14163	13.328	13.158	13.531
ProbeTrackDT01	11	ProbeTrack	10.4	SCS215a	20100706.110910	20100706.111415	8	0.013328	60	10	60-180	60	93	GapExp	0	38	2	1	0	target	0	6691	-1000	13163	13.328	12.911	13.744
ProbeTrackDT01	11	ProbeTrack	10.4	SCS215a	20100706.110910	20100706.111427	8	0.013328	60	10	60-180	60	133	GapExp	0	39	2	75	0	distractor	1	1360	320	13483	13.328	13.293	13.363
ProbeTrackDT01	11	ProbeTrack	10.4	SCS215a	20100706.110910	20100706.111435	8	0.013328	60	10	60-180	60	113	GapExp	0	40	2	4	0	target	0	8570	-1000	12483	13.328	13.278	13.378
ProbeTrackDT01	11	ProbeTrack	10.4	SCS215a	20100706.110910	20100706.111448	8	0.013328	60	10	60-180	60	94	GapExp	0	41	2	0	1	distractor	0	2133	-1000	11483	13.328	13.293	13.363
ProbeTrackDT01	11	ProbeTrack	10.4	SCS215a	20100706.110910	20100706.111455	8	0.013328	60	10	60-180	60	66	GapExp	0	42	2	1	1	target	1	1826	87	11570	13.328	13.230	13.459
ProbeTrackDT01	11	ProbeTrack	10.4	SCS215a	20100706.110910	20100706.111501	8	0.013328	60	10	60-180	60	150	GapExp	0	43	2	2	1	target	1	4385	0	11570	13.328	13.292	13.364
ProbeTrackDT01	11	ProbeTrack	10.4	SCS215a	20100706.110910	20100706.111511	8	0.013328	60	10	60-180	60	165	GapExp	0	44	2	4	0	distractor	1	1426	287	11857	13.328	13.292	13.363
ProbeTrackDT01	11	ProbeTrack	10.4	SCS215a	20100706.110910	20100706.111518	8	0.013328	60	10	60-180	60	142	GapExp	0	45	2	2	1	target	1	1240	380	12237	13.328	13.224	13.431
ProbeTrackDT01	11	ProbeTrack	10.4	SCS215a	20100706.110910	20100706.111525	8	0.013328	60	10	60-180	60	131	GapExp	0	46	2	2	0	distractor	1	2399	0	12237	13.328	13.226	13.439
ProbeTrackDT01	11	ProbeTrack	10.4	SCS215a	20100706.110910	20100706.111532	8	0.013328	60	10	60-180	60	157	GapExp	0	47	2	2	1	target	1	1226	387	12624	13.328	12.996	13.660
ProbeTrackDT01	11	ProbeTrack	10.4	SCS215a	20100706.110910	20100706.111539	8	0.013328	60	10	60-180	60	140	GapExp	0	48	2	2	0	distractor	1	827	587	13211	13.328	12.844	13.778
ProbeTrackDT01	11	ProbeTrack	10.4	SCS215a	20100706.110910	20100706.111545	8	0.013328	60	10	60-180	60	152	GapExp	0	49	2	75	0	target	0	3972	-1000	12211	13.328	13.177	13.464
ProbeTrackDT01	11	ProbeTrack	10.4	SCS215a	20100706.110910	20100706.111556	8	0.013328	60	10	60-180	60	148	GapExp	0	50	2	4	0	distractor	1	1960	20	12231	13.328	12.940	13.714
ProbeTrackDT01	11	ProbeTrack	10.4	SCS215a	20100706.110910	20100706.111621	8	0.013328	60	10	60-180	60	114	GapExp	0	51	2	4	1	target	1	1906	47	12278	13.328	13.290	13.366
ProbeTrackDT01	11	ProbeTrack	10.4	SCS215a	20100706.110910	20100706.111628	8	0.013328	60	10	60-180	60	115	GapExp	0	52	2	1	0	target	0	2213	-1000	11278	13.328	13.293	13.363
ProbeTrackDT01	11	ProbeTrack	10.4	SCS215a	20100706.110910	20100706.111636	8	0.013328	60	10	60-180	60	92	GapExp	0	53	2	1	1	target	1	4958	0	11278	13.328	13.289	13.366
ProbeTrackDT01	11	ProbeTrack	10.4	SCS215a	20100706.110910	20100706.111645	8	0.013328	60	10	60-180	60	159	GapExp	0	54	2	0	0	distractor	1	1160	420	11698	13.328	13.285	13.367
ProbeTrackDT01	11	ProbeTrack	10.4	SCS215a	20100706.110910	20100706.111652	8	0.013328	60	10	60-180	60	120	GapExp	0	55	2	1	0	distractor	1	1013	494	12192	13.328	13.247	13.376
ProbeTrackDT01	11	ProbeTrack	10.4	SCS215a	20100706.110910	20100706.111658	8	0.013328	60	10	60-180	60	82	GapExp	0	56	2	2	1	target	1	1440	280	12472	13.328	13.293	13.363
ProbeTrackDT01	11	ProbeTrack	10.4	SCS215a	20100706.110910	20100706.111704	8	0.013328	60	10	60-180	60	97	GapExp	0	57	2	0	0	target	0	1440	-1000	11472	13.328	13.018	13.638
ProbeTrackDT01	11	ProbeTrack	10.4	SCS215a	20100706.110910	20100706.111710	8	0.013328	60	10	60-180	60	140	GapExp	0	58	2	2	0	distractor	1	2066	0	11472	13.328	13.292	13.369
ProbeTrackDT01	11	ProbeTrack	10.4	SCS215a	20100706.110910	20100706.111718	8	0.013328	60	10	60-180	60	169	GapExp	0	59	2	75	0	target	0	2972	-1000	10472	13.328	13.025	13.606
ProbeTrackDT01	11	ProbeTrack	10.4	SCS215a	20100706.110910	20100706.111727	8	0.013328	60	10	60-180	60	72	GapExp	0	60	2	75	1	target	1	1000	500	10972	13.328	13.293	13.363
ProbeTrackDT01	11	ProbeTrack	10.4	SCS215a	20100706.110910	20100706.111734	8	0.013328	60	10	60-180	60	152	GapExp	0	61	2	75	0	target	0	1760	-1000	9972	13.435	13.006	27.126
ProbeTrackDT01	11	ProbeTrack	10.4	SCS215a	20100706.110910	20100706.111742	8	0.013328	60	10	60-180	60	162	GapExp	0	62	2	4	0	target	0	5571	-1000	8972	13.328	13.266	13.389
ProbeTrackDT01	11	ProbeTrack	10.4	SCS215a	20100706.110910	20100706.111753	8	0.013328	60	10	60-180	60	137	GapExp	0	63	2	2	1	distractor	0	2119	-1000	7972	13.375	13.186	26.656
ProbeTrackDT01	11	ProbeTrack	10.4	SCS215a	20100706.110910	20100706.111801	8	0.013328	60	10	60-180	60	148	GapExp	0	64	2	4	1	target	1	1133	434	8406	13.328	13.234	13.455
ProbeTrackDT01	11	ProbeTrack	10.4	SCS215a	20100706.110910	20100706.111807	8	0.013328	60	10	60-180	60	108	GapExp	0	65	2	0	1	target	1	1946	27	8433	13.328	13.280	13.378
ProbeTrackDT01	11	ProbeTrack	10.4	SCS215a	20100706.110910	20100706.111814	8	0.013328	60	10	60-180	60	76	GapExp	0	66	2	4	1	target	1	1493	254	8687	13.328	12.980	13.641
ProbeTrackDT01	11	ProbeTrack	10.4	SCS215a	20100706.110910	20100706.111820	8	0.013328	60	10	60-180	60	153	GapExp	0	67	2	1	1	target	1	1346	327	9014	13.328	13.240	13.416
ProbeTrackDT01	11	ProbeTrack	10.4	SCS215a	20100706.110910	20100706.111827	8	0.013328	60	10	60-180	60	119	GapExp	0	68	2	1	1	target	1	4385	0	9014	13.428	12.806	39.832
ProbeTrackDT01	11	ProbeTrack	10.4	SCS215a	20100706.110910	20100706.111836	8	0.013328	60	10	60-180	60	62	GapExp	0	69	2	75	0	target	0	1653	-1000	8014	13.328	13.290	13.363
ProbeTrackDT01	11	ProbeTrack	10.4	SCS215a	20100706.110910	20100706.111843	8	0.013328	60	10	60-180	60	81	GapExp	0	70	2	4	1	target	1	2840	0	8014	13.328	13.293	13.368
ProbeTrackDT01	11	ProbeTrack	10.4	SCS215a	20100706.110910	20100706.111851	8	0.013328	60	10	60-180	60	66	GapExp	0	71	2	75	1	target	1	2293	0	8014	13.374	13.117	26.620
ProbeTrackDT01	11	ProbeTrack	10.4	SCS215a	20100706.110910	20100706.111859	8	0.013328	60	10	60-180	60	136	GapExp	0	72	2	75	0	distractor	1	1760	120	8134	13.328	13.292	13.363
ProbeTrackDT01	11	ProbeTrack	10.4	SCS215a	20100706.110910	20100706.111907	8	0.013328	60	10	60-180	60	85	GapExp	0	73	2	2	1	target	1	6078	0	8134	13.328	13.293	13.363
ProbeTrackDT01	11	ProbeTrack	10.4	SCS215a	20100706.110910	20100706.111917	8	0.013328	60	10	60-180	60	90	GapExp	0	74	2	4	0	distractor	1	1453	274	8408	13.328	13.090	13.531
ProbeTrackDT01	11	ProbeTrack	10.4	SCS215a	20100706.110910	20100706.111923	8	0.013328	60	10	60-180	60	167	GapExp	0	75	2	75	1	target	1	867	567	8975	13.328	13.218	13.420
ProbeTrackDT01	11	ProbeTrack	10.4	SCS215a	20100706.110910	20100706.111931	8	0.013328	60	10	60-180	60	158	GapExp	0	76	2	1	1	target	1	2599	0	8975	13.328	13.135	13.524
ProbeTrackDT01	11	ProbeTrack	10.4	SCS215a	20100706.110910	20100706.111939	8	0.013328	60	10	60-180	60	84	GapExp	0	77	2	75	0	distractor	1	1400	300	9275	13.328	13.293	13.363
ProbeTrackDT01	11	ProbeTrack	10.4	SCS215a	20100706.110910	20100706.111946	8	0.013328	60	10	60-180	60	129	GapExp	0	78	2	4	1	target	1	1680	160	9435	13.328	13.291	13.365
ProbeTrackDT01	11	ProbeTrack	10.4	SCS215a	20100706.110910	20100706.111953	8	0.013328	60	10	60-180	60	122	GapExp	0	79	2	2	1	distractor	0	1813	-1000	8435	13.328	13.178	13.478
ProbeTrackDT01	11	ProbeTrack	10.4	SCS215a	20100706.110910	20100706.112000	8	0.013328	60	10	60-180	60	102	GapExp	0	80	2	0	1	target	1	1013	494	8929	13.328	13.225	13.413
ProbeTrackDT01	11	ProbeTrack	10.4	SCS215a	20100706.110910	20100706.112006	8	0.013328	60	10	60-180	60	100	GapExp	0	81	2	0	1	target	1	893	554	9483	13.328	13.190	13.465
ProbeTrackDT01	11	ProbeTrack	10.4	SCS215a	20100706.110910	20100706.112011	8	0.013328	60	10	60-180	60	160	GapExp	0	82	2	4	0	distractor	1	1786	107	9590	13.328	13.291	13.363
ProbeTrackDT01	11	ProbeTrack	10.4	SCS215a	20100706.110910	20100706.112019	8	0.013328	60	10	60-180	60	99	GapExp	0	83	2	1	0	target	0	7544	-1000	8590	13.328	13.293	13.363
ProbeTrackDT01	11	ProbeTrack	10.4	SCS215a	20100706.110910	20100706.112031	8	0.013328	60	10	60-180	60	93	GapExp	0	84	2	2	1	target	1	867	567	9157	13.328	13.100	13.555
ProbeTrackDT01	11	ProbeTrack	10.4	SCS215a	20100706.110910	20100706.112037	8	0.013328	60	10	60-180	60	151	GapExp	0	85	2	1	0	distractor	1	1160	420	9577	13.328	13.111	13.546
ProbeTrackDT01	11	ProbeTrack	10.4	SCS215a	20100706.110910	20100706.112043	8	0.013328	60	10	60-180	60	127	GapExp	0	86	2	0	1	distractor	0	6877	-1000	8577	13.328	13.207	13.450
ProbeTrackDT01	11	ProbeTrack	10.4	SCS215a	20100706.110910	20100706.112055	8	0.013328	60	10	60-180	60	141	GapExp	0	87	2	1	0	distractor	1	1800	100	8677	13.328	13.200	13.490
ProbeTrackDT01	11	ProbeTrack	10.4	SCS215a	20100706.110910	20100706.112103	8	0.013328	60	10	60-180	60	170	GapExp	0	88	2	0	0	target	0	813	-1000	7677	13.328	13.206	13.484
ProbeTrackDT01	11	ProbeTrack	10.4	SCS215a	20100706.110910	20100706.112109	8	0.013328	60	10	60-180	60	149	GapExp	0	89	2	1	0	distractor	1	4305	0	7677	13.328	13.292	13.363
ProbeTrackDT01	11	ProbeTrack	10.4	SCS215a	20100706.110910	20100706.112119	8	0.013328	60	10	60-180	60	118	GapExp	0	90	2	1	0	distractor	1	1413	294	7971	13.328	13.244	13.445
ProbeTrackDT01	11	ProbeTrack	10.4	SCS215a	20100706.110910	20100706.112125	8	0.013328	60	10	60-180	60	103	GapExp	0	91	2	2	0	distractor	1	1786	107	8078	13.328	13.185	13.470
ProbeTrackDT01	11	ProbeTrack	10.4	SCS215a	20100706.110910	20100706.112132	8	0.013328	60	10	60-180	60	135	GapExp	0	92	2	75	1	target	1	1840	80	8158	13.328	12.911	13.745
ProbeTrackDT01	11	ProbeTrack	10.4	SCS215a	20100706.110910	20100706.112140	8	0.013328	60	10	60-180	60	154	GapExp	0	93	2	75	1	target	1	3239	0	8158	13.328	13.248	13.374
ProbeTrackDT01	11	ProbeTrack	10.4	SCS215a	20100706.110910	20100706.112150	8	0.013328	60	10	60-180	60	121	GapExp	0	94	2	4	1	target	1	1480	260	8418	13.328	13.291	13.367
ProbeTrackDT01	11	ProbeTrack	10.4	SCS215a	20100706.110910	20100706.112156	8	0.013328	60	10	60-180	60	110	GapExp	0	95	2	75	0	distractor	1	134	933	9351	13.328	13.151	13.506
ProbeTrackDT01	11	ProbeTrack	10.4	SCS215a	20100706.110910	20100706.112202	8	0.013328	60	10	60-180	60	84	GapExp	0	96	2	0	1	target	1	5958	0	9351	13.328	13.277	13.379
ProbeTrackDT01	11	ProbeTrack	10.4	SCS215a	20100706.110910	20100706.112213	8	0.013328	60	10	60-180	60	141	GapExp	0	97	2	4	1	target	1	2239	0	9351	13.328	13.209	13.481
ProbeTrackDT01	11	ProbeTrack	10.4	SCS215a	20100706.110910	20100706.112221	8	0.013328	60	10	60-180	60	115	GapExp	0	98	2	4	0	distractor	1	760	620	9971	13.328	13.293	13.363
ProbeTrackDT01	11	ProbeTrack	10.4	SCS215a	20100706.110910	20100706.112226	8	0.013328	60	10	60-180	60	144	GapExp	0	99	2	2	1	target	1	1266	367	10338	13.328	13.293	13.363
ProbeTrackDT01	11	ProbeTrack	10.4	SCS215a	20100706.110910	20100706.112233	8	0.013328	60	10	60-180	60	121	GapExp	0	100	2	4	1	target	1	1187	407	10745	13.328	13.289	13.365
ProbeTrackDT01	11	ProbeTrack	10.4	SCS215a	20100706.110910	20100706.112246	8	0.013328	60	10	60-180	60	83	GapExp	0	101	2	4	1	target	1	3799	0	10745	13.328	13.293	13.363
ProbeTrackDT01	11	ProbeTrack	10.4	SCS215a	20100706.110910	20100706.112254	8	0.013328	60	10	60-180	60	179	GapExp	0	102	2	0	0	target	0	2493	-1000	9745	13.328	13.153	13.481
ProbeTrackDT01	11	ProbeTrack	10.4	SCS215a	20100706.110910	20100706.112303	8	0.013328	60	10	60-180	60	156	GapExp	0	103	2	75	1	target	1	960	520	10265	13.328	13.289	13.367
ProbeTrackDT01	11	ProbeTrack	10.4	SCS215a	20100706.110910	20100706.112310	8	0.013328	60	10	60-180	60	155	GapExp	0	104	2	75	1	target	1	880	560	10825	13.328	12.945	13.678
ProbeTrackDT01	11	ProbeTrack	10.4	SCS215a	20100706.110910	20100706.112317	8	0.013328	60	10	60-180	60	64	GapExp	0	105	2	75	1	target	1	1147	427	11252	13.328	13.290	13.363
ProbeTrackDT01	11	ProbeTrack	10.4	SCS215a	20100706.110910	20100706.112324	8	0.013328	60	10	60-180	60	138	GapExp	0	106	2	4	0	target	0	1573	-1000	10252	13.328	13.293	13.363
ProbeTrackDT01	11	ProbeTrack	10.4	SCS215a	20100706.110910	20100706.112331	8	0.013328	60	10	60-180	60	124	GapExp	0	107	2	0	1	distractor	0	2506	-1000	9252	13.328	13.291	13.366
ProbeTrackDT01	11	ProbeTrack	10.4	SCS215a	20100706.110910	20100706.112338	8	0.013328	60	10	60-180	60	173	GapExp	0	108	2	4	1	target	1	734	633	9885	13.328	13.293	13.363
ProbeTrackDT01	11	ProbeTrack	10.4	SCS215a	20100706.110910	20100706.112345	8	0.013328	60	10	60-180	60	125	GapExp	0	109	2	0	1	target	1	4319	0	9885	13.328	13.293	13.363
ProbeTrackDT01	11	ProbeTrack	10.4	SCS215a	20100706.110910	20100706.112354	8	0.013328	60	10	60-180	60	177	GapExp	0	110	2	2	1	distractor	0	5012	-1000	8885	13.328	13.242	13.447
ProbeTrackDT01	11	ProbeTrack	10.4	SCS215a	20100706.110910	20100706.112405	8	0.013328	60	10	60-180	60	149	GapExp	0	111	2	1	0	target	0	1493	-1000	7885	13.328	13.226	13.429
ProbeTrackDT01	11	ProbeTrack	10.4	SCS215a	20100706.110910	20100706.112412	8	0.013328	60	10	60-180	60	98	GapExp	0	112	2	0	0	distractor	1	4972	0	7885	13.328	13.077	13.579
ProbeTrackDT01	11	ProbeTrack	10.4	SCS215a	20100706.110910	20100706.112422	8	0.013328	60	10	60-180	60	64	GapExp	0	113	2	2	0	target	0	4225	-1000	6885	13.328	13.254	13.403
ProbeTrackDT01	11	ProbeTrack	10.4	SCS215a	20100706.110910	20100706.112430	8	0.013328	60	10	60-180	60	113	GapExp	0	114	2	75	1	distractor	0	1160	-1000	5885	13.328	13.248	13.408
ProbeTrackDT01	11	ProbeTrack	10.4	SCS215a	20100706.110910	20100706.112437	8	0.013328	60	10	60-180	60	118	GapExp	0	115	2	2	0	target	0	613	-1000	4885	13.328	13.290	13.364
ProbeTrackDT01	11	ProbeTrack	10.4	SCS215a	20100706.110910	20100706.112443	8	0.013328	60	10	60-180	60	87	GapExp	0	116	2	0	1	target	1	1480	260	5145	13.328	13.293	13.362
ProbeTrackDT01	11	ProbeTrack	10.4	SCS215a	20100706.110910	20100706.112449	8	0.013328	60	10	60-180	60	109	GapExp	0	117	2	75	0	target	0	3132	-1000	4145	13.328	13.243	13.414
ProbeTrackDT01	11	ProbeTrack	10.4	SCS215a	20100706.110910	20100706.112458	8	0.013328	60	10	60-180	60	140	GapExp	0	118	2	2	1	target	1	1693	154	4299	13.328	13.018	13.638
ProbeTrackDT01	11	ProbeTrack	10.4	SCS215a	20100706.110910	20100706.112505	8	0.013328	60	10	60-180	60	103	GapExp	0	119	2	2	1	target	1	1666	167	4466	13.328	13.230	13.426
ProbeTrackDT01	11	ProbeTrack	10.4	SCS215a	20100706.110910	20100706.112512	8	0.013328	60	10	60-180	60	65	GapExp	0	120	2	2	0	target	0	2146	-1000	3466	13.328	13.293	13.363
ProbeTrackDT01	11	ProbeTrack	10.4	SCS215a	20100706.110910	20100706.112518	8	0.013328	60	10	60-180	60	120	GapExp	0	121	2	4	1	target	1	1280	360	3826	13.328	13.229	13.392
ProbeTrackDT01	11	ProbeTrack	10.4	SCS215a	20100706.110910	20100706.112525	8	0.013328	60	10	60-180	60	127	GapExp	0	122	2	4	0	target	0	1280	-1000	2826	13.328	13.169	13.395
ProbeTrackDT01	11	ProbeTrack	10.4	SCS215a	20100706.110910	20100706.112531	8	0.013328	60	10	60-180	60	67	GapExp	0	123	2	75	0	distractor	1	1746	127	2953	13.328	13.128	13.562
ProbeTrackDT01	11	ProbeTrack	10.4	SCS215a	20100706.110910	20100706.112538	8	0.013328	60	10	60-180	60	129	GapExp	0	124	2	75	0	distractor	1	1386	307	3260	13.328	13.221	13.400
ProbeTrackDT01	11	ProbeTrack	10.4	SCS215a	20100706.110910	20100706.112546	8	0.013328	60	10	60-180	60	137	GapExp	0	125	2	2	0	target	0	5411	-1000	2260	13.328	13.293	13.363
ProbeTrackDT01	11	ProbeTrack	10.4	SCS215a	20100706.110910	20100706.112556	8	0.013328	60	10	60-180	60	81	GapExp	0	126	2	0	0	target	0	1896	-1000	1260	13.328	13.144	13.512
ProbeTrackDT01	11	ProbeTrack	10.4	SCS215a	20100706.110910	20100706.112603	8	0.013328	60	10	60-180	60	69	GapExp	0	127	2	0	0	target	0	1960	-1000	260	13.328	13.252	13.438
ProbeTrackDT01	11	ProbeTrack	10.4	SCS215a	20100706.110910	20100706.112609	8	0.013328	60	10	60-180	60	62	GapExp	0	128	2	75	1	distractor	0	1933	-1000	-740	13.328	13.293	13.363
ProbeTrackDT01	11	ProbeTrack	10.4	SCS215a	20100706.110910	20100706.112616	8	0.013328	60	10	60-180	60	126	GapExp	0	129	2	0	1	target	1	1280	360	-380	13.328	13.293	13.363
ProbeTrackDT01	11	ProbeTrack	10.4	SCS215a	20100706.110910	20100706.112623	8	0.013328	60	10	60-180	60	87	GapExp	0	130	2	1	0	distractor	1	3279	0	-380	13.328	13.293	13.363
ProbeTrackDT01	11	ProbeTrack	10.4	SCS215a	20100706.110910	20100706.112631	8	0.013328	60	10	60-180	60	80	GapExp	0	131	2	2	1	target	1	1133	434	54	13.328	13.052	13.631
ProbeTrackDT01	11	ProbeTrack	10.4	SCS215a	20100706.110910	20100706.112636	8	0.013328	60	10	60-180	60	72	GapExp	0	132	2	1	1	target	1	1720	140	194	13.328	13.161	13.528
ProbeTrackDT01	11	ProbeTrack	10.4	SCS215a	20100706.110910	20100706.112643	8	0.013328	60	10	60-180	60	156	GapExp	0	133	2	1	1	target	1	1320	340	534	13.328	13.289	13.363
ProbeTrackDT01	11	ProbeTrack	10.4	SCS215a	20100706.110910	20100706.112649	8	0.013328	60	10	60-180	60	95	GapExp	0	134	2	2	1	target	1	2306	0	534	13.328	13.293	13.363
ProbeTrackDT01	11	ProbeTrack	10.4	SCS215a	20100706.110910	20100706.112656	8	0.013328	60	10	60-180	60	63	GapExp	0	135	2	4	0	target	0	2853	-1000	-466	13.328	13.168	13.489
ProbeTrackDT01	11	ProbeTrack	10.4	SCS215a	20100706.110910	20100706.112704	8	0.013328	60	10	60-180	60	116	GapExp	0	136	2	75	1	distractor	0	1786	-1000	-1466	13.328	13.293	13.363
ProbeTrackDT01	11	ProbeTrack	10.4	SCS215a	20100706.110910	20100706.112711	8	0.013328	60	10	60-180	60	116	GapExp	0	137	2	4	0	target	0	1466	-1000	-2466	13.328	13.289	13.363
ProbeTrackDT01	11	ProbeTrack	10.4	SCS215a	20100706.110910	20100706.112718	8	0.013328	60	10	60-180	60	68	GapExp	0	138	2	4	1	target	1	1893	54	-2412	13.328	13.187	13.502
ProbeTrackDT01	11	ProbeTrack	10.4	SCS215a	20100706.110910	20100706.112724	8	0.013328	60	10	60-180	60	170	GapExp	0	139	2	1	0	target	0	640	-1000	-3412	13.328	12.983	13.640
ProbeTrackDT01	11	ProbeTrack	10.4	SCS215a	20100706.110910	20100706.112731	8	0.013328	60	10	60-180	60	175	GapExp	0	140	2	0	0	distractor	1	1506	247	-3165	13.328	13.293	13.363
ProbeTrackDT01	11	ProbeTrack	10.4	SCS215a	20100706.110910	20100706.112738	8	0.013328	60	10	60-180	60	118	GapExp	0	141	2	2	0	target	0	1227	-1000	-4165	13.328	13.089	13.567
ProbeTrackDT01	11	ProbeTrack	10.4	SCS215a	20100706.110910	20100706.112744	8	0.013328	60	10	60-180	60	162	GapExp	0	142	2	1	0	target	0	1053	-1000	-5165	13.328	13.293	13.364
ProbeTrackDT01	11	ProbeTrack	10.4	SCS215a	20100706.110910	20100706.112751	8	0.013328	60	10	60-180	60	162	GapExp	0	143	2	2	0	distractor	1	2519	0	-5165	13.328	13.292	13.364
ProbeTrackDT01	11	ProbeTrack	10.4	SCS215a	20100706.110910	20100706.112759	8	0.013328	60	10	60-180	60	137	GapExp	0	144	2	2	0	target	0	627	-1000	-6165	13.328	13.293	13.364
ProbeTrackDT01	11	ProbeTrack	10.4	SCS215a	20100706.110910	20100706.112805	8	0.013328	60	10	60-180	60	133	GapExp	0	145	2	4	0	target	0	1320	-1000	-7165	13.328	13.292	13.363
ProbeTrackDT01	11	ProbeTrack	10.4	SCS215a	20100706.110910	20100706.112811	8	0.013328	60	10	60-180	60	153	GapExp	0	146	2	4	0	distractor	1	2146	0	-7165	13.328	13.178	13.444
ProbeTrackDT01	11	ProbeTrack	10.4	SCS215a	20100706.110910	20100706.112819	8	0.013328	60	10	60-180	60	164	GapExp	0	147	2	4	0	target	0	973	-1000	-8165	13.328	13.291	13.365
ProbeTrackDT01	11	ProbeTrack	10.4	SCS215a	20100706.110910	20100706.112826	8	0.013328	60	10	60-180	60	92	GapExp	0	148	2	75	0	target	0	1067	-1000	-9165	13.328	13.293	13.363
ProbeTrackDT01	11	ProbeTrack	10.4	SCS215a	20100706.110910	20100706.112833	8	0.013328	60	10	60-180	60	96	GapExp	0	149	2	2	1	target	1	1960	20	-9145	13.328	13.293	13.379
ProbeTrackDT01	11	ProbeTrack	10.4	SCS215a	20100706.110910	20100706.112839	8	0.013328	60	10	60-180	60	66	GapExp	0	150	2	1	1	target	1	813	594	-8551	13.328	13.179	13.477
ProbeTrackDT01	11	ProbeTrack	10.4	SCS215a	20100706.110910	20100706.112849	8	0.013328	60	10	60-180	60	68	GapExp	0	151	2	0	1	target	1	1240	380	-8171	13.328	13.198	13.491
ProbeTrackDT01	11	ProbeTrack	10.4	SCS215a	20100706.110910	20100706.112855	8	0.013328	60	10	60-180	60	116	GapExp	0	152	2	4	1	target	1	920	540	-7631	13.328	13.173	13.515
ProbeTrackDT01	11	ProbeTrack	10.4	SCS215a	20100706.110910	20100706.112901	8	0.013328	60	10	60-180	60	106	GapExp	0	153	2	4	1	target	1	920	540	-7091	13.328	13.261	13.402
ProbeTrackDT01	11	ProbeTrack	10.4	SCS215a	20100706.110910	20100706.112907	8	0.013328	60	10	60-180	60	120	GapExp	0	154	2	1	1	target	1	960	520	-6571	13.328	13.038	13.617
ProbeTrackDT01	11	ProbeTrack	10.4	SCS215a	20100706.110910	20100706.112913	8	0.013328	60	10	60-180	60	141	GapExp	0	155	2	75	0	distractor	1	1320	340	-6231	13.365	13.010	26.690
ProbeTrackDT01	11	ProbeTrack	10.4	SCS215a	20100706.110910	20100706.112921	8	0.013328	60	10	60-180	60	152	GapExp	0	156	2	4	1	target	1	627	687	-5544	13.328	13.131	13.558
ProbeTrackDT01	11	ProbeTrack	10.4	SCS215a	20100706.110910	20100706.112927	8	0.013328	60	10	60-180	60	160	GapExp	0	157	2	0	0	target	0	2613	-1000	-6544	13.328	13.293	13.363
ProbeTrackDT01	11	ProbeTrack	10.4	SCS215a	20100706.110910	20100706.112935	8	0.013328	60	10	60-180	60	99	GapExp	0	158	2	75	1	target	1	1733	134	-6410	13.328	13.293	13.363
ProbeTrackDT01	11	ProbeTrack	10.4	SCS215a	20100706.110910	20100706.112943	8	0.013328	60	10	60-180	60	168	GapExp	0	159	2	0	0	target	0	1080	-1000	-7410	13.328	13.135	13.519
ProbeTrackDT01	11	ProbeTrack	10.4	SCS215a	20100706.110910	20100706.112949	8	0.013328	60	10	60-180	60	176	GapExp	0	160	2	0	1	distractor	0	1227	-1000	-8410	13.328	13.293	13.363
ProbeTrackDT01	11	ProbeTrack	10.4	SCS215a	20100706.110910	20100706.112956	8	0.013328	60	10	60-180	60	115	GapExp	0	161	2	75	0	target	0	1120	-1000	-9410	13.328	13.292	13.365
ProbeTrackDT01	11	ProbeTrack	10.4	SCS215a	20100706.110910	20100706.113003	8	0.013328	60	10	60-180	60	98	GapExp	0	162	2	0	0	target	0	1227	-1000	-10410	13.328	13.106	13.584
ProbeTrackDT01	11	ProbeTrack	10.4	SCS215a	20100706.110910	20100706.113009	8	0.013328	60	10	60-180	60	113	GapExp	0	163	2	4	1	target	1	2786	0	-10410	13.328	13.226	13.397
ProbeTrackDT01	11	ProbeTrack	10.4	SCS215a	20100706.110910	20100706.113017	8	0.013328	60	10	60-180	60	75	GapExp	0	164	2	1	0	distractor	1	1426	287	-10123	13.328	13.293	13.363
ProbeTrackDT01	11	ProbeTrack	10.4	SCS215a	20100706.110910	20100706.113023	8	0.013328	60	10	60-180	60	148	GapExp	0	165	2	0	1	target	1	1480	260	-9863	13.328	13.257	13.433
ProbeTrackDT01	11	ProbeTrack	10.4	SCS215a	20100706.110910	20100706.113030	8	0.013328	60	10	60-180	60	94	GapExp	0	166	2	75	1	target	1	1466	267	-9596	13.328	13.291	13.363
ProbeTrackDT01	11	ProbeTrack	10.4	SCS215a	20100706.110910	20100706.113037	8	0.013328	60	10	60-180	60	90	GapExp	0	167	2	1	1	target	1	2359	0	-9596	13.328	13.165	13.526
ProbeTrackDT01	11	ProbeTrack	10.4	SCS215a	20100706.110910	20100706.113044	8	0.013328	60	10	60-180	60	106	GapExp	0	168	2	0	1	target	1	1880	60	-9536	13.328	13.293	13.363
ProbeTrackDT01	11	ProbeTrack	10.4	SCS215a	20100706.110910	20100706.113051	8	0.013328	60	10	60-180	60	147	GapExp	0	169	2	75	1	distractor	0	1293	-1000	-10536	13.328	13.293	13.363
ProbeTrackDT01	11	ProbeTrack	10.4	SCS215a	20100706.110910	20100706.113059	8	0.013328	60	10	60-180	60	94	GapExp	0	170	2	1	1	target	1	2559	0	-10536	13.328	13.293	13.365
ProbeTrackDT01	11	ProbeTrack	10.4	SCS215a	20100706.110910	20100706.113106	8	0.013328	60	10	60-180	60	63	GapExp	0	171	2	4	0	target	0	1227	-1000	-11536	13.328	13.069	13.586
ProbeTrackDT01	11	ProbeTrack	10.4	SCS215a	20100706.110910	20100706.113112	8	0.013328	60	10	60-180	60	134	GapExp	0	172	2	2	0	distractor	1	1120	440	-11096	13.328	13.029	13.628
ProbeTrackDT01	11	ProbeTrack	10.4	SCS215a	20100706.110910	20100706.113118	8	0.013328	60	10	60-180	60	114	GapExp	0	173	2	1	1	target	1	720	640	-10456	13.328	13.016	13.640
ProbeTrackDT01	11	ProbeTrack	10.4	SCS215a	20100706.110910	20100706.113124	8	0.013328	60	10	60-180	60	88	GapExp	0	174	2	4	0	target	0	627	-1000	-11456	13.328	13.293	13.363
ProbeTrackDT01	11	ProbeTrack	10.4	SCS215a	20100706.110910	20100706.113129	8	0.013328	60	10	60-180	60	65	GapExp	0	175	2	0	0	distractor	1	1240	380	-11076	13.328	13.208	13.433
ProbeTrackDT01	11	ProbeTrack	10.4	SCS215a	20100706.110910	20100706.113135	8	0.013328	60	10	60-180	60	87	GapExp	0	176	2	75	1	target	1	1560	220	-10856	13.328	13.145	13.511
ProbeTrackDT01	11	ProbeTrack	10.4	SCS215a	20100706.110910	20100706.113142	8	0.013328	60	10	60-180	60	136	GapExp	0	177	2	1	1	target	1	853	574	-10282	13.328	13.150	13.506
ProbeTrackDT01	11	ProbeTrack	10.4	SCS215a	20100706.110910	20100706.113148	8	0.013328	60	10	60-180	60	128	GapExp	0	178	2	1	0	target	0	1626	-1000	-11282	13.328	13.168	13.521
ProbeTrackDT01	11	ProbeTrack	10.4	SCS215a	20100706.110910	20100706.113155	8	0.013328	60	10	60-180	60	81	GapExp	0	179	2	2	1	distractor	0	2719	-1000	-12282	13.328	13.290	13.365
ProbeTrackDT01	11	ProbeTrack	10.4	SCS215a	20100706.110910	20100706.113202	8	0.013328	60	10	60-180	60	91	GapExp	0	180	2	4	0	distractor	1	1573	214	-12068	13.328	13.293	13.363
ProbeTrackDT01	11	ProbeTrack	10.4	SCS215a	20100706.110910	20100706.113208	8	0.013328	60	10	60-180	60	86	GapExp	0	181	2	75	1	target	1	760	620	-11448	13.328	13.197	13.436
ProbeTrackDT01	11	ProbeTrack	10.4	SCS215a	20100706.110910	20100706.113215	8	0.013328	60	10	60-180	60	61	GapExp	0	182	2	2	0	target	0	1226	-1000	-12448	13.328	13.292	13.363
ProbeTrackDT01	11	ProbeTrack	10.4	SCS215a	20100706.110910	20100706.113220	8	0.013328	60	10	60-180	60	104	GapExp	0	183	2	75	0	distractor	1	1186	407	-12041	13.328	13.293	13.393
ProbeTrackDT01	11	ProbeTrack	10.4	SCS215a	20100706.110910	20100706.113227	8	0.013328	60	10	60-180	60	75	GapExp	0	184	2	2	1	target	1	1040	480	-11561	13.328	13.270	13.420
ProbeTrackDT01	11	ProbeTrack	10.4	SCS215a	20100706.110910	20100706.113233	8	0.013328	60	10	60-180	60	133	GapExp	0	185	2	4	1	target	1	987	507	-11054	13.328	13.293	13.363
ProbeTrackDT01	11	ProbeTrack	10.4	SCS215a	20100706.110910	20100706.113239	8	0.013328	60	10	60-180	60	80	GapExp	0	186	2	2	0	distractor	1	1067	467	-10587	13.328	13.293	13.363
ProbeTrackDT01	11	ProbeTrack	10.4	SCS215a	20100706.110910	20100706.113245	8	0.013328	60	10	60-180	60	148	GapExp	0	187	2	0	0	distractor	1	1853	74	-10513	13.328	13.293	13.363
ProbeTrackDT01	11	ProbeTrack	10.4	SCS215a	20100706.110910	20100706.113252	8	0.013328	60	10	60-180	60	78	GapExp	0	188	2	1	1	target	1	947	527	-9986	13.328	13.062	13.594
ProbeTrackDT01	11	ProbeTrack	10.4	SCS215a	20100706.110910	20100706.113258	8	0.013328	60	10	60-180	60	112	GapExp	0	189	2	75	0	target	0	2639	-1000	-10986	13.328	13.292	13.363
ProbeTrackDT01	11	ProbeTrack	10.4	SCS215a	20100706.110910	20100706.113306	8	0.013328	60	10	60-180	60	112	GapExp	0	190	2	2	1	target	1	1720	140	-10846	13.328	12.985	13.671
ProbeTrackDT01	11	ProbeTrack	10.4	SCS215a	20100706.110910	20100706.113313	8	0.013328	60	10	60-180	60	135	GapExp	0	191	2	0	0	distractor	1	1773	114	-10732	13.328	13.191	13.499
ProbeTrackDT01	11	ProbeTrack	10.4	SCS215a	20100706.110910	20100706.113320	8	0.013328	60	10	60-180	60	176	GapExp	0	192	2	1	0	distractor	1	1427	287	-10445	13.328	13.157	13.513
ProbeTrackDT01	11	ProbeTrack	10.4	SCS215a	20100706.110910	20100706.113327	8	0.013328	60	10	60-180	60	76	GapExp	0	193	2	75	0	distractor	1	1413	294	-10151	13.328	13.293	13.363
ProbeTrackDT01	11	ProbeTrack	10.4	SCS215a	20100706.110910	20100706.113334	8	0.013328	60	10	60-180	60	82	GapExp	0	194	2	2	0	target	0	973	-1000	-11151	13.328	13.293	13.363
ProbeTrackDT01	11	ProbeTrack	10.4	SCS215a	20100706.110910	20100706.113340	8	0.013328	60	10	60-180	60	65	GapExp	0	195	2	0	0	distractor	1	1346	327	-10824	13.328	13.293	13.363
ProbeTrackDT01	11	ProbeTrack	10.4	SCS215a	20100706.110910	20100706.113345	8	0.013328	60	10	60-180	60	63	GapExp	0	196	2	1	1	target	1	973	514	-10310	13.328	13.272	13.384
ProbeTrackDT01	11	ProbeTrack	10.4	SCS215a	20100706.110910	20100706.113350	8	0.013328	60	10	60-180	60	143	GapExp	0	197	2	2	0	target	0	1840	-1000	-11310	13.328	13.292	13.367
ProbeTrackDT01	11	ProbeTrack	10.4	SCS215a	20100706.110910	20100706.113358	8	0.013328	60	10	60-180	60	73	GapExp	0	198	2	2	0	target	0	1960	-1000	-12310	13.328	13.151	13.539
ProbeTrackDT01	11	ProbeTrack	10.4	SCS215a	20100706.110910	20100706.113404	8	0.013328	60	10	60-180	60	139	GapExp	0	199	2	4	0	distractor	1	1453	274	-12036	13.328	13.290	13.366
ProbeTrackDT01	11	ProbeTrack	10.4	SCS215a	20100706.110910	20100706.113411	8	0.013328	60	10	60-180	60	83	GapExp	0	200	2	2	0	distractor	1	1040	480	-11556	13.328	13.196	13.460
ProbeTrackDT01	11	ProbeTrack	10.4	SCS215a	20100706.110910	20100706.113421	8	0.013328	60	10	60-180	60	62	GapExp	0	201	2	0	0	distractor	1	1600	200	-11356	13.328	13.260	13.363
ProbeTrackDT01	11	ProbeTrack	10.4	SCS215a	20100706.110910	20100706.113427	8	0.013328	60	10	60-180	60	151	GapExp	0	202	2	1	0	target	0	1013	-1000	-12356	13.328	13.261	13.428
ProbeTrackDT01	11	ProbeTrack	10.4	SCS215a	20100706.110910	20100706.113434	8	0.013328	60	10	60-180	60	61	GapExp	0	203	2	2	1	distractor	0	587	-1000	-13356	13.328	13.200	13.422
ProbeTrackDT01	11	ProbeTrack	10.4	SCS215a	20100706.110910	20100706.113438	8	0.013328	60	10	60-180	60	66	GapExp	0	204	2	0	1	target	1	893	554	-12802	13.328	13.259	13.365
ProbeTrackDT01	11	ProbeTrack	10.4	SCS215a	20100706.110910	20100706.113444	8	0.013328	60	10	60-180	60	124	GapExp	0	205	2	75	0	distractor	1	1067	467	-12335	13.328	13.058	13.564
ProbeTrackDT01	11	ProbeTrack	10.4	SCS215a	20100706.110910	20100706.113451	8	0.013328	60	10	60-180	60	120	GapExp	0	206	2	4	0	distractor	1	1080	460	-11875	13.328	13.254	13.436
ProbeTrackDT01	11	ProbeTrack	10.4	SCS215a	20100706.110910	20100706.113457	8	0.013328	60	10	60-180	60	175	GapExp	0	207	2	75	1	distractor	0	1906	-1000	-12875	13.328	13.293	13.363
ProbeTrackDT01	11	ProbeTrack	10.4	SCS215a	20100706.110910	20100706.113506	8	0.013328	60	10	60-180	60	179	GapExp	0	208	2	2	0	distractor	1	1080	460	-12415	13.328	13.293	13.363
ProbeTrackDT01	11	ProbeTrack	10.4	SCS215a	20100706.110910	20100706.113513	8	0.013328	60	10	60-180	60	163	GapExp	0	209	2	1	1	target	1	880	560	-11855	13.328	13.141	13.516
ProbeTrackDT01	11	ProbeTrack	10.4	SCS215a	20100706.110910	20100706.113519	8	0.013328	60	10	60-180	60	65	GapExp	0	210	2	4	1	target	1	2106	0	-11855	13.328	13.209	13.447
