exp	sub	code	rev	comp	runtime	trialtime	nstim	refreshdur	cuedur	gapdur	gapOnsetRange	durPostProbe	gapOnsetTime	blocktype	prac	trial	ntargets	soa	probeTarget	resp	acc	rt	pts	tpts	meanFrameDur	minFrameDur	maxFrameDur
ProbeTrackDT01	24	ProbeTrack	10.4	SCS215a	20100714.110248	20100714.110300	8	0.013328	60	0	60-180	60	75	NoGap	1	1	2	2	1	188	-3	18899	-1000	-1000	13.328	13.235	13.420
ProbeTrackDT01	24	ProbeTrack	10.4	SCS215a	20100714.110248	20100714.110323	8	0.013328	60	0	60-180	60	66	NoGap	1	2	2	4	0	188	-3	21751	-1000	-2000	13.328	12.986	13.704
ProbeTrackDT01	24	ProbeTrack	10.4	SCS215a	20100714.110248	20100714.110349	8	0.013328	60	0	60-180	60	116	NoGap	1	3	2	1	0	distractor	1	1013	494	-1506	13.433	13.016	40.327
ProbeTrackDT01	24	ProbeTrack	10.4	SCS215a	20100714.110248	20100714.110355	8	0.013328	60	0	60-180	60	82	NoGap	1	4	2	75	0	distractor	1	840	580	-926	13.328	13.293	13.363
ProbeTrackDT01	24	ProbeTrack	10.4	SCS215a	20100714.110248	20100714.110401	8	0.013328	60	0	60-180	60	90	NoGap	1	5	2	1	1	target	1	1040	480	-446	13.328	12.949	13.706
ProbeTrackDT01	24	ProbeTrack	10.4	SCS215a	20100714.110248	20100714.110407	8	0.013328	60	0	60-180	60	173	NoGap	1	6	2	0	0	distractor	1	520	740	294	13.328	13.247	13.375
ProbeTrackDT01	24	ProbeTrack	10.4	SCS215a	20100714.110248	20100714.110413	8	0.013328	60	0	60-180	60	97	NoGap	1	7	2	4	0	distractor	1	893	554	848	13.328	12.952	13.702
ProbeTrackDT01	24	ProbeTrack	10.4	SCS215a	20100714.110248	20100714.110418	8	0.013328	60	0	60-180	60	134	NoGap	1	8	2	75	0	target	0	733	-1000	-152	13.328	13.125	13.531
ProbeTrackDT01	24	ProbeTrack	10.4	SCS215a	20100714.110248	20100714.110425	8	0.013328	60	0	60-180	60	88	NoGap	1	9	2	4	0	distractor	1	680	660	508	13.328	13.231	13.425
ProbeTrackDT01	24	ProbeTrack	10.4	SCS215a	20100714.110248	20100714.110430	8	0.013328	60	0	60-180	60	71	NoGap	1	10	2	75	1	target	1	987	507	1015	13.328	12.991	13.663
ProbeTrackDT01	24	ProbeTrack	10.4	SCS215a	20100714.110248	20100714.110437	8	0.013328	60	0	60-180	60	99	NoGap	1	11	2	2	0	distractor	1	720	640	1655	13.328	13.256	13.400
ProbeTrackDT01	24	ProbeTrack	10.4	SCS215a	20100714.110248	20100714.110442	8	0.013328	60	0	60-180	60	161	NoGap	1	12	2	0	1	target	1	733	634	2289	13.328	12.978	13.661
ProbeTrackDT01	24	ProbeTrack	10.4	SCS215a	20100714.110248	20100714.110448	8	0.013328	60	0	60-180	60	87	NoGap	1	13	2	75	1	target	1	587	707	2996	13.328	13.005	13.650
ProbeTrackDT01	24	ProbeTrack	10.4	SCS215a	20100714.110248	20100714.110454	8	0.013328	60	0	60-180	60	155	NoGap	1	14	2	2	1	target	1	534	733	3729	13.328	13.111	13.510
ProbeTrackDT01	24	ProbeTrack	10.4	SCS215a	20100714.110248	20100714.110500	8	0.013328	60	0	60-180	60	157	NoGap	1	15	2	0	1	target	1	600	700	4429	13.328	13.149	13.518
ProbeTrackDT01	24	ProbeTrack	10.4	SCS215a	20100714.110248	20100714.110506	8	0.013328	60	0	60-180	60	128	NoGap	1	16	2	4	0	distractor	1	600	700	5129	13.328	13.243	13.412
ProbeTrackDT01	24	ProbeTrack	10.4	SCS215a	20100714.110248	20100714.110511	8	0.013328	60	0	60-180	60	72	NoGap	1	17	2	1	0	target	0	840	-1000	4129	13.328	13.293	13.363
ProbeTrackDT01	24	ProbeTrack	10.4	SCS215a	20100714.110248	20100714.110516	8	0.013328	60	0	60-180	60	72	NoGap	1	18	2	0	1	target	1	627	687	4816	13.328	13.216	13.440
ProbeTrackDT01	24	ProbeTrack	10.4	SCS215a	20100714.110248	20100714.110521	8	0.013328	60	0	60-180	60	160	NoGap	1	19	2	4	1	target	1	654	673	5489	13.328	13.293	13.363
ProbeTrackDT01	24	ProbeTrack	10.4	SCS215a	20100714.110248	20100714.110527	8	0.013328	60	0	60-180	60	147	NoGap	1	20	2	4	1	distractor	0	547	-1000	4489	13.328	13.070	13.584
ProbeTrackDT01	24	ProbeTrack	10.4	SCS215a	20100714.110248	20100714.110533	8	0.013328	60	0	60-180	60	139	NoGap	1	21	2	0	0	distractor	1	734	633	5122	13.328	12.887	13.803
ProbeTrackDT01	24	ProbeTrack	10.4	SCS215a	20100714.110248	20100714.110539	8	0.013328	60	0	60-180	60	64	NoGap	1	22	2	75	0	distractor	1	800	600	5722	13.328	13.083	13.573
ProbeTrackDT01	24	ProbeTrack	10.4	SCS215a	20100714.110248	20100714.110545	8	0.013328	60	0	60-180	60	71	NoGap	1	23	2	2	0	distractor	1	494	753	6475	13.328	13.269	13.386
ProbeTrackDT01	24	ProbeTrack	10.4	SCS215a	20100714.110248	20100714.110549	8	0.013328	60	0	60-180	60	179	NoGap	1	24	2	75	1	target	1	467	767	7242	13.328	13.209	13.445
ProbeTrackDT01	24	ProbeTrack	10.4	SCS215a	20100714.110248	20100714.110557	8	0.013328	60	0	60-180	60	162	NoGap	1	25	2	1	0	distractor	1	574	713	7955	13.328	13.260	13.397
ProbeTrackDT01	24	ProbeTrack	10.4	SCS215a	20100714.110248	20100714.110603	8	0.013328	60	0	60-180	60	101	NoGap	1	26	2	4	1	target	1	654	673	8628	13.328	13.293	13.363
ProbeTrackDT01	24	ProbeTrack	10.4	SCS215a	20100714.110248	20100714.110608	8	0.013328	60	0	60-180	60	89	NoGap	1	27	2	2	1	target	1	614	693	9321	13.452	13.293	26.787
ProbeTrackDT01	24	ProbeTrack	10.4	SCS215a	20100714.110248	20100714.110613	8	0.013328	60	0	60-180	60	139	NoGap	1	28	2	4	1	target	1	387	807	10128	13.544	12.880	40.431
ProbeTrackDT01	24	ProbeTrack	10.4	SCS215a	20100714.110248	20100714.110618	8	0.013328	60	0	60-180	60	103	NoGap	1	29	2	2	1	target	1	494	753	10881	13.450	13.293	13.363
ProbeTrackDT01	24	ProbeTrack	10.4	SCS215a	20100714.110248	20100714.110624	8	0.013328	60	0	60-180	60	69	NoGap	1	30	2	75	1	target	1	427	787	11668	13.328	13.040	13.614
ProbeTrackDT01	24	ProbeTrack	10.4	SCS215a	20100714.110248	20100714.110629	8	0.013328	60	0	60-180	60	164	NoGap	1	31	2	0	0	distractor	1	773	614	12282	13.328	13.080	13.541
ProbeTrackDT01	24	ProbeTrack	10.4	SCS215a	20100714.110248	20100714.110635	8	0.013328	60	0	60-180	60	81	NoGap	1	32	2	1	1	target	1	787	607	12889	13.577	13.293	39.162
ProbeTrackDT01	24	ProbeTrack	10.4	SCS215a	20100714.110248	20100714.110641	8	0.013328	60	0	60-180	60	151	NoGap	1	33	2	0	1	target	1	547	727	13616	13.625	13.292	80.026
ProbeTrackDT01	24	ProbeTrack	10.4	SCS215a	20100714.110248	20100714.110646	8	0.013328	60	0	60-180	60	107	NoGap	1	34	2	1	1	target	1	560	720	14336	13.386	12.801	27.148
ProbeTrackDT01	24	ProbeTrack	10.4	SCS215a	20100714.110248	20100714.110652	8	0.013328	60	0	60-180	60	84	NoGap	1	35	2	1	1	target	1	387	807	15143	13.328	13.293	13.363
ProbeTrackDT01	24	ProbeTrack	10.4	SCS215a	20100714.110248	20100714.110656	8	0.013328	60	0	60-180	60	81	NoGap	1	36	2	2	0	target	0	800	-1000	14143	13.328	12.994	13.678
ProbeTrackDT01	24	ProbeTrack	10.4	SCS215a	20100714.110248	20100714.110702	8	0.013328	60	0	60-180	60	84	NoGap	1	37	2	2	0	distractor	1	933	534	14677	13.388	13.293	26.622
ProbeTrackDT01	24	ProbeTrack	10.4	SCS215a	20100714.110248	20100714.110707	8	0.013328	60	0	60-180	60	150	NoGap	1	38	2	0	0	distractor	1	613	694	15371	13.425	13.293	26.655
ProbeTrackDT01	24	ProbeTrack	10.4	SCS215a	20100714.110248	20100714.110713	8	0.013328	60	0	60-180	60	82	NoGap	1	39	2	75	0	distractor	1	534	733	16104	13.328	13.293	13.363
ProbeTrackDT01	24	ProbeTrack	10.4	SCS215a	20100714.110248	20100714.110719	8	0.013328	60	0	60-180	60	176	NoGap	1	40	2	1	0	distractor	1	840	580	16684	13.370	13.293	26.688
ProbeTrackDT01	24	ProbeTrack	10.4	SCS215a	20100714.110812	20100714.110819	8	0.013328	60	10	60-180	60	159	GapPrac	1	1	2	75	1	distractor	0	693	-1000	15684	13.328	6.399	20.257
ProbeTrackDT01	24	ProbeTrack	10.4	SCS215a	20100714.110812	20100714.110827	8	0.013328	60	10	60-180	60	64	GapPrac	1	2	2	4	0	target	0	813	-1000	14684	13.328	13.293	13.363
ProbeTrackDT01	24	ProbeTrack	10.4	SCS215a	20100714.110812	20100714.110832	8	0.013328	60	10	60-180	60	141	GapPrac	1	3	2	0	0	distractor	1	933	534	15218	13.374	13.293	26.621
ProbeTrackDT01	24	ProbeTrack	10.4	SCS215a	20100714.110812	20100714.110838	8	0.013328	60	10	60-180	60	123	GapPrac	1	4	2	75	1	target	1	680	660	15878	13.367	13.293	26.690
ProbeTrackDT01	24	ProbeTrack	10.4	SCS215a	20100714.110812	20100714.110845	8	0.013328	60	10	60-180	60	82	GapPrac	1	5	2	2	1	distractor	0	600	-1000	14878	13.328	13.293	13.363
ProbeTrackDT01	24	ProbeTrack	10.4	SCS215a	20100714.110812	20100714.110850	8	0.013328	60	10	60-180	60	128	GapPrac	1	6	2	0	1	target	1	813	594	15472	13.328	13.293	13.362
ProbeTrackDT01	24	ProbeTrack	10.4	SCS215a	20100714.110812	20100714.110856	8	0.013328	60	10	60-180	60	110	GapPrac	1	7	2	2	0	distractor	1	627	687	16159	13.328	13.099	13.557
ProbeTrackDT01	24	ProbeTrack	10.4	SCS215a	20100714.110812	20100714.110901	8	0.013328	60	10	60-180	60	160	GapPrac	1	8	2	75	0	distractor	1	614	693	16852	13.328	13.283	13.363
ProbeTrackDT01	24	ProbeTrack	10.4	SCS215a	20100714.110812	20100714.110908	8	0.013328	60	10	60-180	60	126	GapPrac	1	9	2	4	1	target	1	840	580	17432	13.376	12.811	27.172
ProbeTrackDT01	24	ProbeTrack	10.4	SCS215a	20100714.110812	20100714.110914	8	0.013328	60	10	60-180	60	76	GapPrac	1	10	2	4	0	distractor	1	693	654	18086	13.328	13.091	13.531
ProbeTrackDT01	24	ProbeTrack	10.4	SCS215a	20100714.110812	20100714.110919	8	0.013328	60	10	60-180	60	153	GapPrac	1	11	2	1	0	distractor	1	800	600	18686	13.328	12.908	13.713
ProbeTrackDT01	24	ProbeTrack	10.4	SCS215a	20100714.110812	20100714.110926	8	0.013328	60	10	60-180	60	102	GapPrac	1	12	2	2	0	distractor	1	893	554	19240	13.328	13.003	13.618
ProbeTrackDT01	24	ProbeTrack	10.4	SCS215a	20100714.110812	20100714.110931	8	0.013328	60	10	60-180	60	123	GapPrac	1	13	2	1	1	target	1	760	620	19860	13.328	12.917	13.705
ProbeTrackDT01	24	ProbeTrack	10.4	SCS215a	20100714.110812	20100714.110937	8	0.013328	60	10	60-180	60	161	GapPrac	1	14	2	1	1	target	1	640	680	20540	13.328	13.207	13.450
ProbeTrackDT01	24	ProbeTrack	10.4	SCS215a	20100714.110812	20100714.110943	8	0.013328	60	10	60-180	60	112	GapPrac	1	15	2	0	0	distractor	1	760	620	21160	13.328	13.290	13.362
ProbeTrackDT01	24	ProbeTrack	10.4	SCS215a	20100714.110812	20100714.110949	8	0.013328	60	10	60-180	60	159	GapPrac	1	16	2	1	0	distractor	1	601	700	21860	13.328	12.907	13.750
ProbeTrackDT01	24	ProbeTrack	10.4	SCS215a	20100714.110812	20100714.110955	8	0.013328	60	10	60-180	60	156	GapPrac	1	17	2	2	1	distractor	0	680	-1000	20860	13.328	13.293	13.363
ProbeTrackDT01	24	ProbeTrack	10.4	SCS215a	20100714.110812	20100714.111001	8	0.013328	60	10	60-180	60	129	GapPrac	1	18	2	4	1	target	1	787	607	21467	13.328	13.293	13.363
ProbeTrackDT01	24	ProbeTrack	10.4	SCS215a	20100714.110812	20100714.111007	8	0.013328	60	10	60-180	60	104	GapPrac	1	19	2	0	1	target	1	614	693	22160	13.384	13.293	26.356
ProbeTrackDT01	24	ProbeTrack	10.4	SCS215a	20100714.110812	20100714.111013	8	0.013328	60	10	60-180	60	83	GapPrac	1	20	2	75	0	distractor	1	640	680	22840	13.328	13.192	13.464
ProbeTrackDT01	24	ProbeTrack	10.4	SCS215a	20100714.111426	20100714.111438	8	0.013328	60	10	60-180	60	168	GapPrac	1	1	2	1	1	distractor	0	853	-1000	21840	13.328	12.910	13.746
ProbeTrackDT01	24	ProbeTrack	10.4	SCS215a	20100714.111426	20100714.111445	8	0.013328	60	10	60-180	60	107	GapPrac	1	2	2	2	1	target	1	5891	0	21840	13.328	13.046	13.609
ProbeTrackDT01	24	ProbeTrack	10.4	SCS215a	20100714.111426	20100714.111455	8	0.013328	60	10	60-180	60	130	GapPrac	1	3	2	75	0	distractor	1	573	714	22554	13.328	13.063	13.593
ProbeTrackDT01	24	ProbeTrack	10.4	SCS215a	20100714.111426	20100714.111502	8	0.013328	60	10	60-180	60	119	GapPrac	1	4	2	0	0	distractor	1	1053	474	23028	13.328	13.243	13.422
ProbeTrackDT01	24	ProbeTrack	10.4	SCS215a	20100714.111426	20100714.111508	8	0.013328	60	10	60-180	60	137	GapPrac	1	5	2	0	1	distractor	0	1013	-1000	22028	13.328	13.024	13.664
ProbeTrackDT01	24	ProbeTrack	10.4	SCS215a	20100714.111426	20100714.111514	8	0.013328	60	10	60-180	60	86	GapPrac	1	6	2	1	1	target	1	893	554	22582	13.328	13.008	13.681
ProbeTrackDT01	24	ProbeTrack	10.4	SCS215a	20100714.111426	20100714.111520	8	0.013328	60	10	60-180	60	173	GapPrac	1	7	2	4	0	target	0	654	-1000	21582	13.328	13.063	13.580
ProbeTrackDT01	24	ProbeTrack	10.4	SCS215a	20100714.111426	20100714.111526	8	0.013328	60	10	60-180	60	138	GapPrac	1	8	2	2	0	distractor	1	747	627	22209	13.328	13.149	13.507
ProbeTrackDT01	24	ProbeTrack	10.4	SCS215a	20100714.111426	20100714.111532	8	0.013328	60	10	60-180	60	142	GapPrac	1	9	2	75	0	distractor	1	707	647	22856	13.328	13.203	13.418
ProbeTrackDT01	24	ProbeTrack	10.4	SCS215a	20100714.111426	20100714.111539	8	0.013328	60	10	60-180	60	177	GapPrac	1	10	2	2	1	distractor	0	4465	-1000	21856	13.328	13.203	13.453
ProbeTrackDT01	24	ProbeTrack	10.4	SCS215a	20100714.111426	20100714.111549	8	0.013328	60	10	60-180	60	163	GapPrac	1	11	2	4	0	target	0	813	-1000	20856	13.328	12.955	13.666
ProbeTrackDT01	24	ProbeTrack	10.4	SCS215a	20100714.111426	20100714.111556	8	0.013328	60	10	60-180	60	107	GapPrac	1	12	2	4	1	distractor	0	2306	-1000	19856	13.328	12.941	13.713
ProbeTrackDT01	24	ProbeTrack	10.4	SCS215a	20100714.111426	20100714.111603	8	0.013328	60	10	60-180	60	68	GapPrac	1	13	2	0	1	target	1	1067	467	20323	13.328	13.102	13.554
ProbeTrackDT01	24	ProbeTrack	10.4	SCS215a	20100714.111426	20100714.111608	8	0.013328	60	10	60-180	60	159	GapPrac	1	14	2	75	1	target	1	733	634	20957	13.328	13.125	13.530
ProbeTrackDT01	24	ProbeTrack	10.4	SCS215a	20100714.111426	20100714.111616	8	0.013328	60	10	60-180	60	134	GapPrac	1	15	2	1	0	target	0	680	-1000	19957	13.328	13.094	13.595
ProbeTrackDT01	24	ProbeTrack	10.4	SCS215a	20100714.111426	20100714.111621	8	0.013328	60	10	60-180	60	152	GapPrac	1	16	2	4	1	distractor	0	80	-1000	18957	13.328	12.958	13.663
ProbeTrackDT01	24	ProbeTrack	10.4	SCS215a	20100714.111426	20100714.111627	8	0.013328	60	10	60-180	60	64	GapPrac	1	17	2	75	1	target	1	720	640	19597	13.328	12.946	13.710
ProbeTrackDT01	24	ProbeTrack	10.4	SCS215a	20100714.111426	20100714.111633	8	0.013328	60	10	60-180	60	128	GapPrac	1	18	2	1	0	target	0	614	-1000	18597	13.328	13.086	13.535
ProbeTrackDT01	24	ProbeTrack	10.4	SCS215a	20100714.111426	20100714.111639	8	0.013328	60	10	60-180	60	114	GapPrac	1	19	2	0	0	target	0	747	-1000	17597	13.328	13.183	13.438
ProbeTrackDT01	24	ProbeTrack	10.4	SCS215a	20100714.111426	20100714.111644	8	0.013328	60	10	60-180	60	140	GapPrac	1	20	2	2	0	distractor	1	534	733	18330	13.328	13.001	13.654
ProbeTrackDT01	24	ProbeTrack	10.4	SCS215a	20100714.111807	20100714.111813	8	0.013328	60	10	60-180	60	156	GapExp	1	1	2	0	1	distractor	0	907	-1000	17330	13.372	13.243	26.774
ProbeTrackDT01	24	ProbeTrack	10.4	SCS215a	20100714.111807	20100714.111819	8	0.013328	60	10	60-180	60	84	GapExp	1	2	2	0	0	target	0	1133	-1000	16330	13.328	13.101	13.555
ProbeTrackDT01	24	ProbeTrack	10.4	SCS215a	20100714.111807	20100714.111825	8	0.013328	60	10	60-180	60	143	GapExp	1	3	2	2	1	target	1	960	520	16850	13.328	13.098	13.524
ProbeTrackDT01	24	ProbeTrack	10.4	SCS215a	20100714.111807	20100714.111831	8	0.013328	60	10	60-180	60	74	GapExp	1	4	2	2	0	distractor	1	1907	47	16897	13.328	12.996	13.660
ProbeTrackDT01	24	ProbeTrack	10.4	SCS215a	20100714.111807	20100714.111838	8	0.013328	60	10	60-180	60	120	GapExp	1	5	2	75	0	target	0	867	-1000	15897	13.328	13.029	13.627
ProbeTrackDT01	24	ProbeTrack	10.4	SCS215a	20100714.111807	20100714.111845	8	0.013328	60	10	60-180	60	180	GapExp	1	6	2	75	1	target	1	707	647	16544	13.361	13.066	26.656
ProbeTrackDT01	24	ProbeTrack	10.4	SCS215a	20100714.111807	20100714.111852	8	0.013328	60	10	60-180	60	83	GapExp	1	7	2	4	0	distractor	1	1053	474	17018	13.328	12.952	13.702
ProbeTrackDT01	24	ProbeTrack	10.4	SCS215a	20100714.111807	20100714.111858	8	0.013328	60	10	60-180	60	139	GapExp	1	8	2	1	1	target	1	574	713	17731	13.328	13.006	13.650
ProbeTrackDT01	24	ProbeTrack	10.4	SCS215a	20100714.111807	20100714.111903	8	0.013328	60	10	60-180	60	115	GapExp	1	9	2	1	0	target	0	1893	-1000	16731	13.328	12.991	13.629
ProbeTrackDT01	24	ProbeTrack	10.4	SCS215a	20100714.111807	20100714.111910	8	0.013328	60	10	60-180	60	110	GapExp	1	10	2	4	1	target	1	1000	500	17231	13.328	13.174	13.506
ProbeTrackDT01	24	ProbeTrack	10.4	SCS215a	20100714.111807	20100714.111916	8	0.013328	60	10	60-180	60	98	GapExp	0	11	2	0	1	target	1	694	653	17884	13.328	13.121	13.533
ProbeTrackDT01	24	ProbeTrack	10.4	SCS215a	20100714.111807	20100714.111922	8	0.013328	60	10	60-180	60	97	GapExp	0	12	2	0	1	target	1	1706	147	18031	13.328	13.147	13.475
ProbeTrackDT01	24	ProbeTrack	10.4	SCS215a	20100714.111807	20100714.111928	8	0.013328	60	10	60-180	60	71	GapExp	0	13	2	4	0	target	0	2079	-1000	17031	13.388	13.293	26.655
ProbeTrackDT01	24	ProbeTrack	10.4	SCS215a	20100714.111807	20100714.111934	8	0.013328	60	10	60-180	60	116	GapExp	0	14	2	75	0	target	0	1466	-1000	16031	13.328	13.212	13.444
ProbeTrackDT01	24	ProbeTrack	10.4	SCS215a	20100714.111807	20100714.111942	8	0.013328	60	10	60-180	60	159	GapExp	0	15	2	2	0	distractor	1	480	760	16791	13.328	13.293	13.363
ProbeTrackDT01	24	ProbeTrack	10.4	SCS215a	20100714.111807	20100714.111948	8	0.013328	60	10	60-180	60	111	GapExp	0	16	2	0	0	target	0	2066	-1000	15791	13.328	13.116	13.539
ProbeTrackDT01	24	ProbeTrack	10.4	SCS215a	20100714.111807	20100714.111955	8	0.013328	60	10	60-180	60	111	GapExp	0	17	2	1	0	distractor	1	1773	114	15905	13.328	13.293	13.362
ProbeTrackDT01	24	ProbeTrack	10.4	SCS215a	20100714.111807	20100714.112001	8	0.013328	60	10	60-180	60	157	GapExp	0	18	2	0	0	target	0	760	-1000	14905	13.328	13.054	13.567
ProbeTrackDT01	24	ProbeTrack	10.4	SCS215a	20100714.111807	20100714.112008	8	0.013328	60	10	60-180	60	156	GapExp	0	19	2	1	0	distractor	1	867	567	15472	13.328	13.120	13.569
ProbeTrackDT01	24	ProbeTrack	10.4	SCS215a	20100714.111807	20100714.112014	8	0.013328	60	10	60-180	60	144	GapExp	0	20	2	1	0	distractor	1	1120	440	15912	13.328	13.146	13.543
ProbeTrackDT01	24	ProbeTrack	10.4	SCS215a	20100714.111807	20100714.112020	8	0.013328	60	10	60-180	60	83	GapExp	0	21	2	2	1	distractor	0	534	-1000	14912	13.328	13.292	13.363
ProbeTrackDT01	24	ProbeTrack	10.4	SCS215a	20100714.111807	20100714.112026	8	0.013328	60	10	60-180	60	125	GapExp	0	22	2	0	0	target	0	627	-1000	13912	13.328	12.960	13.729
ProbeTrackDT01	24	ProbeTrack	10.4	SCS215a	20100714.111807	20100714.112031	8	0.013328	60	10	60-180	60	124	GapExp	0	23	2	75	0	target	0	654	-1000	12912	13.328	13.122	13.501
ProbeTrackDT01	24	ProbeTrack	10.4	SCS215a	20100714.111807	20100714.112038	8	0.013328	60	10	60-180	60	130	GapExp	0	24	2	1	1	distractor	0	1053	-1000	11912	13.328	13.293	13.364
ProbeTrackDT01	24	ProbeTrack	10.4	SCS215a	20100714.111807	20100714.112044	8	0.013328	60	10	60-180	60	96	GapExp	0	25	2	1	0	target	0	1373	-1000	10912	13.328	13.290	13.362
ProbeTrackDT01	24	ProbeTrack	10.4	SCS215a	20100714.111807	20100714.112050	8	0.013328	60	10	60-180	60	94	GapExp	0	26	2	2	0	target	0	1266	-1000	9912	13.328	13.237	13.417
ProbeTrackDT01	24	ProbeTrack	10.4	SCS215a	20100714.111807	20100714.112056	8	0.013328	60	10	60-180	60	88	GapExp	0	27	2	0	1	distractor	0	3705	-1000	8912	13.328	13.292	13.363
ProbeTrackDT01	24	ProbeTrack	10.4	SCS215a	20100714.111807	20100714.112104	8	0.013328	60	10	60-180	60	140	GapExp	0	28	2	1	0	distractor	1	973	514	9426	13.328	13.079	13.609
ProbeTrackDT01	24	ProbeTrack	10.4	SCS215a	20100714.111807	20100714.112111	8	0.013328	60	10	60-180	60	125	GapExp	0	29	2	1	1	target	1	1720	140	9566	13.328	13.128	13.562
ProbeTrackDT01	24	ProbeTrack	10.4	SCS215a	20100714.111807	20100714.112117	8	0.013328	60	10	60-180	60	99	GapExp	0	30	2	4	1	target	1	1533	234	9800	13.328	13.059	13.562
ProbeTrackDT01	24	ProbeTrack	10.4	SCS215a	20100714.111807	20100714.112124	8	0.013328	60	10	60-180	60	115	GapExp	0	31	2	75	1	target	1	587	707	10507	13.328	13.088	13.568
ProbeTrackDT01	24	ProbeTrack	10.4	SCS215a	20100714.111807	20100714.112130	8	0.013328	60	10	60-180	60	92	GapExp	0	32	2	75	0	distractor	1	454	773	11280	13.328	12.920	13.736
ProbeTrackDT01	24	ProbeTrack	10.4	SCS215a	20100714.111807	20100714.112136	8	0.013328	60	10	60-180	60	102	GapExp	0	33	2	75	0	distractor	1	867	567	11847	13.328	12.953	13.703
ProbeTrackDT01	24	ProbeTrack	10.4	SCS215a	20100714.111807	20100714.112143	8	0.013328	60	10	60-180	60	162	GapExp	0	34	2	2	1	target	1	1880	60	11907	13.328	13.160	13.461
ProbeTrackDT01	24	ProbeTrack	10.4	SCS215a	20100714.111807	20100714.112150	8	0.013328	60	10	60-180	60	80	GapExp	0	35	2	2	0	distractor	1	1213	394	12301	13.328	13.198	13.458
ProbeTrackDT01	24	ProbeTrack	10.4	SCS215a	20100714.111807	20100714.112156	8	0.013328	60	10	60-180	60	62	GapExp	0	36	2	75	1	target	1	1760	120	12421	13.328	13.236	13.437
ProbeTrackDT01	24	ProbeTrack	10.4	SCS215a	20100714.111807	20100714.112203	8	0.013328	60	10	60-180	60	108	GapExp	0	37	2	75	0	distractor	1	1520	240	12661	13.328	13.067	13.554
ProbeTrackDT01	24	ProbeTrack	10.4	SCS215a	20100714.111807	20100714.112210	8	0.013328	60	10	60-180	60	109	GapExp	0	38	2	0	1	target	1	1480	260	12921	13.328	12.969	13.687
ProbeTrackDT01	24	ProbeTrack	10.4	SCS215a	20100714.111807	20100714.112217	8	0.013328	60	10	60-180	60	156	GapExp	0	39	2	4	1	target	1	1640	180	13101	13.328	13.009	13.680
ProbeTrackDT01	24	ProbeTrack	10.4	SCS215a	20100714.111807	20100714.112224	8	0.013328	60	10	60-180	60	180	GapExp	0	40	2	75	0	distractor	1	813	594	13695	13.328	13.209	13.480
ProbeTrackDT01	24	ProbeTrack	10.4	SCS215a	20100714.111807	20100714.112231	8	0.013328	60	10	60-180	60	177	GapExp	0	41	2	0	0	distractor	1	840	580	14275	13.328	13.051	13.603
ProbeTrackDT01	24	ProbeTrack	10.4	SCS215a	20100714.111807	20100714.112238	8	0.013328	60	10	60-180	60	93	GapExp	0	42	2	1	1	distractor	0	893	-1000	13275	13.328	13.072	13.583
ProbeTrackDT01	24	ProbeTrack	10.4	SCS215a	20100714.111807	20100714.112243	8	0.013328	60	10	60-180	60	86	GapExp	0	43	2	4	1	target	1	3239	0	13275	13.328	13.293	13.363
ProbeTrackDT01	24	ProbeTrack	10.4	SCS215a	20100714.111807	20100714.112251	8	0.013328	60	10	60-180	60	112	GapExp	0	44	2	2	1	distractor	0	773	-1000	12275	13.328	13.293	13.363
ProbeTrackDT01	24	ProbeTrack	10.4	SCS215a	20100714.111807	20100714.112257	8	0.013328	60	10	60-180	60	146	GapExp	0	45	2	4	1	distractor	0	747	-1000	11275	13.328	12.962	13.726
ProbeTrackDT01	24	ProbeTrack	10.4	SCS215a	20100714.111807	20100714.112303	8	0.013328	60	10	60-180	60	178	GapExp	0	46	2	1	0	target	0	1346	-1000	10275	13.328	13.288	13.368
ProbeTrackDT01	24	ProbeTrack	10.4	SCS215a	20100714.111807	20100714.112310	8	0.013328	60	10	60-180	60	96	GapExp	0	47	2	2	1	target	1	1746	127	10402	13.328	13.033	13.621
ProbeTrackDT01	24	ProbeTrack	10.4	SCS215a	20100714.111807	20100714.112317	8	0.013328	60	10	60-180	60	65	GapExp	0	48	2	2	1	distractor	0	1480	-1000	9402	13.328	13.293	13.363
ProbeTrackDT01	24	ProbeTrack	10.4	SCS215a	20100714.111807	20100714.112322	8	0.013328	60	10	60-180	60	65	GapExp	0	49	2	2	0	distractor	1	1333	334	9736	13.328	13.290	13.363
ProbeTrackDT01	24	ProbeTrack	10.4	SCS215a	20100714.111807	20100714.112328	8	0.013328	60	10	60-180	60	90	GapExp	0	50	2	0	0	target	0	1013	-1000	8736	13.328	12.961	13.694
ProbeTrackDT01	24	ProbeTrack	10.4	SCS215a	20100714.111807	20100714.112343	8	0.013328	60	10	60-180	60	78	GapExp	0	51	2	1	0	distractor	1	1080	460	9196	13.328	13.217	13.438
ProbeTrackDT01	24	ProbeTrack	10.4	SCS215a	20100714.111807	20100714.112348	8	0.013328	60	10	60-180	60	149	GapExp	0	52	2	2	0	target	0	2119	-1000	8196	13.328	13.182	13.507
ProbeTrackDT01	24	ProbeTrack	10.4	SCS215a	20100714.111807	20100714.112356	8	0.013328	60	10	60-180	60	80	GapExp	0	53	2	0	1	distractor	0	1400	-1000	7196	13.328	12.964	13.657
ProbeTrackDT01	24	ProbeTrack	10.4	SCS215a	20100714.111807	20100714.112402	8	0.013328	60	10	60-180	60	152	GapExp	0	54	2	2	1	target	1	667	667	7863	13.328	13.293	13.363
ProbeTrackDT01	24	ProbeTrack	10.4	SCS215a	20100714.111807	20100714.112408	8	0.013328	60	10	60-180	60	157	GapExp	0	55	2	2	0	target	0	2519	-1000	6863	13.328	12.961	13.696
ProbeTrackDT01	24	ProbeTrack	10.4	SCS215a	20100714.111807	20100714.112416	8	0.013328	60	10	60-180	60	172	GapExp	0	56	2	4	0	distractor	1	920	540	7403	13.328	13.007	13.648
ProbeTrackDT01	24	ProbeTrack	10.4	SCS215a	20100714.111807	20100714.112422	8	0.013328	60	10	60-180	60	163	GapExp	0	57	2	1	1	distractor	0	1080	-1000	6403	13.328	13.212	13.444
ProbeTrackDT01	24	ProbeTrack	10.4	SCS215a	20100714.111807	20100714.112429	8	0.013328	60	10	60-180	60	78	GapExp	0	58	2	0	0	target	0	1853	-1000	5403	13.328	13.264	13.425
ProbeTrackDT01	24	ProbeTrack	10.4	SCS215a	20100714.111807	20100714.112435	8	0.013328	60	10	60-180	60	130	GapExp	0	59	2	1	0	distractor	1	720	640	6043	13.328	13.252	13.369
ProbeTrackDT01	24	ProbeTrack	10.4	SCS215a	20100714.111807	20100714.112441	8	0.013328	60	10	60-180	60	176	GapExp	0	60	2	75	1	target	1	2173	0	6043	13.328	13.086	13.570
ProbeTrackDT01	24	ProbeTrack	10.4	SCS215a	20100714.111807	20100714.112450	8	0.013328	60	10	60-180	60	142	GapExp	0	61	2	2	1	target	1	747	627	6670	13.328	13.150	13.472
ProbeTrackDT01	24	ProbeTrack	10.4	SCS215a	20100714.111807	20100714.112456	8	0.013328	60	10	60-180	60	105	GapExp	0	62	2	4	1	target	1	1067	467	7137	13.328	12.985	13.703
ProbeTrackDT01	24	ProbeTrack	10.4	SCS215a	20100714.111807	20100714.112502	8	0.013328	60	10	60-180	60	176	GapExp	0	63	2	0	1	distractor	0	707	-1000	6137	13.328	13.028	13.628
ProbeTrackDT01	24	ProbeTrack	10.4	SCS215a	20100714.111807	20100714.112508	8	0.013328	60	10	60-180	60	119	GapExp	0	64	2	2	1	distractor	0	1133	-1000	5137	13.328	13.290	13.363
ProbeTrackDT01	24	ProbeTrack	10.4	SCS215a	20100714.111807	20100714.112515	8	0.013328	60	10	60-180	60	156	GapExp	0	65	2	4	0	distractor	1	680	660	5797	13.328	13.138	13.517
ProbeTrackDT01	24	ProbeTrack	10.4	SCS215a	20100714.111807	20100714.112521	8	0.013328	60	10	60-180	60	126	GapExp	0	66	2	0	1	target	1	4945	0	5797	13.329	13.137	13.518
ProbeTrackDT01	24	ProbeTrack	10.4	SCS215a	20100714.111807	20100714.112531	8	0.013328	60	10	60-180	60	148	GapExp	0	67	2	75	1	distractor	0	1107	-1000	4797	13.328	12.993	13.628
ProbeTrackDT01	24	ProbeTrack	10.4	SCS215a	20100714.111807	20100714.112538	8	0.013328	60	10	60-180	60	123	GapExp	0	68	2	4	0	distractor	1	653	674	5471	13.328	13.029	13.627
ProbeTrackDT01	24	ProbeTrack	10.4	SCS215a	20100714.111807	20100714.112544	8	0.013328	60	10	60-180	60	72	GapExp	0	69	2	2	1	distractor	0	733	-1000	4471	13.328	13.024	13.631
ProbeTrackDT01	24	ProbeTrack	10.4	SCS215a	20100714.111807	20100714.112549	8	0.013328	60	10	60-180	60	78	GapExp	0	70	2	75	1	target	1	800	600	5071	13.328	13.042	13.579
ProbeTrackDT01	24	ProbeTrack	10.4	SCS215a	20100714.111807	20100714.112555	8	0.013328	60	10	60-180	60	136	GapExp	0	71	2	4	1	distractor	0	1240	-1000	4071	13.328	13.293	13.363
ProbeTrackDT01	24	ProbeTrack	10.4	SCS215a	20100714.111807	20100714.112602	8	0.013328	60	10	60-180	60	112	GapExp	0	72	2	1	0	distractor	1	720	640	4711	13.328	12.995	13.627
ProbeTrackDT01	24	ProbeTrack	10.4	SCS215a	20100714.111807	20100714.112607	8	0.013328	60	10	60-180	60	112	GapExp	0	73	2	4	1	target	1	640	680	5391	13.328	13.081	13.608
ProbeTrackDT01	24	ProbeTrack	10.4	SCS215a	20100714.111807	20100714.112613	8	0.013328	60	10	60-180	60	121	GapExp	0	74	2	1	0	target	0	1613	-1000	4391	13.328	13.293	13.363
ProbeTrackDT01	24	ProbeTrack	10.4	SCS215a	20100714.111807	20100714.112620	8	0.013328	60	10	60-180	60	97	GapExp	0	75	2	1	1	target	1	1040	480	4871	13.328	13.293	13.363
ProbeTrackDT01	24	ProbeTrack	10.4	SCS215a	20100714.111807	20100714.112625	8	0.013328	60	10	60-180	60	75	GapExp	0	76	2	75	0	distractor	1	560	720	5591	13.328	13.220	13.472
ProbeTrackDT01	24	ProbeTrack	10.4	SCS215a	20100714.111807	20100714.112631	8	0.013328	60	10	60-180	60	116	GapExp	0	77	2	75	1	distractor	0	720	-1000	4591	13.328	13.293	13.363
ProbeTrackDT01	24	ProbeTrack	10.4	SCS215a	20100714.111807	20100714.112638	8	0.013328	60	10	60-180	60	179	GapExp	0	78	2	4	0	target	0	1320	-1000	3591	13.328	13.293	13.363
ProbeTrackDT01	24	ProbeTrack	10.4	SCS215a	20100714.111807	20100714.112645	8	0.013328	60	10	60-180	60	124	GapExp	0	79	2	2	0	distractor	1	747	627	4218	13.328	13.293	13.366
ProbeTrackDT01	24	ProbeTrack	10.4	SCS215a	20100714.111807	20100714.112651	8	0.013328	60	10	60-180	60	135	GapExp	0	80	2	4	1	target	1	867	567	4785	13.328	13.144	13.546
ProbeTrackDT01	24	ProbeTrack	10.4	SCS215a	20100714.111807	20100714.112657	8	0.013328	60	10	60-180	60	86	GapExp	0	81	2	4	0	distractor	1	587	707	5492	13.329	13.219	13.446
ProbeTrackDT01	24	ProbeTrack	10.4	SCS215a	20100714.111807	20100714.112702	8	0.013328	60	10	60-180	60	110	GapExp	0	82	2	1	0	distractor	1	600	700	6192	13.328	13.120	13.534
ProbeTrackDT01	24	ProbeTrack	10.4	SCS215a	20100714.111807	20100714.112708	8	0.013328	60	10	60-180	60	127	GapExp	0	83	2	1	1	distractor	0	920	-1000	5192	13.425	13.117	26.653
ProbeTrackDT01	24	ProbeTrack	10.4	SCS215a	20100714.111807	20100714.112714	8	0.013328	60	10	60-180	60	118	GapExp	0	84	2	75	1	distractor	0	507	-1000	4192	13.328	13.069	13.586
ProbeTrackDT01	24	ProbeTrack	10.4	SCS215a	20100714.111807	20100714.112720	8	0.013328	60	10	60-180	60	109	GapExp	0	85	2	2	0	distractor	1	893	554	4746	13.380	13.239	26.622
ProbeTrackDT01	24	ProbeTrack	10.4	SCS215a	20100714.111807	20100714.112726	8	0.013328	60	10	60-180	60	149	GapExp	0	86	2	0	0	target	0	813	-1000	3746	13.328	12.978	13.676
ProbeTrackDT01	24	ProbeTrack	10.4	SCS215a	20100714.111807	20100714.112732	8	0.013328	60	10	60-180	60	170	GapExp	0	87	2	75	0	target	0	813	-1000	2746	13.328	13.072	13.585
ProbeTrackDT01	24	ProbeTrack	10.4	SCS215a	20100714.111807	20100714.112740	8	0.013328	60	10	60-180	60	121	GapExp	0	88	2	0	0	distractor	1	729	636	3382	13.328	9.366	17.290
ProbeTrackDT01	24	ProbeTrack	10.4	SCS215a	20100714.111807	20100714.112745	8	0.013328	60	10	60-180	60	124	GapExp	0	89	2	4	1	target	1	680	660	4042	13.328	13.158	13.532
ProbeTrackDT01	24	ProbeTrack	10.4	SCS215a	20100714.111807	20100714.112751	8	0.013328	60	10	60-180	60	140	GapExp	0	90	2	75	0	distractor	1	827	587	4629	13.328	13.020	13.635
ProbeTrackDT01	24	ProbeTrack	10.4	SCS215a	20100714.111807	20100714.112758	8	0.013328	60	10	60-180	60	177	GapExp	0	91	2	75	1	target	1	627	687	5316	13.431	13.220	39.984
ProbeTrackDT01	24	ProbeTrack	10.4	SCS215a	20100714.111807	20100714.112806	8	0.013328	60	10	60-180	60	95	GapExp	0	92	2	4	0	distractor	1	1466	267	5583	13.328	13.176	13.478
ProbeTrackDT01	24	ProbeTrack	10.4	SCS215a	20100714.111807	20100714.112812	8	0.013328	60	10	60-180	60	163	GapExp	0	93	2	4	0	distractor	1	707	647	6230	13.328	13.119	13.571
ProbeTrackDT01	24	ProbeTrack	10.4	SCS215a	20100714.111807	20100714.112818	8	0.013328	60	10	60-180	60	139	GapExp	0	94	2	75	0	target	0	680	-1000	5230	13.328	13.007	13.615
ProbeTrackDT01	24	ProbeTrack	10.4	SCS215a	20100714.111807	20100714.112825	8	0.013328	60	10	60-180	60	86	GapExp	0	95	2	1	1	distractor	0	1613	-1000	4230	13.328	13.290	13.367
ProbeTrackDT01	24	ProbeTrack	10.4	SCS215a	20100714.111807	20100714.112831	8	0.013328	60	10	60-180	60	180	GapExp	0	96	2	0	1	distractor	0	813	-1000	3230	13.328	13.292	13.363
ProbeTrackDT01	24	ProbeTrack	10.4	SCS215a	20100714.111807	20100714.112838	8	0.013328	60	10	60-180	60	106	GapExp	0	97	2	1	0	distractor	1	693	654	3884	13.328	13.270	13.420
ProbeTrackDT01	24	ProbeTrack	10.4	SCS215a	20100714.111807	20100714.112843	8	0.013328	60	10	60-180	60	139	GapExp	0	98	2	75	1	target	1	1267	367	4251	13.328	13.112	13.560
ProbeTrackDT01	24	ProbeTrack	10.4	SCS215a	20100714.111807	20100714.112851	8	0.013328	60	10	60-180	60	131	GapExp	0	99	2	4	1	distractor	0	427	-1000	3251	13.328	12.909	13.713
ProbeTrackDT01	24	ProbeTrack	10.4	SCS215a	20100714.111807	20100714.112856	8	0.013328	60	10	60-180	60	95	GapExp	0	100	2	0	1	target	1	947	527	3778	13.328	13.292	13.363
ProbeTrackDT01	24	ProbeTrack	10.4	SCS215a	20100714.111807	20100714.112910	8	0.013328	60	10	60-180	60	176	GapExp	0	101	2	1	1	target	1	920	540	4318	13.328	13.096	13.561
ProbeTrackDT01	24	ProbeTrack	10.4	SCS215a	20100714.111807	20100714.112917	8	0.013328	60	10	60-180	60	143	GapExp	0	102	2	75	1	distractor	0	707	-1000	3318	13.365	13.106	26.622
ProbeTrackDT01	24	ProbeTrack	10.4	SCS215a	20100714.111807	20100714.112924	8	0.013328	60	10	60-180	60	99	GapExp	0	103	2	2	0	distractor	1	1133	434	3752	13.328	13.293	13.366
ProbeTrackDT01	24	ProbeTrack	10.4	SCS215a	20100714.111807	20100714.112930	8	0.013328	60	10	60-180	60	113	GapExp	0	104	2	0	1	distractor	0	1160	-1000	2752	13.328	13.058	13.630
ProbeTrackDT01	24	ProbeTrack	10.4	SCS215a	20100714.111807	20100714.112936	8	0.013328	60	10	60-180	60	107	GapExp	0	105	2	0	0	distractor	1	800	600	3352	13.328	13.042	13.614
ProbeTrackDT01	24	ProbeTrack	10.4	SCS215a	20100714.111807	20100714.112942	8	0.013328	60	10	60-180	60	148	GapExp	0	106	2	75	1	distractor	0	693	-1000	2352	13.365	13.199	26.659
ProbeTrackDT01	24	ProbeTrack	10.4	SCS215a	20100714.111807	20100714.112949	8	0.013328	60	10	60-180	60	84	GapExp	0	107	2	4	0	target	0	1227	-1000	1352	13.328	13.226	13.395
ProbeTrackDT01	24	ProbeTrack	10.4	SCS215a	20100714.111807	20100714.112954	8	0.013328	60	10	60-180	60	130	GapExp	0	108	2	0	0	distractor	1	800	600	1952	13.328	12.971	13.649
ProbeTrackDT01	24	ProbeTrack	10.4	SCS215a	20100714.111807	20100714.113000	8	0.013328	60	10	60-180	60	176	GapExp	0	109	2	2	1	distractor	0	1320	-1000	952	13.328	13.085	13.571
ProbeTrackDT01	24	ProbeTrack	10.4	SCS215a	20100714.111807	20100714.113007	8	0.013328	60	10	60-180	60	148	GapExp	0	110	2	1	1	target	1	547	727	1679	13.328	13.139	13.500
ProbeTrackDT01	24	ProbeTrack	10.4	SCS215a	20100714.111807	20100714.113013	8	0.013328	60	10	60-180	60	112	GapExp	0	111	2	4	1	distractor	0	800	-1000	679	13.328	13.293	13.363
ProbeTrackDT01	24	ProbeTrack	10.4	SCS215a	20100714.111807	20100714.113019	8	0.013328	60	10	60-180	60	175	GapExp	0	112	2	2	1	target	1	747	627	1306	13.369	13.114	26.657
ProbeTrackDT01	24	ProbeTrack	10.4	SCS215a	20100714.111807	20100714.113026	8	0.013328	60	10	60-180	60	157	GapExp	0	113	2	75	1	distractor	0	667	-1000	306	13.328	13.025	13.632
ProbeTrackDT01	24	ProbeTrack	10.4	SCS215a	20100714.111807	20100714.113033	8	0.013328	60	10	60-180	60	129	GapExp	0	114	2	75	1	target	1	574	713	1019	13.328	13.293	13.363
ProbeTrackDT01	24	ProbeTrack	10.4	SCS215a	20100714.111807	20100714.113039	8	0.013328	60	10	60-180	60	96	GapExp	0	115	2	1	0	distractor	1	1413	294	1313	13.328	12.968	13.688
ProbeTrackDT01	24	ProbeTrack	10.4	SCS215a	20100714.111807	20100714.113045	8	0.013328	60	10	60-180	60	64	GapExp	0	116	2	2	1	target	1	1653	174	1487	13.391	13.059	26.892
ProbeTrackDT01	24	ProbeTrack	10.4	SCS215a	20100714.111807	20100714.113051	8	0.013328	60	10	60-180	60	104	GapExp	0	117	2	0	0	distractor	1	520	740	2227	13.328	13.268	13.421
ProbeTrackDT01	24	ProbeTrack	10.4	SCS215a	20100714.111807	20100714.113057	8	0.013328	60	10	60-180	60	142	GapExp	0	118	2	2	1	target	1	827	587	2814	13.328	13.293	13.363
ProbeTrackDT01	24	ProbeTrack	10.4	SCS215a	20100714.111807	20100714.113103	8	0.013328	60	10	60-180	60	109	GapExp	0	119	2	2	0	distractor	1	440	780	3594	13.328	13.055	13.634
ProbeTrackDT01	24	ProbeTrack	10.4	SCS215a	20100714.111807	20100714.113108	8	0.013328	60	10	60-180	60	152	GapExp	0	120	2	4	0	target	0	560	-1000	2594	13.421	12.881	40.429
ProbeTrackDT01	24	ProbeTrack	10.4	SCS215a	20100714.111807	20100714.113114	8	0.013328	60	10	60-180	60	134	GapExp	0	121	2	2	1	distractor	0	800	-1000	1594	13.375	13.038	26.560
ProbeTrackDT01	24	ProbeTrack	10.4	SCS215a	20100714.111807	20100714.113120	8	0.013328	60	10	60-180	60	162	GapExp	0	122	2	75	0	distractor	1	880	560	2154	13.328	13.079	13.577
ProbeTrackDT01	24	ProbeTrack	10.4	SCS215a	20100714.111807	20100714.113128	8	0.013328	60	10	60-180	60	62	GapExp	0	123	2	1	1	target	1	547	727	2881	13.328	13.293	13.363
ProbeTrackDT01	24	ProbeTrack	10.4	SCS215a	20100714.111807	20100714.113132	8	0.013328	60	10	60-180	60	135	GapExp	0	124	2	4	1	target	1	787	607	3488	13.328	13.292	13.363
ProbeTrackDT01	24	ProbeTrack	10.4	SCS215a	20100714.111807	20100714.113138	8	0.013328	60	10	60-180	60	73	GapExp	0	125	2	1	1	target	1	494	753	4241	13.328	13.293	13.363
ProbeTrackDT01	24	ProbeTrack	10.4	SCS215a	20100714.111807	20100714.113143	8	0.013328	60	10	60-180	60	69	GapExp	0	126	2	4	0	target	0	1400	-1000	3241	13.328	13.018	13.646
ProbeTrackDT01	24	ProbeTrack	10.4	SCS215a	20100714.111807	20100714.113149	8	0.013328	60	10	60-180	60	95	GapExp	0	127	2	75	1	target	1	320	840	4081	13.328	13.193	13.497
ProbeTrackDT01	24	ProbeTrack	10.4	SCS215a	20100714.111807	20100714.113155	8	0.013328	60	10	60-180	60	148	GapExp	0	128	2	4	0	distractor	1	680	660	4741	13.328	13.272	13.384
ProbeTrackDT01	24	ProbeTrack	10.4	SCS215a	20100714.111807	20100714.113201	8	0.013328	60	10	60-180	60	158	GapExp	0	129	2	1	0	distractor	1	560	720	5461	13.328	13.163	13.498
ProbeTrackDT01	24	ProbeTrack	10.4	SCS215a	20100714.111807	20100714.113207	8	0.013328	60	10	60-180	60	162	GapExp	0	130	2	1	1	distractor	0	720	-1000	4461	13.328	13.269	13.387
ProbeTrackDT01	24	ProbeTrack	10.4	SCS215a	20100714.111807	20100714.113213	8	0.013328	60	10	60-180	60	74	GapExp	0	131	2	4	1	target	1	1093	454	4915	13.328	13.012	13.642
ProbeTrackDT01	24	ProbeTrack	10.4	SCS215a	20100714.111807	20100714.113219	8	0.013328	60	10	60-180	60	136	GapExp	0	132	2	2	0	distractor	1	840	580	5495	13.328	13.038	13.584
ProbeTrackDT01	24	ProbeTrack	10.4	SCS215a	20100714.111807	20100714.113225	8	0.013328	60	10	60-180	60	98	GapExp	0	133	2	2	0	distractor	1	1240	380	5875	13.328	12.911	13.743
ProbeTrackDT01	24	ProbeTrack	10.4	SCS215a	20100714.111807	20100714.113231	8	0.013328	60	10	60-180	60	118	GapExp	0	134	2	0	0	distractor	1	2533	0	5875	13.328	13.057	13.634
ProbeTrackDT01	24	ProbeTrack	10.4	SCS215a	20100714.111807	20100714.113238	8	0.013328	60	10	60-180	60	162	GapExp	0	135	2	0	0	distractor	1	842	579	6454	13.328	13.288	13.365
ProbeTrackDT01	24	ProbeTrack	10.4	SCS215a	20100714.111807	20100714.113245	8	0.013328	60	10	60-180	60	145	GapExp	0	136	2	1	1	target	1	880	560	7014	13.328	13.205	13.418
ProbeTrackDT01	24	ProbeTrack	10.4	SCS215a	20100714.111807	20100714.113251	8	0.013328	60	10	60-180	60	62	GapExp	0	137	2	4	1	target	1	494	753	7767	13.398	13.198	26.654
ProbeTrackDT01	24	ProbeTrack	10.4	SCS215a	20100714.111807	20100714.113255	8	0.013328	60	10	60-180	60	135	GapExp	0	138	2	75	1	target	1	800	600	8367	13.365	13.009	26.623
ProbeTrackDT01	24	ProbeTrack	10.4	SCS215a	20100714.111807	20100714.113302	8	0.013328	60	10	60-180	60	83	GapExp	0	139	2	0	0	distractor	1	813	594	8961	13.328	13.257	13.399
ProbeTrackDT01	24	ProbeTrack	10.4	SCS215a	20100714.111807	20100714.113308	8	0.013328	60	10	60-180	60	67	GapExp	0	140	2	4	1	target	1	787	607	9568	13.328	13.114	13.508
ProbeTrackDT01	24	ProbeTrack	10.4	SCS215a	20100714.111807	20100714.113313	8	0.013328	60	10	60-180	60	146	GapExp	0	141	2	2	0	distractor	1	480	760	10328	13.623	13.009	79.768
ProbeTrackDT01	24	ProbeTrack	10.4	SCS215a	20100714.111807	20100714.113319	8	0.013328	60	10	60-180	60	171	GapExp	0	142	2	75	1	target	1	654	673	11001	13.328	13.293	13.363
ProbeTrackDT01	24	ProbeTrack	10.4	SCS215a	20100714.111807	20100714.113326	8	0.013328	60	10	60-180	60	140	GapExp	0	143	2	75	1	target	1	520	740	11741	13.328	13.293	13.363
ProbeTrackDT01	24	ProbeTrack	10.4	SCS215a	20100714.111807	20100714.113333	8	0.013328	60	10	60-180	60	72	GapExp	0	144	2	0	0	distractor	1	680	660	12401	13.328	13.293	13.365
ProbeTrackDT01	24	ProbeTrack	10.4	SCS215a	20100714.111807	20100714.113338	8	0.013328	60	10	60-180	60	84	GapExp	0	145	2	75	0	distractor	1	1187	407	12808	13.328	13.027	13.662
ProbeTrackDT01	24	ProbeTrack	10.4	SCS215a	20100714.111807	20100714.113345	8	0.013328	60	10	60-180	60	103	GapExp	0	146	2	0	1	target	1	1120	440	13248	13.328	13.259	13.431
ProbeTrackDT01	24	ProbeTrack	10.4	SCS215a	20100714.111807	20100714.113351	8	0.013328	60	10	60-180	60	67	GapExp	0	147	2	1	1	distractor	0	1520	-1000	12248	13.328	13.176	13.478
ProbeTrackDT01	24	ProbeTrack	10.4	SCS215a	20100714.111807	20100714.113356	8	0.013328	60	10	60-180	60	118	GapExp	0	148	2	4	0	target	0	1213	-1000	11248	13.328	13.120	13.535
ProbeTrackDT01	24	ProbeTrack	10.4	SCS215a	20100714.111807	20100714.113402	8	0.013328	60	10	60-180	60	88	GapExp	0	149	2	2	0	distractor	1	640	680	11928	13.328	13.238	13.451
ProbeTrackDT01	24	ProbeTrack	10.4	SCS215a	20100714.111807	20100714.113408	8	0.013328	60	10	60-180	60	120	GapExp	0	150	2	2	0	distractor	1	507	747	12675	13.328	13.025	13.598
ProbeTrackDT01	24	ProbeTrack	10.4	SCS215a	20100714.111807	20100714.113424	8	0.013328	60	10	60-180	60	72	GapExp	0	151	2	75	0	distractor	1	507	747	13422	15.288	13.132	159.899
ProbeTrackDT01	24	ProbeTrack	10.4	SCS215a	20100714.111807	20100714.113431	8	0.013328	60	10	60-180	60	128	GapExp	0	152	2	75	0	distractor	1	547	727	14149	13.328	13.048	13.595
ProbeTrackDT01	24	ProbeTrack	10.4	SCS215a	20100714.111807	20100714.113437	8	0.013328	60	10	60-180	60	94	GapExp	0	153	2	0	1	distractor	0	800	-1000	13149	13.328	13.235	13.420
ProbeTrackDT01	24	ProbeTrack	10.4	SCS215a	20100714.111807	20100714.113443	8	0.013328	60	10	60-180	60	178	GapExp	0	154	2	4	1	target	1	680	660	13809	13.328	12.890	13.765
ProbeTrackDT01	24	ProbeTrack	10.4	SCS215a	20100714.111807	20100714.113449	8	0.013328	60	10	60-180	60	113	GapExp	0	155	2	0	1	target	1	1586	207	14016	13.328	13.250	13.381
ProbeTrackDT01	24	ProbeTrack	10.4	SCS215a	20100714.111807	20100714.113456	8	0.013328	60	10	60-180	60	146	GapExp	0	156	2	75	1	target	1	667	667	14683	13.328	13.210	13.446
ProbeTrackDT01	24	ProbeTrack	10.4	SCS215a	20100714.111807	20100714.113503	8	0.013328	60	10	60-180	60	108	GapExp	0	157	2	2	1	distractor	0	933	-1000	13683	13.328	12.836	13.785
ProbeTrackDT01	24	ProbeTrack	10.4	SCS215a	20100714.111807	20100714.113508	8	0.013328	60	10	60-180	60	75	GapExp	0	158	2	1	0	distractor	1	920	540	14223	13.328	13.027	13.596
ProbeTrackDT01	24	ProbeTrack	10.4	SCS215a	20100714.111807	20100714.113514	8	0.013328	60	10	60-180	60	134	GapExp	0	159	2	2	1	target	1	614	693	14916	13.328	13.293	13.363
ProbeTrackDT01	24	ProbeTrack	10.4	SCS215a	20100714.111807	20100714.113520	8	0.013328	60	10	60-180	60	155	GapExp	0	160	2	2	0	distractor	1	800	600	15516	13.328	13.293	13.363
ProbeTrackDT01	24	ProbeTrack	10.4	SCS215a	20100714.111807	20100714.113526	8	0.013328	60	10	60-180	60	120	GapExp	0	161	2	0	1	distractor	0	1840	-1000	14516	13.328	13.038	13.618
ProbeTrackDT01	24	ProbeTrack	10.4	SCS215a	20100714.111807	20100714.113533	8	0.013328	60	10	60-180	60	87	GapExp	0	162	2	2	0	distractor	1	520	740	15256	13.328	13.283	13.373
ProbeTrackDT01	24	ProbeTrack	10.4	SCS215a	20100714.111807	20100714.113538	8	0.013328	60	10	60-180	60	110	GapExp	0	163	2	75	0	distractor	1	440	780	16036	13.328	13.065	13.558
ProbeTrackDT01	24	ProbeTrack	10.4	SCS215a	20100714.111807	20100714.113544	8	0.013328	60	10	60-180	60	108	GapExp	0	164	2	0	1	distractor	0	667	-1000	15036	13.328	13.155	13.501
ProbeTrackDT01	24	ProbeTrack	10.4	SCS215a	20100714.111807	20100714.113549	8	0.013328	60	10	60-180	60	96	GapExp	0	165	2	4	1	distractor	0	1187	-1000	14036	13.328	12.994	13.694
ProbeTrackDT01	24	ProbeTrack	10.4	SCS215a	20100714.111807	20100714.113555	8	0.013328	60	10	60-180	60	170	GapExp	0	166	2	75	0	distractor	1	545	728	14764	13.328	11.344	15.345
ProbeTrackDT01	24	ProbeTrack	10.4	SCS215a	20100714.111807	20100714.113603	8	0.013328	60	10	60-180	60	91	GapExp	0	167	2	1	1	target	1	1467	267	15031	13.384	13.201	26.657
ProbeTrackDT01	24	ProbeTrack	10.4	SCS215a	20100714.111807	20100714.113609	8	0.013328	60	10	60-180	60	164	GapExp	0	168	2	4	0	target	0	1626	-1000	14031	13.328	12.926	13.696
ProbeTrackDT01	24	ProbeTrack	10.4	SCS215a	20100714.111807	20100714.113616	8	0.013328	60	10	60-180	60	96	GapExp	0	169	2	4	0	distractor	1	1027	487	14518	13.382	12.941	26.654
ProbeTrackDT01	24	ProbeTrack	10.4	SCS215a	20100714.111807	20100714.113622	8	0.013328	60	10	60-180	60	81	GapExp	0	170	2	0	1	distractor	0	2053	-1000	13518	13.328	13.069	13.621
ProbeTrackDT01	24	ProbeTrack	10.4	SCS215a	20100714.111807	20100714.113628	8	0.013328	60	10	60-180	60	179	GapExp	0	171	2	1	0	target	0	574	-1000	12518	13.328	12.964	13.657
ProbeTrackDT01	24	ProbeTrack	10.4	SCS215a	20100714.111807	20100714.113634	8	0.013328	60	10	60-180	60	98	GapExp	0	172	2	75	1	target	1	667	667	13185	13.328	13.076	13.545
ProbeTrackDT01	24	ProbeTrack	10.4	SCS215a	20100714.111807	20100714.113641	8	0.013328	60	10	60-180	60	166	GapExp	0	173	2	0	0	target	0	1080	-1000	12185	13.328	13.032	13.623
ProbeTrackDT01	24	ProbeTrack	10.4	SCS215a	20100714.111807	20100714.113648	8	0.013328	60	10	60-180	60	88	GapExp	0	174	2	1	0	distractor	1	1626	187	12372	13.328	13.193	13.462
ProbeTrackDT01	24	ProbeTrack	10.4	SCS215a	20100714.111807	20100714.113654	8	0.013328	60	10	60-180	60	65	GapExp	0	175	2	0	0	distractor	1	1506	247	12619	13.328	13.087	13.535
ProbeTrackDT01	24	ProbeTrack	10.4	SCS215a	20100714.111807	20100714.113659	8	0.013328	60	10	60-180	60	69	GapExp	0	176	2	0	1	distractor	0	1520	-1000	11619	13.328	13.242	13.446
ProbeTrackDT01	24	ProbeTrack	10.4	SCS215a	20100714.111807	20100714.113705	8	0.013328	60	10	60-180	60	62	GapExp	0	177	2	75	0	distractor	1	600	700	12319	13.328	13.265	13.400
ProbeTrackDT01	24	ProbeTrack	10.4	SCS215a	20100714.111807	20100714.113711	8	0.013328	60	10	60-180	60	102	GapExp	0	178	2	1	1	target	1	747	627	12946	13.382	13.270	26.712
ProbeTrackDT01	24	ProbeTrack	10.4	SCS215a	20100714.111807	20100714.113717	8	0.013328	60	10	60-180	60	106	GapExp	0	179	2	4	0	distractor	1	1187	407	13353	13.328	13.083	13.539
ProbeTrackDT01	24	ProbeTrack	10.4	SCS215a	20100714.111807	20100714.113723	8	0.013328	60	10	60-180	60	83	GapExp	0	180	2	0	1	distractor	0	981	-1000	12353	13.328	13.173	13.484
ProbeTrackDT01	24	ProbeTrack	10.4	SCS215a	20100714.111807	20100714.113728	8	0.013328	60	10	60-180	60	62	GapExp	0	181	2	2	1	distractor	0	1466	-1000	11353	13.328	13.121	13.534
ProbeTrackDT01	24	ProbeTrack	10.4	SCS215a	20100714.111807	20100714.113734	8	0.013328	60	10	60-180	60	145	GapExp	0	182	2	2	0	distractor	1	560	720	12073	13.328	12.942	13.714
ProbeTrackDT01	24	ProbeTrack	10.4	SCS215a	20100714.111807	20100714.113740	8	0.013328	60	10	60-180	60	128	GapExp	0	183	2	0	1	target	1	1160	420	12493	13.328	12.955	13.735
ProbeTrackDT01	24	ProbeTrack	10.4	SCS215a	20100714.111807	20100714.113746	8	0.013328	60	10	60-180	60	105	GapExp	0	184	2	75	0	distractor	1	1120	440	12933	13.328	13.249	13.372
ProbeTrackDT01	24	ProbeTrack	10.4	SCS215a	20100714.111807	20100714.113753	8	0.013328	60	10	60-180	60	130	GapExp	0	185	2	1	1	distractor	0	1520	-1000	11933	13.328	13.275	13.363
ProbeTrackDT01	24	ProbeTrack	10.4	SCS215a	20100714.111807	20100714.113759	8	0.013328	60	10	60-180	60	68	GapExp	0	186	2	2	1	distractor	0	2119	-1000	10933	13.328	13.292	13.367
ProbeTrackDT01	24	ProbeTrack	10.4	SCS215a	20100714.111807	20100714.113806	8	0.013328	60	10	60-180	60	179	GapExp	0	187	2	4	0	target	0	2533	-1000	9933	13.328	13.289	13.366
ProbeTrackDT01	24	ProbeTrack	10.4	SCS215a	20100714.111807	20100714.113814	8	0.013328	60	10	60-180	60	75	GapExp	0	188	2	1	0	distractor	1	1173	414	10347	13.328	13.292	13.363
ProbeTrackDT01	24	ProbeTrack	10.4	SCS215a	20100714.111807	20100714.113820	8	0.013328	60	10	60-180	60	100	GapExp	0	189	2	2	1	target	1	613	694	11041	13.328	13.293	13.363
ProbeTrackDT01	24	ProbeTrack	10.4	SCS215a	20100714.111807	20100714.113825	8	0.013328	60	10	60-180	60	150	GapExp	0	190	2	75	0	distractor	1	1680	160	11201	13.328	13.011	13.680
ProbeTrackDT01	24	ProbeTrack	10.4	SCS215a	20100714.111807	20100714.113833	8	0.013328	60	10	60-180	60	150	GapExp	0	191	2	1	0	distractor	1	1440	280	11481	13.328	13.113	13.541
ProbeTrackDT01	24	ProbeTrack	10.4	SCS215a	20100714.111807	20100714.113840	8	0.013328	60	10	60-180	60	150	GapExp	0	192	2	1	1	target	1	774	613	12094	13.373	13.293	26.385
ProbeTrackDT01	24	ProbeTrack	10.4	SCS215a	20100714.111807	20100714.113846	8	0.013328	60	10	60-180	60	169	GapExp	0	193	2	0	0	distractor	1	627	687	12781	13.328	13.021	13.618
ProbeTrackDT01	24	ProbeTrack	10.4	SCS215a	20100714.111807	20100714.113852	8	0.013328	60	10	60-180	60	117	GapExp	0	194	2	2	0	target	0	1053	-1000	11781	13.328	13.289	13.366
ProbeTrackDT01	24	ProbeTrack	10.4	SCS215a	20100714.111807	20100714.113858	8	0.013328	60	10	60-180	60	88	GapExp	0	195	2	4	1	distractor	0	960	-1000	10781	13.328	13.140	13.517
ProbeTrackDT01	24	ProbeTrack	10.4	SCS215a	20100714.111807	20100714.113904	8	0.013328	60	10	60-180	60	151	GapExp	0	196	2	1	1	distractor	0	1533	-1000	9781	13.328	13.293	13.363
ProbeTrackDT01	24	ProbeTrack	10.4	SCS215a	20100714.111807	20100714.113911	8	0.013328	60	10	60-180	60	159	GapExp	0	197	2	75	0	target	0	1746	-1000	8781	13.328	12.966	13.656
ProbeTrackDT01	24	ProbeTrack	10.4	SCS215a	20100714.111807	20100714.113919	8	0.013328	60	10	60-180	60	145	GapExp	0	198	2	4	0	distractor	1	707	647	9428	13.328	13.159	13.496
ProbeTrackDT01	24	ProbeTrack	10.4	SCS215a	20100714.111807	20100714.113925	8	0.013328	60	10	60-180	60	70	GapExp	0	199	2	0	0	target	0	600	-1000	8428	13.328	13.126	13.497
ProbeTrackDT01	24	ProbeTrack	10.4	SCS215a	20100714.111807	20100714.113930	8	0.013328	60	10	60-180	60	170	GapExp	0	200	2	1	1	target	1	614	693	9121	13.372	13.066	26.516
ProbeTrackDT01	24	ProbeTrack	10.4	SCS215a	20100714.111807	20100714.113952	8	0.013328	60	10	60-180	60	180	GapExp	0	201	2	2	1	distractor	0	853	-1000	8121	13.328	13.122	13.534
ProbeTrackDT01	24	ProbeTrack	10.4	SCS215a	20100714.111807	20100714.113959	8	0.013328	60	10	60-180	60	161	GapExp	0	202	2	75	1	target	1	654	673	8794	13.328	12.818	13.838
ProbeTrackDT01	24	ProbeTrack	10.4	SCS215a	20100714.111807	20100714.114006	8	0.013328	60	10	60-180	60	79	GapExp	0	203	2	2	0	distractor	1	1760	120	8914	13.328	13.117	13.538
ProbeTrackDT01	24	ProbeTrack	10.4	SCS215a	20100714.111807	20100714.114012	8	0.013328	60	10	60-180	60	133	GapExp	0	204	2	4	0	target	0	614	-1000	7914	13.328	13.293	13.388
ProbeTrackDT01	24	ProbeTrack	10.4	SCS215a	20100714.111807	20100714.114018	8	0.013328	60	10	60-180	60	119	GapExp	0	205	2	4	1	target	1	501	750	8664	13.328	13.017	13.673
ProbeTrackDT01	24	ProbeTrack	10.4	SCS215a	20100714.111807	20100714.114024	8	0.013328	60	10	60-180	60	157	GapExp	0	206	2	1	0	distractor	1	760	620	9284	13.328	13.292	13.363
ProbeTrackDT01	24	ProbeTrack	10.4	SCS215a	20100714.111807	20100714.114030	8	0.013328	60	10	60-180	60	100	GapExp	0	207	2	4	0	target	0	1960	-1000	8284	13.328	13.157	13.496
ProbeTrackDT01	24	ProbeTrack	10.4	SCS215a	20100714.111807	20100714.114037	8	0.013328	60	10	60-180	60	174	GapExp	0	208	2	4	1	target	1	640	680	8964	13.370	13.224	26.793
ProbeTrackDT01	24	ProbeTrack	10.4	SCS215a	20100714.111807	20100714.114043	8	0.013328	60	10	60-180	60	141	GapExp	0	209	2	0	0	target	0	600	-1000	7964	13.377	13.152	26.832
ProbeTrackDT01	24	ProbeTrack	10.4	SCS215a	20100714.111807	20100714.114049	8	0.013328	60	10	60-180	60	173	GapExp	0	210	2	0	1	target	1	587	707	8671	13.328	13.288	13.374
