exp	sub	code	rev	comp	runtime	trialtime	nstim	refreshdur	cuedur	gapdur	gapOnsetRange	durPostProbe	gapOnsetTime	blocktype	prac	trial	ntargets	soa	probeTarget	resp	acc	rt	pts	tpts	meanFrameDur	minFrameDur	maxFrameDur
ProbeTrackDT01	4	ProbeTrackDT01	10.3	SCS215a	20100514.144736	20100514.144815	8	0.013327	60	0	60-180	60	103	NoGap	1	1	3	75	1	target	1	1933	34	34	13.328	13.141	13.548
ProbeTrackDT01	4	ProbeTrackDT01	10.3	SCS215a	20100514.144736	20100514.144822	8	0.013327	60	0	60-180	60	99	NoGap	1	2	3	1	1	target	1	1853	74	108	13.328	13.015	13.673
ProbeTrackDT01	4	ProbeTrackDT01	10.3	SCS215a	20100514.144736	20100514.144829	8	0.013327	60	0	60-180	60	130	NoGap	1	3	3	75	0	distractor	1	1640	180	288	13.367	13.200	26.371
ProbeTrackDT01	4	ProbeTrackDT01	10.3	SCS215a	20100514.144736	20100514.144836	8	0.013327	60	0	60-180	60	89	NoGap	1	4	3	75	0	distractor	1	1613	194	482	13.328	12.975	13.681
ProbeTrackDT01	4	ProbeTrackDT01	10.3	SCS215a	20100514.144736	20100514.144843	8	0.013327	60	0	60-180	60	174	NoGap	1	5	3	0	1	target	1	1386	307	789	13.328	13.084	13.605
ProbeTrackDT01	4	ProbeTrackDT01	10.3	SCS215a	20100514.144736	20100514.144850	8	0.013327	60	0	60-180	60	98	NoGap	1	6	3	2	0	distractor	1	1333	334	1123	13.328	13.191	13.478
ProbeTrackDT01	4	ProbeTrackDT01	10.3	SCS215a	20100514.144736	20100514.144856	8	0.013327	60	0	60-180	60	154	NoGap	1	7	3	75	1	target	1	1307	347	1470	13.328	13.292	13.394
ProbeTrackDT01	4	ProbeTrackDT01	10.3	SCS215a	20100514.144736	20100514.144904	8	0.013327	60	0	60-180	60	111	NoGap	1	8	3	1	0	distractor	1	1400	300	1770	13.328	12.990	13.664
ProbeTrackDT01	4	ProbeTrackDT01	10.3	SCS215a	20100514.144736	20100514.144910	8	0.013327	60	0	60-180	60	101	NoGap	1	9	3	4	0	distractor	1	1360	320	2090	13.328	12.975	13.681
ProbeTrackDT01	4	ProbeTrackDT01	10.3	SCS215a	20100514.144736	20100514.144916	8	0.013327	60	0	60-180	60	138	NoGap	1	10	3	2	1	target	1	1200	400	2490	13.376	12.971	26.977
ProbeTrackDT01	4	ProbeTrackDT01	10.3	SCS215a	20100514.144736	20100514.144922	8	0.013327	60	0	60-180	60	144	NoGap	1	11	3	2	1	target	1	1346	327	2817	13.328	13.228	13.462
ProbeTrackDT01	4	ProbeTrackDT01	10.3	SCS215a	20100514.144736	20100514.144929	8	0.013327	60	0	60-180	60	153	NoGap	1	12	3	2	0	distractor	1	1347	327	3144	13.328	12.941	13.715
ProbeTrackDT01	4	ProbeTrackDT01	10.3	SCS215a	20100514.144736	20100514.144935	8	0.013327	60	0	60-180	60	62	NoGap	1	13	3	4	0	distractor	1	1400	300	3444	13.328	13.293	13.365
ProbeTrackDT01	4	ProbeTrackDT01	10.3	SCS215a	20100514.144736	20100514.144941	8	0.013327	60	0	60-180	60	131	NoGap	1	14	3	4	0	distractor	1	1240	380	3824	13.328	13.293	13.362
ProbeTrackDT01	4	ProbeTrackDT01	10.3	SCS215a	20100514.144736	20100514.144947	8	0.013327	60	0	60-180	60	81	NoGap	1	15	3	0	0	distractor	1	1333	334	4158	13.390	12.976	26.874
ProbeTrackDT01	4	ProbeTrackDT01	10.3	SCS215a	20100514.144736	20100514.144953	8	0.013327	60	0	60-180	60	129	NoGap	1	16	3	1	0	distractor	1	1133	434	4592	13.328	13.245	13.409
ProbeTrackDT01	4	ProbeTrackDT01	10.3	SCS215a	20100514.144736	20100514.144959	8	0.013327	60	0	60-180	60	144	NoGap	1	17	3	4	1	target	1	1080	460	5052	13.328	13.155	13.466
ProbeTrackDT01	4	ProbeTrackDT01	10.3	SCS215a	20100514.144736	20100514.145005	8	0.013327	60	0	60-180	60	102	NoGap	1	18	3	0	0	distractor	1	1173	414	5466	13.328	13.139	13.549
ProbeTrackDT01	4	ProbeTrackDT01	10.3	SCS215a	20100514.144736	20100514.145011	8	0.013327	60	0	60-180	60	118	NoGap	1	19	3	4	0	distractor	1	1093	454	5920	13.328	13.208	13.413
ProbeTrackDT01	4	ProbeTrackDT01	10.3	SCS215a	20100514.144736	20100514.145017	8	0.013327	60	0	60-180	60	65	NoGap	1	20	3	2	1	target	1	1080	460	6380	13.328	13.049	13.607
ProbeTrackDT01	4	ProbeTrackDT01	10.3	SCS215a	20100514.144736	20100514.145022	8	0.013327	60	0	60-180	60	150	NoGap	1	21	3	4	1	target	1	1067	467	6847	13.328	13.189	13.500
ProbeTrackDT01	4	ProbeTrackDT01	10.3	SCS215a	20100514.144736	20100514.145029	8	0.013327	60	0	60-180	60	126	NoGap	1	22	3	2	0	distractor	1	1253	374	7221	13.328	13.086	13.604
ProbeTrackDT01	4	ProbeTrackDT01	10.3	SCS215a	20100514.144736	20100514.145035	8	0.013327	60	0	60-180	60	105	NoGap	1	23	3	1	1	target	1	1093	454	7675	13.328	13.239	13.417
ProbeTrackDT01	4	ProbeTrackDT01	10.3	SCS215a	20100514.144736	20100514.145041	8	0.013327	60	0	60-180	60	105	NoGap	1	24	3	0	1	target	1	1133	434	8109	13.328	13.144	13.478
ProbeTrackDT01	4	ProbeTrackDT01	10.3	SCS215a	20100514.144736	20100514.145047	8	0.013327	60	0	60-180	60	91	NoGap	1	25	3	0	1	target	1	1013	494	8603	13.328	13.015	13.641
ProbeTrackDT01	4	ProbeTrackDT01	10.3	SCS215a	20100514.144736	20100514.145052	8	0.013327	60	0	60-180	60	101	NoGap	1	26	3	1	0	distractor	1	1173	414	9017	13.328	13.293	13.363
ProbeTrackDT01	4	ProbeTrackDT01	10.3	SCS215a	20100514.144736	20100514.145058	8	0.013327	60	0	60-180	60	104	NoGap	1	27	3	2	0	distractor	1	867	567	9584	13.383	13.276	26.622
ProbeTrackDT01	4	ProbeTrackDT01	10.3	SCS215a	20100514.144736	20100514.145103	8	0.013327	60	0	60-180	60	84	NoGap	1	28	3	4	1	target	1	654	673	10257	13.328	13.060	13.596
ProbeTrackDT01	4	ProbeTrackDT01	10.3	SCS215a	20100514.144736	20100514.145109	8	0.013327	60	0	60-180	60	137	NoGap	1	29	3	75	0	distractor	1	667	667	10924	13.328	13.095	13.561
ProbeTrackDT01	4	ProbeTrackDT01	10.3	SCS215a	20100514.144736	20100514.145115	8	0.013327	60	0	60-180	60	118	NoGap	1	30	3	1	1	target	1	747	627	11551	13.328	13.218	13.438
ProbeTrackDT01	4	ProbeTrackDT01	10.3	SCS215a	20100514.144736	20100514.145121	8	0.013327	60	0	60-180	60	169	NoGap	1	31	3	0	0	distractor	1	840	580	12131	13.415	12.905	27.044
ProbeTrackDT01	4	ProbeTrackDT01	10.3	SCS215a	20100514.144736	20100514.145127	8	0.013327	60	0	60-180	60	118	NoGap	1	32	3	75	0	distractor	1	853	574	12705	13.328	13.114	13.542
ProbeTrackDT01	4	ProbeTrackDT01	10.3	SCS215a	20100514.144736	20100514.145134	8	0.013327	60	0	60-180	60	64	NoGap	1	33	3	1	1	target	1	574	713	13418	13.328	12.999	13.623
ProbeTrackDT01	4	ProbeTrackDT01	10.3	SCS215a	20100514.144736	20100514.145139	8	0.013327	60	0	60-180	60	62	NoGap	1	34	3	2	1	target	1	507	747	14165	13.328	13.292	13.363
ProbeTrackDT01	4	ProbeTrackDT01	10.3	SCS215a	20100514.144736	20100514.145143	8	0.013327	60	0	60-180	60	84	NoGap	1	35	3	0	1	target	1	547	727	14892	13.328	12.989	13.633
ProbeTrackDT01	4	ProbeTrackDT01	10.3	SCS215a	20100514.144736	20100514.145148	8	0.013327	60	0	60-180	60	150	NoGap	1	36	3	75	1	target	1	680	660	15552	13.366	13.070	26.737
ProbeTrackDT01	4	ProbeTrackDT01	10.3	SCS215a	20100514.144736	20100514.145155	8	0.013327	60	0	60-180	60	175	NoGap	1	37	3	75	1	target	1	587	707	16259	13.328	13.050	13.639
ProbeTrackDT01	4	ProbeTrackDT01	10.3	SCS215a	20100514.144736	20100514.145203	8	0.013327	60	0	60-180	60	104	NoGap	1	38	3	0	0	distractor	1	987	507	16766	13.383	13.292	26.624
ProbeTrackDT01	4	ProbeTrackDT01	10.3	SCS215a	20100514.144736	20100514.145208	8	0.013327	60	0	60-180	60	92	NoGap	1	39	3	4	1	target	1	654	673	17439	13.508	13.139	53.501
ProbeTrackDT01	4	ProbeTrackDT01	10.3	SCS215a	20100514.144736	20100514.145214	8	0.013327	60	0	60-180	60	116	NoGap	1	40	3	1	0	distractor	1	987	507	17946	13.433	12.939	40.405
ProbeTrackDT01	4	ProbeTrackDT01	10.3	SCS215a	20100514.145318	20100514.145323	8	0.013327	60	10	60-180	60	101	GapPrac	1	1	3	4	0	distractor	1	1693	154	18100	13.328	13.149	13.506
ProbeTrackDT01	4	ProbeTrackDT01	10.3	SCS215a	20100514.145318	20100514.145330	8	0.013327	60	10	60-180	60	85	GapPrac	1	2	3	75	1	target	1	933	534	18634	13.328	13.103	13.553
ProbeTrackDT01	4	ProbeTrackDT01	10.3	SCS215a	20100514.145318	20100514.145336	8	0.013327	60	10	60-180	60	166	GapPrac	1	3	3	2	1	target	1	827	587	19221	13.328	13.136	13.520
ProbeTrackDT01	4	ProbeTrackDT01	10.3	SCS215a	20100514.145318	20100514.145343	8	0.013327	60	10	60-180	60	131	GapPrac	1	4	3	2	0	distractor	1	2093	0	19221	13.376	13.161	26.655
ProbeTrackDT01	4	ProbeTrackDT01	10.3	SCS215a	20100514.145318	20100514.145350	8	0.013327	60	10	60-180	60	149	GapPrac	1	5	3	0	0	distractor	1	1320	340	19561	13.328	13.132	13.523
ProbeTrackDT01	4	ProbeTrackDT01	10.3	SCS215a	20100514.145318	20100514.145357	8	0.013327	60	10	60-180	60	155	GapPrac	1	6	3	75	0	distractor	1	800	600	20161	13.328	13.050	13.605
ProbeTrackDT01	4	ProbeTrackDT01	10.3	SCS215a	20100514.145318	20100514.145404	8	0.013327	60	10	60-180	60	176	GapPrac	1	7	3	4	1	target	1	1027	487	20648	13.328	13.179	13.478
ProbeTrackDT01	4	ProbeTrackDT01	10.3	SCS215a	20100514.145318	20100514.145411	8	0.013327	60	10	60-180	60	98	GapPrac	1	8	3	0	0	distractor	1	1040	480	21128	13.328	13.160	13.462
ProbeTrackDT01	4	ProbeTrackDT01	10.3	SCS215a	20100514.145318	20100514.145417	8	0.013327	60	10	60-180	60	139	GapPrac	1	9	3	2	1	target	1	813	594	21722	13.328	12.967	13.688
ProbeTrackDT01	4	ProbeTrackDT01	10.3	SCS215a	20100514.145318	20100514.145423	8	0.013327	60	10	60-180	60	171	GapPrac	1	10	3	0	1	target	1	920	540	22262	13.328	12.866	13.788
ProbeTrackDT01	4	ProbeTrackDT01	10.3	SCS215a	20100514.145318	20100514.145429	8	0.013327	60	10	60-180	60	122	GapPrac	1	11	3	75	1	target	1	627	687	22949	13.328	13.105	13.550
ProbeTrackDT01	4	ProbeTrackDT01	10.3	SCS215a	20100514.145318	20100514.145436	8	0.013327	60	10	60-180	60	107	GapPrac	1	12	3	1	0	distractor	1	947	527	23476	13.328	13.177	13.479
ProbeTrackDT01	4	ProbeTrackDT01	10.3	SCS215a	20100514.145318	20100514.145442	8	0.013327	60	10	60-180	60	142	GapPrac	1	13	3	1	1	target	1	773	614	24090	13.328	13.052	13.605
ProbeTrackDT01	4	ProbeTrackDT01	10.3	SCS215a	20100514.145318	20100514.145448	8	0.013327	60	10	60-180	60	136	GapPrac	1	14	3	1	1	target	1	813	594	24684	13.328	13.177	13.512
ProbeTrackDT01	4	ProbeTrackDT01	10.3	SCS215a	20100514.145318	20100514.145454	8	0.013327	60	10	60-180	60	114	GapPrac	1	15	3	4	1	target	1	747	627	25311	13.328	13.161	13.518
ProbeTrackDT01	4	ProbeTrackDT01	10.3	SCS215a	20100514.145318	20100514.145500	8	0.013327	60	10	60-180	60	111	GapPrac	1	16	3	4	0	target	0	893	-1000	24311	13.328	13.274	13.414
ProbeTrackDT01	4	ProbeTrackDT01	10.3	SCS215a	20100514.145318	20100514.145505	8	0.013327	60	10	60-180	60	142	GapPrac	1	17	3	1	0	target	0	813	-1000	23311	13.328	13.041	13.648
ProbeTrackDT01	4	ProbeTrackDT01	10.3	SCS215a	20100514.145318	20100514.145512	8	0.013327	60	10	60-180	60	165	GapPrac	1	18	3	2	0	target	0	800	-1000	22311	13.328	12.973	13.770
ProbeTrackDT01	4	ProbeTrackDT01	10.3	SCS215a	20100514.145318	20100514.145518	8	0.013327	60	10	60-180	60	150	GapPrac	1	19	3	75	0	distractor	1	800	600	22911	13.328	13.167	13.489
ProbeTrackDT01	4	ProbeTrackDT01	10.3	SCS215a	20100514.145318	20100514.145525	8	0.013327	60	10	60-180	60	83	GapPrac	1	20	3	0	1	distractor	0	1013	-1000	21911	13.328	13.095	13.527
ProbeTrackDT01	4	ProbeTrackDT01	10.3	SCS215a	20100514.145618	20100514.145646	8	0.013328	60	10	60-180	60	80	GapPrac	1	1	3	2	1	target	1	1107	447	22358	13.328	13.292	13.363
ProbeTrackDT01	4	ProbeTrackDT01	10.3	SCS215a	20100514.145618	20100514.145651	8	0.013328	60	10	60-180	60	121	GapPrac	1	2	3	1	1	distractor	0	547	-1000	21358	13.328	13.011	13.679
ProbeTrackDT01	4	ProbeTrackDT01	10.3	SCS215a	20100514.145618	20100514.145657	8	0.013328	60	10	60-180	60	136	GapPrac	1	3	3	4	0	distractor	1	574	713	22071	13.328	13.293	13.366
ProbeTrackDT01	4	ProbeTrackDT01	10.3	SCS215a	20100514.145618	20100514.145703	8	0.013328	60	10	60-180	60	178	GapPrac	1	4	3	75	1	target	1	587	707	22778	13.328	13.192	13.497
ProbeTrackDT01	4	ProbeTrackDT01	10.3	SCS215a	20100514.145618	20100514.145710	8	0.013328	60	10	60-180	60	145	GapPrac	1	5	3	1	0	distractor	1	1400	300	23078	13.328	13.148	13.542
ProbeTrackDT01	4	ProbeTrackDT01	10.3	SCS215a	20100514.145618	20100514.145717	8	0.013328	60	10	60-180	60	90	GapPrac	1	6	3	2	1	target	1	334	833	23911	13.328	13.283	13.407
ProbeTrackDT01	4	ProbeTrackDT01	10.3	SCS215a	20100514.145618	20100514.145722	8	0.013328	60	10	60-180	60	122	GapPrac	1	7	3	0	0	target	0	613	-1000	22911	13.380	13.213	26.655
ProbeTrackDT01	4	ProbeTrackDT01	10.3	SCS215a	20100514.145618	20100514.145727	8	0.013328	60	10	60-180	60	112	GapPrac	1	8	3	1	1	distractor	0	310	-1000	21911	13.328	13.134	13.522
ProbeTrackDT01	4	ProbeTrackDT01	10.3	SCS215a	20100514.145618	20100514.145733	8	0.013328	60	10	60-180	60	116	GapPrac	1	9	3	75	0	target	0	2719	-1000	20911	13.328	13.200	13.455
ProbeTrackDT01	4	ProbeTrackDT01	10.3	SCS215a	20100514.145618	20100514.145741	8	0.013328	60	10	60-180	60	177	GapPrac	1	10	3	0	0	distractor	1	547	727	21638	13.371	13.252	26.607
ProbeTrackDT01	4	ProbeTrackDT01	10.3	SCS215a	20100514.145618	20100514.145748	8	0.013328	60	10	60-180	60	122	GapPrac	1	11	3	4	1	distractor	0	627	-1000	20638	13.328	13.164	13.459
ProbeTrackDT01	4	ProbeTrackDT01	10.3	SCS215a	20100514.145618	20100514.145753	8	0.013328	60	10	60-180	60	126	GapPrac	1	12	3	1	0	target	0	3519	-1000	19638	13.328	13.238	13.417
ProbeTrackDT01	4	ProbeTrackDT01	10.3	SCS215a	20100514.145618	20100514.145802	8	0.013328	60	10	60-180	60	113	GapPrac	1	13	3	0	1	target	1	494	753	20391	13.328	13.193	13.463
ProbeTrackDT01	4	ProbeTrackDT01	10.3	SCS215a	20100514.145618	20100514.145807	8	0.013328	60	10	60-180	60	94	GapPrac	1	14	3	0	1	target	1	614	693	21084	13.328	13.261	13.423
ProbeTrackDT01	4	ProbeTrackDT01	10.3	SCS215a	20100514.145618	20100514.145813	8	0.013328	60	10	60-180	60	100	GapPrac	1	15	3	4	1	target	1	760	620	21704	13.328	13.292	13.363
ProbeTrackDT01	4	ProbeTrackDT01	10.3	SCS215a	20100514.145618	20100514.145818	8	0.013328	60	10	60-180	60	68	GapPrac	1	16	3	2	0	target	0	2346	-1000	20704	13.328	13.293	13.364
ProbeTrackDT01	4	ProbeTrackDT01	10.3	SCS215a	20100514.145618	20100514.145825	8	0.013328	60	10	60-180	60	66	GapPrac	1	17	3	75	1	distractor	0	1160	-1000	19704	13.328	13.170	13.484
ProbeTrackDT01	4	ProbeTrackDT01	10.3	SCS215a	20100514.145618	20100514.145831	8	0.013328	60	10	60-180	60	121	GapPrac	1	18	3	75	0	target	0	960	-1000	18704	13.328	13.266	13.390
ProbeTrackDT01	4	ProbeTrackDT01	10.3	SCS215a	20100514.145618	20100514.145838	8	0.013328	60	10	60-180	60	73	GapPrac	1	19	3	2	0	target	0	400	-1000	17704	13.328	13.182	13.474
ProbeTrackDT01	4	ProbeTrackDT01	10.3	SCS215a	20100514.145618	20100514.145843	8	0.013328	60	10	60-180	60	67	GapPrac	1	20	3	4	0	target	0	1906	-1000	16704	13.328	13.049	13.607
ProbeTrackDT01	4	ProbeTrackDT01	10.3	SCS215a	20100514.145926	20100514.145933	8	0.013328	60	10	60-180	60	128	GapExp	1	1	3	4	1	distractor	0	760	-1000	15704	13.328	13.293	13.363
ProbeTrackDT01	4	ProbeTrackDT01	10.3	SCS215a	20100514.145926	20100514.145939	8	0.013328	60	10	60-180	60	139	GapExp	1	2	3	75	0	distractor	1	893	554	16258	13.328	13.122	13.533
ProbeTrackDT01	4	ProbeTrackDT01	10.3	SCS215a	20100514.145926	20100514.145946	8	0.013328	60	10	60-180	60	109	GapExp	1	3	3	0	1	target	1	1027	487	16745	13.328	13.259	13.430
ProbeTrackDT01	4	ProbeTrackDT01	10.3	SCS215a	20100514.145926	20100514.145952	8	0.013328	60	10	60-180	60	101	GapExp	1	4	3	75	1	target	1	733	634	17379	13.370	13.246	26.657
ProbeTrackDT01	4	ProbeTrackDT01	10.3	SCS215a	20100514.145926	20100514.145958	8	0.013328	60	10	60-180	60	111	GapExp	1	5	3	2	0	distractor	1	640	680	18059	13.328	13.293	13.363
ProbeTrackDT01	4	ProbeTrackDT01	10.3	SCS215a	20100514.145926	20100514.150004	8	0.013328	60	10	60-180	60	105	GapExp	1	6	3	0	0	distractor	1	667	667	18726	13.328	13.227	13.430
ProbeTrackDT01	4	ProbeTrackDT01	10.3	SCS215a	20100514.145926	20100514.150009	8	0.013328	60	10	60-180	60	88	GapExp	1	7	3	2	1	target	1	360	820	19546	13.328	13.265	13.423
ProbeTrackDT01	4	ProbeTrackDT01	10.3	SCS215a	20100514.145926	20100514.150014	8	0.013328	60	10	60-180	60	180	GapExp	1	8	3	4	0	distractor	1	574	713	20259	13.328	13.173	13.483
ProbeTrackDT01	4	ProbeTrackDT01	10.3	SCS215a	20100514.145926	20100514.150021	8	0.013328	60	10	60-180	60	173	GapExp	1	9	3	1	0	target	0	654	-1000	19259	13.328	13.292	13.363
ProbeTrackDT01	4	ProbeTrackDT01	10.3	SCS215a	20100514.145926	20100514.150027	8	0.013328	60	10	60-180	60	82	GapExp	1	10	3	1	1	target	1	720	640	19899	13.328	13.290	13.363
ProbeTrackDT01	4	ProbeTrackDT01	10.3	SCS215a	20100514.145926	20100514.150032	8	0.013328	60	10	60-180	60	77	GapExp	0	11	3	75	0	target	0	654	-1000	18899	13.328	13.293	13.365
ProbeTrackDT01	4	ProbeTrackDT01	10.3	SCS215a	20100514.145926	20100514.150038	8	0.013328	60	10	60-180	60	176	GapExp	0	12	3	0	0	target	0	614	-1000	17899	13.328	12.935	13.686
ProbeTrackDT01	4	ProbeTrackDT01	10.3	SCS215a	20100514.145926	20100514.150045	8	0.013328	60	10	60-180	60	142	GapExp	0	13	3	0	1	distractor	0	654	-1000	16899	13.376	13.240	26.655
ProbeTrackDT01	4	ProbeTrackDT01	10.3	SCS215a	20100514.145926	20100514.150051	8	0.013328	60	10	60-180	60	67	GapExp	0	14	3	4	1	target	1	653	674	17573	13.328	13.227	13.429
ProbeTrackDT01	4	ProbeTrackDT01	10.3	SCS215a	20100514.145926	20100514.150056	8	0.013328	60	10	60-180	60	121	GapExp	0	15	3	75	1	distractor	0	2266	-1000	16573	13.328	13.158	13.464
ProbeTrackDT01	4	ProbeTrackDT01	10.3	SCS215a	20100514.145926	20100514.150104	8	0.013328	60	10	60-180	60	84	GapExp	0	16	3	4	1	target	1	1400	300	16873	13.328	13.224	13.432
ProbeTrackDT01	4	ProbeTrackDT01	10.3	SCS215a	20100514.145926	20100514.150110	8	0.013328	60	10	60-180	60	140	GapExp	0	17	3	2	0	distractor	1	2679	0	16873	13.328	12.954	13.702
ProbeTrackDT01	4	ProbeTrackDT01	10.3	SCS215a	20100514.145926	20100514.150118	8	0.013328	60	10	60-180	60	90	GapExp	0	18	3	4	0	target	0	947	-1000	15873	13.328	13.185	13.438
ProbeTrackDT01	4	ProbeTrackDT01	10.3	SCS215a	20100514.145926	20100514.150123	8	0.013328	60	10	60-180	60	100	GapExp	0	19	3	2	0	distractor	1	880	560	16433	13.382	13.283	26.653
ProbeTrackDT01	4	ProbeTrackDT01	10.3	SCS215a	20100514.145926	20100514.150129	8	0.013328	60	10	60-180	60	125	GapExp	0	20	3	0	0	target	0	1253	-1000	15433	13.377	12.934	27.048
ProbeTrackDT01	4	ProbeTrackDT01	10.3	SCS215a	20100514.145926	20100514.150135	8	0.013328	60	10	60-180	60	115	GapExp	0	21	3	4	0	target	0	1227	-1000	14433	13.328	13.049	13.572
ProbeTrackDT01	4	ProbeTrackDT01	10.3	SCS215a	20100514.145926	20100514.150142	8	0.013328	60	10	60-180	60	108	GapExp	0	22	3	75	0	target	0	1107	-1000	13433	13.734	13.120	79.952
ProbeTrackDT01	4	ProbeTrackDT01	10.3	SCS215a	20100514.145926	20100514.150149	8	0.013328	60	10	60-180	60	160	GapExp	0	23	3	0	1	target	1	1240	380	13813	13.328	12.962	13.660
ProbeTrackDT01	4	ProbeTrackDT01	10.3	SCS215a	20100514.145926	20100514.150155	8	0.013328	60	10	60-180	60	95	GapExp	0	24	3	0	1	target	1	2119	0	13813	13.328	13.060	13.595
ProbeTrackDT01	4	ProbeTrackDT01	10.3	SCS215a	20100514.145926	20100514.150202	8	0.013328	60	10	60-180	60	73	GapExp	0	25	3	4	0	distractor	1	1666	167	13980	13.328	13.030	13.590
ProbeTrackDT01	4	ProbeTrackDT01	10.3	SCS215a	20100514.145926	20100514.150208	8	0.013328	60	10	60-180	60	176	GapExp	0	26	3	75	0	target	0	680	-1000	12980	13.362	13.180	26.771
ProbeTrackDT01	4	ProbeTrackDT01	10.3	SCS215a	20100514.145926	20100514.150216	8	0.013328	60	10	60-180	60	71	GapExp	0	27	3	1	1	distractor	0	840	-1000	11980	13.328	13.157	13.533
ProbeTrackDT01	4	ProbeTrackDT01	10.3	SCS215a	20100514.145926	20100514.150221	8	0.013328	60	10	60-180	60	165	GapExp	0	28	3	4	0	target	0	800	-1000	10980	13.455	13.171	26.778
ProbeTrackDT01	4	ProbeTrackDT01	10.3	SCS215a	20100514.145926	20100514.150227	8	0.013328	60	10	60-180	60	109	GapExp	0	29	3	0	0	distractor	1	880	560	11540	13.328	13.182	13.472
ProbeTrackDT01	4	ProbeTrackDT01	10.3	SCS215a	20100514.145926	20100514.150233	8	0.013328	60	10	60-180	60	169	GapExp	0	30	3	0	0	distractor	1	760	620	12160	13.754	13.251	53.343
ProbeTrackDT01	4	ProbeTrackDT01	10.3	SCS215a	20100514.145926	20100514.150240	8	0.013328	60	10	60-180	60	109	GapExp	0	31	3	1	0	target	0	1346	-1000	11160	13.328	13.127	13.528
ProbeTrackDT01	4	ProbeTrackDT01	10.3	SCS215a	20100514.145926	20100514.150246	8	0.013328	60	10	60-180	60	102	GapExp	0	32	3	2	1	target	1	1040	480	11640	13.328	13.122	13.499
ProbeTrackDT01	4	ProbeTrackDT01	10.3	SCS215a	20100514.145926	20100514.150252	8	0.013328	60	10	60-180	60	156	GapExp	0	33	3	1	1	target	1	2786	0	11640	13.327	13.187	13.366
ProbeTrackDT01	4	ProbeTrackDT01	10.3	SCS215a	20100514.145926	20100514.150300	8	0.013328	60	10	60-180	60	125	GapExp	0	34	3	75	0	distractor	1	1253	374	12014	13.328	12.971	13.719
ProbeTrackDT01	4	ProbeTrackDT01	10.3	SCS215a	20100514.145926	20100514.150307	8	0.013328	60	10	60-180	60	170	GapExp	0	35	3	0	0	target	0	2506	-1000	11014	13.327	13.033	13.623
ProbeTrackDT01	4	ProbeTrackDT01	10.3	SCS215a	20100514.145926	20100514.150315	8	0.013328	60	10	60-180	60	180	GapExp	0	36	3	4	0	distractor	1	1346	327	11341	13.368	13.062	26.921
ProbeTrackDT01	4	ProbeTrackDT01	10.3	SCS215a	20100514.145926	20100514.150322	8	0.013328	60	10	60-180	60	150	GapExp	0	37	3	4	0	distractor	1	1200	400	11741	13.328	13.067	13.614
ProbeTrackDT01	4	ProbeTrackDT01	10.3	SCS215a	20100514.145926	20100514.150329	8	0.013328	60	10	60-180	60	172	GapExp	0	38	3	4	1	target	1	1160	420	12161	13.328	12.987	13.667
ProbeTrackDT01	4	ProbeTrackDT01	10.3	SCS215a	20100514.145926	20100514.150336	8	0.013328	60	10	60-180	60	123	GapExp	0	39	3	0	1	target	1	1013	494	12655	13.328	13.070	13.586
ProbeTrackDT01	4	ProbeTrackDT01	10.3	SCS215a	20100514.145926	20100514.150342	8	0.013328	60	10	60-180	60	118	GapExp	0	40	3	1	0	distractor	1	987	507	13162	13.328	12.917	13.738
ProbeTrackDT01	4	ProbeTrackDT01	10.3	SCS215a	20100514.145926	20100514.150348	8	0.013328	60	10	60-180	60	100	GapExp	0	41	3	2	0	target	0	1067	-1000	12162	13.328	13.183	13.472
ProbeTrackDT01	4	ProbeTrackDT01	10.3	SCS215a	20100514.145926	20100514.150354	8	0.013328	60	10	60-180	60	66	GapExp	0	42	3	2	1	distractor	0	3473	-1000	11162	13.703	13.150	40.121
ProbeTrackDT01	4	ProbeTrackDT01	10.3	SCS215a	20100514.145926	20100514.150402	8	0.013328	60	10	60-180	60	175	GapExp	0	43	3	4	1	distractor	0	1080	-1000	10162	13.452	13.006	39.951
ProbeTrackDT01	4	ProbeTrackDT01	10.3	SCS215a	20100514.145926	20100514.150409	8	0.013328	60	10	60-180	60	79	GapExp	0	44	3	4	0	target	0	1053	-1000	9162	13.328	13.136	13.521
ProbeTrackDT01	4	ProbeTrackDT01	10.3	SCS215a	20100514.145926	20100514.150414	8	0.013328	60	10	60-180	60	121	GapExp	0	45	3	1	0	distractor	1	1706	147	9309	13.328	13.075	13.580
ProbeTrackDT01	4	ProbeTrackDT01	10.3	SCS215a	20100514.145926	20100514.150421	8	0.013328	60	10	60-180	60	159	GapExp	0	46	3	1	0	target	0	1706	-1000	8309	13.328	13.158	13.530
ProbeTrackDT01	4	ProbeTrackDT01	10.3	SCS215a	20100514.145926	20100514.150428	8	0.013328	60	10	60-180	60	164	GapExp	0	47	3	4	1	distractor	0	1440	-1000	7309	13.328	13.107	13.549
ProbeTrackDT01	4	ProbeTrackDT01	10.3	SCS215a	20100514.145926	20100514.150435	8	0.013328	60	10	60-180	60	171	GapExp	0	48	3	75	1	target	1	707	647	7956	13.328	13.145	13.476
ProbeTrackDT01	4	ProbeTrackDT01	10.3	SCS215a	20100514.145926	20100514.150442	8	0.013328	60	10	60-180	60	100	GapExp	0	49	3	1	1	target	1	680	660	8616	13.328	13.115	13.506
ProbeTrackDT01	4	ProbeTrackDT01	10.3	SCS215a	20100514.145926	20100514.150448	8	0.013328	60	10	60-180	60	83	GapExp	0	50	3	1	1	distractor	0	1147	-1000	7616	13.386	12.942	26.656
ProbeTrackDT01	4	ProbeTrackDT01	10.3	SCS215a	20100514.145926	20100514.150513	8	0.013328	60	10	60-180	60	152	GapExp	0	51	3	1	0	target	0	1080	-1000	6616	13.328	13.072	13.583
ProbeTrackDT01	4	ProbeTrackDT01	10.3	SCS215a	20100514.145926	20100514.150520	8	0.013328	60	10	60-180	60	177	GapExp	0	52	3	75	0	target	0	760	-1000	5616	13.328	12.998	13.691
ProbeTrackDT01	4	ProbeTrackDT01	10.3	SCS215a	20100514.145926	20100514.150527	8	0.013328	60	10	60-180	60	71	GapExp	0	53	3	2	0	distractor	1	880	560	6176	13.328	13.293	13.398
ProbeTrackDT01	4	ProbeTrackDT01	10.3	SCS215a	20100514.145926	20100514.150533	8	0.013328	60	10	60-180	60	135	GapExp	0	54	3	2	1	target	1	813	594	6770	13.328	12.930	13.726
ProbeTrackDT01	4	ProbeTrackDT01	10.3	SCS215a	20100514.145926	20100514.150539	8	0.013328	60	10	60-180	60	157	GapExp	0	55	3	75	1	distractor	0	747	-1000	5770	13.328	12.998	13.690
ProbeTrackDT01	4	ProbeTrackDT01	10.3	SCS215a	20100514.145926	20100514.150546	8	0.013328	60	10	60-180	60	105	GapExp	0	56	3	4	0	target	0	1786	-1000	4770	13.328	12.962	13.692
ProbeTrackDT01	4	ProbeTrackDT01	10.3	SCS215a	20100514.145926	20100514.150553	8	0.013328	60	10	60-180	60	73	GapExp	0	57	3	4	0	target	0	1133	-1000	3770	13.328	12.955	13.700
ProbeTrackDT01	4	ProbeTrackDT01	10.3	SCS215a	20100514.145926	20100514.150558	8	0.013328	60	10	60-180	60	115	GapExp	0	58	3	0	1	distractor	0	1826	-1000	2770	13.328	13.017	13.604
ProbeTrackDT01	4	ProbeTrackDT01	10.3	SCS215a	20100514.145926	20100514.150605	8	0.013328	60	10	60-180	60	86	GapExp	0	59	3	0	0	target	0	2026	-1000	1770	13.328	13.062	13.560
ProbeTrackDT01	4	ProbeTrackDT01	10.3	SCS215a	20100514.145926	20100514.150611	8	0.013328	60	10	60-180	60	148	GapExp	0	60	3	75	1	distractor	0	1373	-1000	770	13.328	13.139	13.587
ProbeTrackDT01	4	ProbeTrackDT01	10.3	SCS215a	20100514.145926	20100514.150619	8	0.013328	60	10	60-180	60	161	GapExp	0	61	3	75	1	target	1	720	640	1410	13.328	13.203	13.452
ProbeTrackDT01	4	ProbeTrackDT01	10.3	SCS215a	20100514.145926	20100514.150626	8	0.013328	60	10	60-180	60	102	GapExp	0	62	3	75	0	distractor	1	973	514	1924	13.328	13.077	13.545
ProbeTrackDT01	4	ProbeTrackDT01	10.3	SCS215a	20100514.145926	20100514.150633	8	0.013328	60	10	60-180	60	114	GapExp	0	63	3	2	1	target	1	960	520	2444	13.328	13.097	13.525
ProbeTrackDT01	4	ProbeTrackDT01	10.3	SCS215a	20100514.145926	20100514.150639	8	0.013328	60	10	60-180	60	110	GapExp	0	64	3	2	1	target	1	1173	414	2858	13.328	13.143	13.480
ProbeTrackDT01	4	ProbeTrackDT01	10.3	SCS215a	20100514.145926	20100514.150645	8	0.013328	60	10	60-180	60	84	GapExp	0	65	3	2	0	distractor	1	1280	360	3218	13.328	13.293	13.363
ProbeTrackDT01	4	ProbeTrackDT01	10.3	SCS215a	20100514.145926	20100514.150651	8	0.013328	60	10	60-180	60	166	GapExp	0	66	3	2	0	target	0	1067	-1000	2218	13.328	13.128	13.527
ProbeTrackDT01	4	ProbeTrackDT01	10.3	SCS215a	20100514.145926	20100514.150658	8	0.013328	60	10	60-180	60	93	GapExp	0	67	3	0	1	target	1	1906	47	2265	13.328	12.953	13.702
ProbeTrackDT01	4	ProbeTrackDT01	10.3	SCS215a	20100514.145926	20100514.150704	8	0.013328	60	10	60-180	60	75	GapExp	0	68	3	2	1	target	1	1080	460	2725	13.328	12.957	13.664
ProbeTrackDT01	4	ProbeTrackDT01	10.3	SCS215a	20100514.145926	20100514.150710	8	0.013328	60	10	60-180	60	100	GapExp	0	69	3	1	1	target	1	1426	287	3012	13.328	12.980	13.675
ProbeTrackDT01	4	ProbeTrackDT01	10.3	SCS215a	20100514.145926	20100514.150716	8	0.013328	60	10	60-180	60	114	GapExp	0	70	3	1	1	target	1	1333	334	3346	13.328	13.016	13.606
ProbeTrackDT01	4	ProbeTrackDT01	10.3	SCS215a	20100514.145926	20100514.150722	8	0.013328	60	10	60-180	60	107	GapExp	0	71	3	75	0	distractor	1	1546	227	3573	13.328	13.053	13.635
ProbeTrackDT01	4	ProbeTrackDT01	10.3	SCS215a	20100514.145926	20100514.150729	8	0.013328	60	10	60-180	60	65	GapExp	0	72	3	1	1	target	1	1346	327	3900	13.328	13.249	13.372
ProbeTrackDT01	4	ProbeTrackDT01	10.3	SCS215a	20100514.145926	20100514.150735	8	0.013328	60	10	60-180	60	176	GapExp	0	73	3	4	0	distractor	1	773	614	4514	13.328	13.293	13.363
ProbeTrackDT01	4	ProbeTrackDT01	10.3	SCS215a	20100514.145926	20100514.150741	8	0.013328	60	10	60-180	60	78	GapExp	0	74	3	0	1	target	1	2693	0	4514	13.328	13.292	13.363
ProbeTrackDT01	4	ProbeTrackDT01	10.3	SCS215a	20100514.145926	20100514.150748	8	0.013328	60	10	60-180	60	80	GapExp	0	75	3	0	0	target	0	2999	-1000	3514	13.328	12.979	13.709
ProbeTrackDT01	4	ProbeTrackDT01	10.3	SCS215a	20100514.145926	20100514.150756	8	0.013328	60	10	60-180	60	90	GapExp	0	76	3	1	1	distractor	0	1560	-1000	2514	13.328	12.971	13.650
ProbeTrackDT01	4	ProbeTrackDT01	10.3	SCS215a	20100514.145926	20100514.150802	8	0.013328	60	10	60-180	60	121	GapExp	0	77	3	4	0	target	0	2359	-1000	1514	13.328	13.084	13.572
ProbeTrackDT01	4	ProbeTrackDT01	10.3	SCS215a	20100514.145926	20100514.150809	8	0.013328	60	10	60-180	60	173	GapExp	0	78	3	4	1	target	1	680	660	2174	13.328	13.157	13.532
ProbeTrackDT01	4	ProbeTrackDT01	10.3	SCS215a	20100514.145926	20100514.150816	8	0.013328	60	10	60-180	60	137	GapExp	0	79	3	2	1	target	1	1213	394	2568	13.328	13.243	13.412
ProbeTrackDT01	4	ProbeTrackDT01	10.3	SCS215a	20100514.145926	20100514.150822	8	0.013328	60	10	60-180	60	117	GapExp	0	80	3	75	1	target	1	614	693	3261	13.328	12.931	13.690
ProbeTrackDT01	4	ProbeTrackDT01	10.3	SCS215a	20100514.145926	20100514.150829	8	0.013328	60	10	60-180	60	141	GapExp	0	81	3	75	0	target	0	574	-1000	2261	13.328	13.128	13.528
ProbeTrackDT01	4	ProbeTrackDT01	10.3	SCS215a	20100514.145926	20100514.150836	8	0.013328	60	10	60-180	60	158	GapExp	0	82	3	75	1	target	1	654	673	2934	13.328	13.006	13.649
ProbeTrackDT01	4	ProbeTrackDT01	10.3	SCS215a	20100514.145926	20100514.150843	8	0.013328	60	10	60-180	60	145	GapExp	0	83	3	75	1	target	1	614	693	3627	13.328	12.977	13.678
ProbeTrackDT01	4	ProbeTrackDT01	10.3	SCS215a	20100514.145926	20100514.150850	8	0.013328	60	10	60-180	60	127	GapExp	0	84	3	1	1	target	1	1013	494	4121	13.328	13.189	13.466
ProbeTrackDT01	4	ProbeTrackDT01	10.3	SCS215a	20100514.145926	20100514.150856	8	0.013328	60	10	60-180	60	88	GapExp	0	85	3	4	0	target	0	614	-1000	3121	13.328	13.097	13.558
ProbeTrackDT01	4	ProbeTrackDT01	10.3	SCS215a	20100514.145926	20100514.150901	8	0.013328	60	10	60-180	60	75	GapExp	0	86	3	75	0	distractor	1	1173	414	3535	13.328	13.281	13.408
ProbeTrackDT01	4	ProbeTrackDT01	10.3	SCS215a	20100514.145926	20100514.150908	8	0.013328	60	10	60-180	60	73	GapExp	0	87	3	4	0	distractor	1	774	613	4148	13.328	13.242	13.448
ProbeTrackDT01	4	ProbeTrackDT01	10.3	SCS215a	20100514.145926	20100514.150913	8	0.013328	60	10	60-180	60	109	GapExp	0	88	3	2	0	distractor	1	707	647	4795	13.328	13.293	13.363
ProbeTrackDT01	4	ProbeTrackDT01	10.3	SCS215a	20100514.145926	20100514.150919	8	0.013328	60	10	60-180	60	67	GapExp	0	89	3	2	1	target	1	1586	207	5002	13.328	13.129	13.559
ProbeTrackDT01	4	ProbeTrackDT01	10.3	SCS215a	20100514.145926	20100514.150924	8	0.013328	60	10	60-180	60	64	GapExp	0	90	3	0	1	distractor	0	1480	-1000	4002	13.391	13.189	26.795
ProbeTrackDT01	4	ProbeTrackDT01	10.3	SCS215a	20100514.145926	20100514.150930	8	0.013328	60	10	60-180	60	164	GapExp	0	91	3	1	1	target	1	1040	480	4482	13.328	12.964	13.691
ProbeTrackDT01	4	ProbeTrackDT01	10.3	SCS215a	20100514.145926	20100514.150937	8	0.013328	60	10	60-180	60	157	GapExp	0	92	3	75	0	distractor	1	667	667	5149	13.328	13.053	13.601
ProbeTrackDT01	4	ProbeTrackDT01	10.3	SCS215a	20100514.145926	20100514.150944	8	0.013328	60	10	60-180	60	130	GapExp	0	93	3	75	1	target	1	1107	447	5596	13.328	13.121	13.561
ProbeTrackDT01	4	ProbeTrackDT01	10.3	SCS215a	20100514.145926	20100514.150951	8	0.013328	60	10	60-180	60	110	GapExp	0	94	3	1	0	target	0	640	-1000	4596	13.328	13.001	13.653
ProbeTrackDT01	4	ProbeTrackDT01	10.3	SCS215a	20100514.145926	20100514.150957	8	0.013328	60	10	60-180	60	65	GapExp	0	95	3	0	0	distractor	1	1253	374	4970	13.391	13.293	26.655
ProbeTrackDT01	4	ProbeTrackDT01	10.3	SCS215a	20100514.145926	20100514.151002	8	0.013328	60	10	60-180	60	129	GapExp	0	96	3	75	0	distractor	1	1080	460	5430	13.328	13.123	13.566
ProbeTrackDT01	4	ProbeTrackDT01	10.3	SCS215a	20100514.145926	20100514.151009	8	0.013328	60	10	60-180	60	86	GapExp	0	97	3	1	1	target	1	2466	0	5430	13.443	12.873	27.109
ProbeTrackDT01	4	ProbeTrackDT01	10.3	SCS215a	20100514.145926	20100514.151016	8	0.013328	60	10	60-180	60	70	GapExp	0	98	3	75	0	target	0	907	-1000	4430	13.649	13.221	80.249
ProbeTrackDT01	4	ProbeTrackDT01	10.3	SCS215a	20100514.145926	20100514.151023	8	0.013328	60	10	60-180	60	136	GapExp	0	99	3	0	1	distractor	0	1440	-1000	3430	13.328	13.057	13.598
ProbeTrackDT01	4	ProbeTrackDT01	10.3	SCS215a	20100514.145926	20100514.151029	8	0.013328	60	10	60-180	60	113	GapExp	0	100	3	75	0	target	0	2106	-1000	2430	13.368	13.117	26.832
ProbeTrackDT01	4	ProbeTrackDT01	10.3	SCS215a	20100514.145926	20100514.151056	8	0.013328	60	10	60-180	60	62	GapExp	0	101	3	2	0	target	0	947	-1000	1430	13.328	13.154	13.500
ProbeTrackDT01	4	ProbeTrackDT01	10.3	SCS215a	20100514.145926	20100514.151101	8	0.013328	60	10	60-180	60	83	GapExp	0	102	3	4	1	target	1	680	660	2090	13.328	13.138	13.552
ProbeTrackDT01	4	ProbeTrackDT01	10.3	SCS215a	20100514.145926	20100514.151107	8	0.013328	60	10	60-180	60	122	GapExp	0	103	3	75	1	distractor	0	880	-1000	1090	13.328	13.224	13.431
ProbeTrackDT01	4	ProbeTrackDT01	10.3	SCS215a	20100514.145926	20100514.151114	8	0.013328	60	10	60-180	60	73	GapExp	0	104	3	4	1	target	1	680	660	1750	13.328	13.117	13.540
ProbeTrackDT01	4	ProbeTrackDT01	10.3	SCS215a	20100514.145926	20100514.151119	8	0.013328	60	10	60-180	60	67	GapExp	0	105	3	2	1	target	1	507	747	2497	13.327	13.224	13.432
ProbeTrackDT01	4	ProbeTrackDT01	10.3	SCS215a	20100514.145926	20100514.151123	8	0.013328	60	10	60-180	60	143	GapExp	0	106	3	2	1	target	1	787	607	3104	13.328	13.000	13.654
ProbeTrackDT01	4	ProbeTrackDT01	10.3	SCS215a	20100514.145926	20100514.151130	8	0.013328	60	10	60-180	60	79	GapExp	0	107	3	4	1	target	1	480	760	3864	13.328	13.126	13.494
ProbeTrackDT01	4	ProbeTrackDT01	10.3	SCS215a	20100514.145926	20100514.151135	8	0.013328	60	10	60-180	60	98	GapExp	0	108	3	4	0	distractor	1	680	660	4524	13.328	13.293	13.363
ProbeTrackDT01	4	ProbeTrackDT01	10.3	SCS215a	20100514.145926	20100514.151140	8	0.013328	60	10	60-180	60	153	GapExp	0	109	3	1	0	target	0	574	-1000	3524	13.328	12.996	13.693
ProbeTrackDT01	4	ProbeTrackDT01	10.3	SCS215a	20100514.145926	20100514.151146	8	0.013328	60	10	60-180	60	69	GapExp	0	110	3	0	1	target	1	733	634	4158	13.328	13.057	13.631
ProbeTrackDT01	4	ProbeTrackDT01	10.3	SCS215a	20100514.145926	20100514.151151	8	0.013328	60	10	60-180	60	115	GapExp	0	111	3	4	1	target	1	654	673	4831	13.589	13.028	80.156
ProbeTrackDT01	4	ProbeTrackDT01	10.3	SCS215a	20100514.145926	20100514.151157	8	0.013328	60	10	60-180	60	63	GapExp	0	112	3	75	1	distractor	0	760	-1000	3831	13.328	13.053	13.602
ProbeTrackDT01	4	ProbeTrackDT01	10.3	SCS215a	20100514.145926	20100514.151203	8	0.013328	60	10	60-180	60	129	GapExp	0	113	3	4	0	target	0	747	-1000	2831	13.328	13.204	13.419
ProbeTrackDT01	4	ProbeTrackDT01	10.3	SCS215a	20100514.145926	20100514.151209	8	0.013328	60	10	60-180	60	179	GapExp	0	114	3	2	1	target	1	733	634	3465	13.328	13.096	13.525
ProbeTrackDT01	4	ProbeTrackDT01	10.3	SCS215a	20100514.145926	20100514.151215	8	0.013328	60	10	60-180	60	100	GapExp	0	115	3	4	0	target	0	733	-1000	2465	13.328	13.202	13.421
ProbeTrackDT01	4	ProbeTrackDT01	10.3	SCS215a	20100514.145926	20100514.151221	8	0.013328	60	10	60-180	60	85	GapExp	0	116	3	0	1	distractor	0	2892	-1000	1465	13.328	12.957	13.664
ProbeTrackDT01	4	ProbeTrackDT01	10.3	SCS215a	20100514.145926	20100514.151228	8	0.013328	60	10	60-180	60	155	GapExp	0	117	3	0	1	target	1	707	647	2112	13.328	13.276	13.413
ProbeTrackDT01	4	ProbeTrackDT01	10.3	SCS215a	20100514.145926	20100514.151234	8	0.013328	60	10	60-180	60	76	GapExp	0	118	3	4	1	target	1	707	647	2759	13.328	13.261	13.428
ProbeTrackDT01	4	ProbeTrackDT01	10.3	SCS215a	20100514.145926	20100514.151239	8	0.013328	60	10	60-180	60	165	GapExp	0	119	3	4	0	distractor	1	1107	447	3206	13.328	13.202	13.454
ProbeTrackDT01	4	ProbeTrackDT01	10.3	SCS215a	20100514.145926	20100514.151246	8	0.013328	60	10	60-180	60	67	GapExp	0	120	3	0	1	target	1	1333	334	3540	13.391	13.039	26.688
ProbeTrackDT01	4	ProbeTrackDT01	10.3	SCS215a	20100514.145926	20100514.151252	8	0.013328	60	10	60-180	60	110	GapExp	0	121	3	0	0	distractor	1	973	514	4054	13.380	12.944	27.039
ProbeTrackDT01	4	ProbeTrackDT01	10.3	SCS215a	20100514.145926	20100514.151258	8	0.013328	60	10	60-180	60	87	GapExp	0	122	3	4	1	target	1	600	700	4754	13.328	13.293	13.363
ProbeTrackDT01	4	ProbeTrackDT01	10.3	SCS215a	20100514.145926	20100514.151303	8	0.013328	60	10	60-180	60	110	GapExp	0	123	3	2	0	target	0	1240	-1000	3754	13.328	13.069	13.586
ProbeTrackDT01	4	ProbeTrackDT01	10.3	SCS215a	20100514.145926	20100514.151309	8	0.013328	60	10	60-180	60	178	GapExp	0	124	3	4	1	distractor	0	1533	-1000	2754	13.409	13.071	40.213
ProbeTrackDT01	4	ProbeTrackDT01	10.3	SCS215a	20100514.145926	20100514.151316	8	0.013328	60	10	60-180	60	85	GapExp	0	125	3	75	1	target	1	640	680	3434	13.373	12.911	26.549
ProbeTrackDT01	4	ProbeTrackDT01	10.3	SCS215a	20100514.145926	20100514.151322	8	0.013328	60	10	60-180	60	86	GapExp	0	126	3	75	1	target	1	454	773	4207	13.328	11.349	15.273
ProbeTrackDT01	4	ProbeTrackDT01	10.3	SCS215a	20100514.145926	20100514.151329	8	0.013328	60	10	60-180	60	105	GapExp	0	127	3	1	1	target	1	1773	114	4321	13.328	13.058	13.632
ProbeTrackDT01	4	ProbeTrackDT01	10.3	SCS215a	20100514.145926	20100514.151335	8	0.013328	60	10	60-180	60	117	GapExp	0	128	3	2	1	target	1	1306	347	4668	13.328	13.036	13.590
ProbeTrackDT01	4	ProbeTrackDT01	10.3	SCS215a	20100514.145926	20100514.151341	8	0.013328	60	10	60-180	60	138	GapExp	0	129	3	1	1	target	1	973	514	5182	13.328	12.949	13.682
ProbeTrackDT01	4	ProbeTrackDT01	10.3	SCS215a	20100514.145926	20100514.151348	8	0.013328	60	10	60-180	60	161	GapExp	0	130	3	0	1	target	1	1507	247	5429	13.328	12.965	13.656
ProbeTrackDT01	4	ProbeTrackDT01	10.3	SCS215a	20100514.145926	20100514.151355	8	0.013328	60	10	60-180	60	150	GapExp	0	131	3	2	1	target	1	1426	287	5716	13.328	13.111	13.544
ProbeTrackDT01	4	ProbeTrackDT01	10.3	SCS215a	20100514.145926	20100514.151402	8	0.013328	60	10	60-180	60	109	GapExp	0	132	3	1	1	distractor	0	840	-1000	4716	13.328	13.141	13.514
ProbeTrackDT01	4	ProbeTrackDT01	10.3	SCS215a	20100514.145926	20100514.151407	8	0.013328	60	10	60-180	60	106	GapExp	0	133	3	2	1	target	1	587	707	5423	13.328	7.273	19.348
ProbeTrackDT01	4	ProbeTrackDT01	10.3	SCS215a	20100514.145926	20100514.151413	8	0.013328	60	10	60-180	60	108	GapExp	0	134	3	0	1	target	1	1040	480	5903	13.328	13.017	13.603
ProbeTrackDT01	4	ProbeTrackDT01	10.3	SCS215a	20100514.145926	20100514.151419	8	0.013328	60	10	60-180	60	82	GapExp	0	135	3	1	1	target	1	1240	380	6283	13.328	13.040	13.582
ProbeTrackDT01	4	ProbeTrackDT01	10.3	SCS215a	20100514.145926	20100514.151424	8	0.013328	60	10	60-180	60	130	GapExp	0	136	3	4	0	distractor	1	1120	440	6723	13.328	13.069	13.587
ProbeTrackDT01	4	ProbeTrackDT01	10.3	SCS215a	20100514.145926	20100514.151431	8	0.013328	60	10	60-180	60	122	GapExp	0	137	3	0	0	target	0	733	-1000	5723	13.328	12.968	13.688
ProbeTrackDT01	4	ProbeTrackDT01	10.3	SCS215a	20100514.145926	20100514.151436	8	0.013328	60	10	60-180	60	101	GapExp	0	138	3	0	0	target	0	747	-1000	4723	13.328	13.004	13.685
ProbeTrackDT01	4	ProbeTrackDT01	10.3	SCS215a	20100514.145926	20100514.151442	8	0.013328	60	10	60-180	60	106	GapExp	0	139	3	0	0	distractor	1	960	520	5243	13.328	12.947	13.676
ProbeTrackDT01	4	ProbeTrackDT01	10.3	SCS215a	20100514.145926	20100514.151448	8	0.013328	60	10	60-180	60	101	GapExp	0	140	3	0	0	target	0	574	-1000	4243	13.328	13.198	13.458
ProbeTrackDT01	4	ProbeTrackDT01	10.3	SCS215a	20100514.145926	20100514.151453	8	0.013328	60	10	60-180	60	145	GapExp	0	141	3	2	0	target	0	1693	-1000	3243	13.328	13.111	13.577
ProbeTrackDT01	4	ProbeTrackDT01	10.3	SCS215a	20100514.145926	20100514.151500	8	0.013328	60	10	60-180	60	104	GapExp	0	142	3	1	0	distractor	1	800	600	3843	13.328	12.991	13.664
ProbeTrackDT01	4	ProbeTrackDT01	10.3	SCS215a	20100514.145926	20100514.151505	8	0.013328	60	10	60-180	60	155	GapExp	0	143	3	0	1	target	1	653	674	4517	13.328	13.042	13.613
ProbeTrackDT01	4	ProbeTrackDT01	10.3	SCS215a	20100514.145926	20100514.151512	8	0.013328	60	10	60-180	60	134	GapExp	0	144	3	2	0	target	0	1080	-1000	3517	13.328	12.978	13.643
ProbeTrackDT01	4	ProbeTrackDT01	10.3	SCS215a	20100514.145926	20100514.151518	8	0.013328	60	10	60-180	60	114	GapExp	0	145	3	2	0	target	0	694	-1000	2517	13.328	13.023	13.658
ProbeTrackDT01	4	ProbeTrackDT01	10.3	SCS215a	20100514.145926	20100514.151524	8	0.013328	60	10	60-180	60	134	GapExp	0	146	3	75	0	target	0	1107	-1000	1517	13.328	13.088	13.602
ProbeTrackDT01	4	ProbeTrackDT01	10.3	SCS215a	20100514.145926	20100514.151531	8	0.013328	60	10	60-180	60	95	GapExp	0	147	3	2	0	target	0	733	-1000	517	13.328	13.066	13.590
ProbeTrackDT01	4	ProbeTrackDT01	10.3	SCS215a	20100514.145926	20100514.151536	8	0.013328	60	10	60-180	60	122	GapExp	0	148	3	75	0	distractor	1	760	620	1137	13.328	13.032	13.624
ProbeTrackDT01	4	ProbeTrackDT01	10.3	SCS215a	20100514.145926	20100514.151543	8	0.013328	60	10	60-180	60	105	GapExp	0	149	3	0	0	distractor	1	1027	487	1624	13.328	13.089	13.581
ProbeTrackDT01	4	ProbeTrackDT01	10.3	SCS215a	20100514.145926	20100514.151549	8	0.013328	60	10	60-180	60	140	GapExp	0	150	3	1	1	target	1	569	716	2340	13.328	13.135	13.554
ProbeTrackDT01	4	ProbeTrackDT01	10.3	SCS215a	20100514.145926	20100514.151606	8	0.013328	60	10	60-180	60	124	GapExp	0	151	3	1	1	target	1	574	713	3053	13.328	12.994	13.696
ProbeTrackDT01	4	ProbeTrackDT01	10.3	SCS215a	20100514.145926	20100514.151611	8	0.013328	60	10	60-180	60	134	GapExp	0	152	3	4	0	target	0	688	-1000	2053	13.328	12.960	13.695
ProbeTrackDT01	4	ProbeTrackDT01	10.3	SCS215a	20100514.145926	20100514.151617	8	0.013328	60	10	60-180	60	86	GapExp	0	153	3	75	0	target	0	667	-1000	1053	13.328	13.080	13.575
ProbeTrackDT01	4	ProbeTrackDT01	10.3	SCS215a	20100514.145926	20100514.151623	8	0.013328	60	10	60-180	60	136	GapExp	0	154	3	75	0	target	0	627	-1000	53	13.328	13.003	13.652
ProbeTrackDT01	4	ProbeTrackDT01	10.3	SCS215a	20100514.145926	20100514.151630	8	0.013328	60	10	60-180	60	86	GapExp	0	155	3	75	1	target	1	2799	0	53	13.328	13.057	13.597
ProbeTrackDT01	4	ProbeTrackDT01	10.3	SCS215a	20100514.145926	20100514.151639	8	0.013328	60	10	60-180	60	129	GapExp	0	156	3	0	0	distractor	1	894	553	606	13.328	12.965	13.656
ProbeTrackDT01	4	ProbeTrackDT01	10.3	SCS215a	20100514.145926	20100514.151645	8	0.013328	60	10	60-180	60	179	GapExp	0	157	3	2	1	target	1	2013	0	606	13.328	13.048	13.609
ProbeTrackDT01	4	ProbeTrackDT01	10.3	SCS215a	20100514.145926	20100514.151653	8	0.013328	60	10	60-180	60	132	GapExp	0	158	3	2	0	target	0	627	-1000	-394	13.328	13.119	13.535
ProbeTrackDT01	4	ProbeTrackDT01	10.3	SCS215a	20100514.145926	20100514.151658	8	0.013328	60	10	60-180	60	97	GapExp	0	159	3	1	1	target	1	1267	367	-27	13.328	12.984	13.671
ProbeTrackDT01	4	ProbeTrackDT01	10.3	SCS215a	20100514.145926	20100514.151704	8	0.013328	60	10	60-180	60	180	GapExp	0	160	3	2	0	distractor	1	907	547	520	13.328	13.039	13.628
ProbeTrackDT01	4	ProbeTrackDT01	10.3	SCS215a	20100514.145926	20100514.151711	8	0.013328	60	10	60-180	60	112	GapExp	0	161	3	0	0	distractor	1	777	612	1132	13.328	12.934	13.687
ProbeTrackDT01	4	ProbeTrackDT01	10.3	SCS215a	20100514.145926	20100514.151717	8	0.013328	60	10	60-180	60	130	GapExp	0	162	3	1	0	distractor	1	756	622	1754	13.328	13.123	13.518
ProbeTrackDT01	4	ProbeTrackDT01	10.3	SCS215a	20100514.145926	20100514.151723	8	0.013328	60	10	60-180	60	169	GapExp	0	163	3	0	0	target	0	1147	-1000	754	13.328	13.006	13.650
ProbeTrackDT01	4	ProbeTrackDT01	10.3	SCS215a	20100514.145926	20100514.151729	8	0.013328	60	10	60-180	60	128	GapExp	0	164	3	2	0	target	0	813	-1000	-246	13.328	12.940	13.716
ProbeTrackDT01	4	ProbeTrackDT01	10.3	SCS215a	20100514.145926	20100514.151735	8	0.013328	60	10	60-180	60	74	GapExp	0	165	3	2	1	target	1	534	733	487	13.328	12.965	13.724
ProbeTrackDT01	4	ProbeTrackDT01	10.3	SCS215a	20100514.145926	20100514.151740	8	0.013328	60	10	60-180	60	150	GapExp	0	166	3	4	1	target	1	720	640	1127	13.328	13.062	13.558
ProbeTrackDT01	4	ProbeTrackDT01	10.3	SCS215a	20100514.145926	20100514.151746	8	0.013328	60	10	60-180	60	169	GapExp	0	167	3	75	0	target	0	1027	-1000	127	13.328	13.061	13.565
ProbeTrackDT01	4	ProbeTrackDT01	10.3	SCS215a	20100514.145926	20100514.151754	8	0.013328	60	10	60-180	60	99	GapExp	0	168	3	4	1	distractor	0	1613	-1000	-873	13.328	12.981	13.708
ProbeTrackDT01	4	ProbeTrackDT01	10.3	SCS215a	20100514.145926	20100514.151801	8	0.013328	60	10	60-180	60	175	GapExp	0	169	3	1	0	target	0	1893	-1000	-1873	13.328	13.057	13.622
ProbeTrackDT01	4	ProbeTrackDT01	10.3	SCS215a	20100514.145926	20100514.151808	8	0.013328	60	10	60-180	60	129	GapExp	0	170	3	75	1	distractor	0	760	-1000	-2873	13.328	12.957	13.697
ProbeTrackDT01	4	ProbeTrackDT01	10.3	SCS215a	20100514.145926	20100514.151815	8	0.013328	60	10	60-180	60	155	GapExp	0	171	3	2	0	target	0	627	-1000	-3873	13.328	12.979	13.675
ProbeTrackDT01	4	ProbeTrackDT01	10.3	SCS215a	20100514.145926	20100514.151821	8	0.013328	60	10	60-180	60	173	GapExp	0	172	3	4	0	target	0	947	-1000	-4873	13.328	12.956	13.699
ProbeTrackDT01	4	ProbeTrackDT01	10.3	SCS215a	20100514.145926	20100514.151828	8	0.013328	60	10	60-180	60	177	GapExp	0	173	3	75	0	target	0	534	-1000	-5873	13.328	13.033	13.639
ProbeTrackDT01	4	ProbeTrackDT01	10.3	SCS215a	20100514.145926	20100514.151835	8	0.013328	60	10	60-180	60	103	GapExp	0	174	3	1	0	target	0	1000	-1000	-6873	13.328	13.045	13.610
ProbeTrackDT01	4	ProbeTrackDT01	10.3	SCS215a	20100514.145926	20100514.151841	8	0.013328	60	10	60-180	60	132	GapExp	0	175	3	1	0	distractor	1	760	620	-6253	13.328	13.164	13.524
ProbeTrackDT01	4	ProbeTrackDT01	10.3	SCS215a	20100514.145926	20100514.151847	8	0.013328	60	10	60-180	60	156	GapExp	0	176	3	2	1	distractor	0	853	-1000	-7253	13.328	13.058	13.632
ProbeTrackDT01	4	ProbeTrackDT01	10.3	SCS215a	20100514.145926	20100514.151853	8	0.013328	60	10	60-180	60	114	GapExp	0	177	3	0	0	distractor	1	960	520	-6733	13.328	13.096	13.558
ProbeTrackDT01	4	ProbeTrackDT01	10.3	SCS215a	20100514.145926	20100514.151859	8	0.013328	60	10	60-180	60	133	GapExp	0	178	3	1	0	target	0	1000	-1000	-7733	13.423	13.020	40.291
ProbeTrackDT01	4	ProbeTrackDT01	10.3	SCS215a	20100514.145926	20100514.151905	8	0.013328	60	10	60-180	60	78	GapExp	0	179	3	75	0	distractor	1	640	680	-7053	13.374	13.049	26.896
ProbeTrackDT01	4	ProbeTrackDT01	10.3	SCS215a	20100514.145926	20100514.151911	8	0.013328	60	10	60-180	60	145	GapExp	0	180	3	75	1	target	1	560	720	-6333	13.328	13.184	13.489
ProbeTrackDT01	4	ProbeTrackDT01	10.3	SCS215a	20100514.145926	20100514.151918	8	0.013328	60	10	60-180	60	134	GapExp	0	181	3	2	1	distractor	0	800	-1000	-7333	13.328	13.144	13.513
ProbeTrackDT01	4	ProbeTrackDT01	10.3	SCS215a	20100514.145926	20100514.151924	8	0.013328	60	10	60-180	60	150	GapExp	0	182	3	75	1	target	1	467	767	-6566	13.328	13.160	13.528
ProbeTrackDT01	4	ProbeTrackDT01	10.3	SCS215a	20100514.145926	20100514.151931	8	0.013328	60	10	60-180	60	114	GapExp	0	183	3	75	1	target	1	2013	0	-6566	13.328	13.076	13.579
ProbeTrackDT01	4	ProbeTrackDT01	10.3	SCS215a	20100514.145926	20100514.151939	8	0.013328	60	10	60-180	60	70	GapExp	0	184	3	0	1	distractor	0	827	-1000	-7566	13.390	13.051	26.899
ProbeTrackDT01	4	ProbeTrackDT01	10.3	SCS215a	20100514.145926	20100514.151944	8	0.013328	60	10	60-180	60	130	GapExp	0	185	3	1	0	distractor	1	1600	200	-7366	13.328	12.985	13.671
ProbeTrackDT01	4	ProbeTrackDT01	10.3	SCS215a	20100514.145926	20100514.151951	8	0.013328	60	10	60-180	60	92	GapExp	0	186	3	2	1	target	1	667	667	-6699	13.328	13.215	13.441
ProbeTrackDT01	4	ProbeTrackDT01	10.3	SCS215a	20100514.145926	20100514.151956	8	0.013328	60	10	60-180	60	89	GapExp	0	187	3	1	0	distractor	1	867	567	-6132	13.328	13.067	13.587
ProbeTrackDT01	4	ProbeTrackDT01	10.3	SCS215a	20100514.145926	20100514.152002	8	0.013328	60	10	60-180	60	179	GapExp	0	188	3	2	1	target	1	920	540	-5592	13.328	13.021	13.654
ProbeTrackDT01	4	ProbeTrackDT01	10.3	SCS215a	20100514.145926	20100514.152008	8	0.013328	60	10	60-180	60	62	GapExp	0	189	3	4	1	distractor	0	667	-1000	-6592	13.328	13.272	13.383
ProbeTrackDT01	4	ProbeTrackDT01	10.3	SCS215a	20100514.145926	20100514.152013	8	0.013328	60	10	60-180	60	154	GapExp	0	190	3	0	1	target	1	653	674	-5918	13.695	13.214	66.413
ProbeTrackDT01	4	ProbeTrackDT01	10.3	SCS215a	20100514.145926	20100514.152019	8	0.013328	60	10	60-180	60	83	GapExp	0	191	3	4	1	target	1	614	693	-5225	13.328	12.996	13.660
ProbeTrackDT01	4	ProbeTrackDT01	10.3	SCS215a	20100514.145926	20100514.152025	8	0.013328	60	10	60-180	60	112	GapExp	0	192	3	75	1	target	1	507	747	-4478	13.328	13.067	13.556
ProbeTrackDT01	4	ProbeTrackDT01	10.3	SCS215a	20100514.145926	20100514.152031	8	0.013328	60	10	60-180	60	106	GapExp	0	193	3	1	0	target	0	680	-1000	-5478	13.328	13.101	13.587
ProbeTrackDT01	4	ProbeTrackDT01	10.3	SCS215a	20100514.145926	20100514.152036	8	0.013328	60	10	60-180	60	153	GapExp	0	194	3	4	1	distractor	0	693	-1000	-6478	13.603	12.901	93.687
ProbeTrackDT01	4	ProbeTrackDT01	10.3	SCS215a	20100514.145926	20100514.152043	8	0.013328	60	10	60-180	60	109	GapExp	0	195	3	0	1	target	1	574	713	-5765	13.328	13.293	13.363
ProbeTrackDT01	4	ProbeTrackDT01	10.3	SCS215a	20100514.145926	20100514.152048	8	0.013328	60	10	60-180	60	171	GapExp	0	196	3	2	0	target	0	1613	-1000	-6765	13.328	13.171	13.451
ProbeTrackDT01	4	ProbeTrackDT01	10.3	SCS215a	20100514.145926	20100514.152055	8	0.013328	60	10	60-180	60	134	GapExp	0	197	3	2	0	target	0	760	-1000	-7765	14.809	13.185	120.158
ProbeTrackDT01	4	ProbeTrackDT01	10.3	SCS215a	20100514.145926	20100514.152102	8	0.013328	60	10	60-180	60	132	GapExp	0	198	3	1	1	distractor	0	1506	-1000	-8765	13.328	13.254	13.392
ProbeTrackDT01	4	ProbeTrackDT01	10.3	SCS215a	20100514.145926	20100514.152108	8	0.013328	60	10	60-180	60	159	GapExp	0	199	3	4	1	target	1	760	620	-8145	13.415	12.970	27.015
ProbeTrackDT01	4	ProbeTrackDT01	10.3	SCS215a	20100514.145926	20100514.152115	8	0.013328	60	10	60-180	60	171	GapExp	0	200	3	1	0	target	0	494	-1000	-9145	13.373	13.187	26.621
ProbeTrackDT01	4	ProbeTrackDT01	10.3	SCS215a	20100514.145926	20100514.152138	8	0.013328	60	10	60-180	60	141	GapExp	0	201	3	2	0	target	0	733	-1000	-10145	13.328	12.945	13.677
ProbeTrackDT01	4	ProbeTrackDT01	10.3	SCS215a	20100514.145926	20100514.152144	8	0.013328	60	10	60-180	60	150	GapExp	0	202	3	1	1	target	1	840	580	-9565	14.139	13.064	133.226
ProbeTrackDT01	4	ProbeTrackDT01	10.3	SCS215a	20100514.145926	20100514.152151	8	0.013328	60	10	60-180	60	172	GapExp	0	203	3	0	1	target	1	840	580	-8985	13.328	13.293	13.363
ProbeTrackDT01	4	ProbeTrackDT01	10.3	SCS215a	20100514.145926	20100514.152157	8	0.013328	60	10	60-180	60	154	GapExp	0	204	3	0	0	target	0	1386	-1000	-9985	13.328	12.957	13.697
ProbeTrackDT01	4	ProbeTrackDT01	10.3	SCS215a	20100514.145926	20100514.152204	8	0.013328	60	10	60-180	60	174	GapExp	0	205	3	1	0	distractor	1	1200	400	-9585	13.328	13.187	13.469
ProbeTrackDT01	4	ProbeTrackDT01	10.3	SCS215a	20100514.145926	20100514.152211	8	0.013328	60	10	60-180	60	120	GapExp	0	206	3	0	0	target	0	2799	-1000	-10585	13.378	13.108	26.831
ProbeTrackDT01	4	ProbeTrackDT01	10.3	SCS215a	20100514.145926	20100514.152219	8	0.013328	60	10	60-180	60	167	GapExp	0	207	3	75	1	target	1	694	653	-9932	13.328	13.174	13.481
ProbeTrackDT01	4	ProbeTrackDT01	10.3	SCS215a	20100514.145926	20100514.152226	8	0.013328	60	10	60-180	60	98	GapExp	0	208	3	1	0	target	0	1706	-1000	-10932	13.382	13.272	26.746
ProbeTrackDT01	4	ProbeTrackDT01	10.3	SCS215a	20100514.145926	20100514.152233	8	0.013328	60	10	60-180	60	97	GapExp	0	209	3	4	1	target	1	627	687	-10245	13.328	13.115	13.540
ProbeTrackDT01	4	ProbeTrackDT01	10.3	SCS215a	20100514.145926	20100514.152238	8	0.013328	60	10	60-180	60	138	GapExp	0	210	3	1	0	distractor	1	694	653	-9592	13.328	13.293	13.363
