exp	sub	code	rev	comp	runtime	trialtime	nstim	refreshdur	cuedur	gapdur	gapOnsetRange	durPostProbe	gapOnsetTime	blocktype	prac	trial	ntargets	soa	probeTarget	resp	acc	rt	pts	tpts	meanFrameDur	minFrameDur	maxFrameDur
ProbeTrackDT01	18	ProbeTrack	10.4	SCS215a	20100708.111306	20100708.111340	8	0.013328	60	0	60-180	60	152	NoGap	1	1	2	4	0	distractor	1	1893	54	54	13.328	13.215	13.473
ProbeTrackDT01	18	ProbeTrack	10.4	SCS215a	20100708.111306	20100708.111347	8	0.013328	60	0	60-180	60	81	NoGap	1	2	2	75	0	distractor	1	467	767	821	13.328	13.291	13.363
ProbeTrackDT01	18	ProbeTrack	10.4	SCS215a	20100708.111306	20100708.111353	8	0.013328	60	0	60-180	60	151	NoGap	1	3	2	2	1	target	1	454	773	1594	13.328	13.293	13.363
ProbeTrackDT01	18	ProbeTrack	10.4	SCS215a	20100708.111306	20100708.111359	8	0.013328	60	0	60-180	60	101	NoGap	1	4	2	0	0	distractor	1	680	660	2254	13.328	13.174	13.517
ProbeTrackDT01	18	ProbeTrack	10.4	SCS215a	20100708.111306	20100708.111404	8	0.013328	60	0	60-180	60	119	NoGap	1	5	2	2	1	target	1	334	833	3087	13.328	13.293	13.368
ProbeTrackDT01	18	ProbeTrack	10.4	SCS215a	20100708.111306	20100708.111409	8	0.013328	60	0	60-180	60	89	NoGap	1	6	2	0	1	target	1	374	813	3900	13.328	13.068	13.571
ProbeTrackDT01	18	ProbeTrack	10.4	SCS215a	20100708.111306	20100708.111414	8	0.013328	60	0	60-180	60	117	NoGap	1	7	2	2	1	target	1	347	827	4727	13.328	13.144	13.545
ProbeTrackDT01	18	ProbeTrack	10.4	SCS215a	20100708.111306	20100708.111419	8	0.013328	60	0	60-180	60	158	NoGap	1	8	2	75	0	distractor	1	414	793	5520	13.328	13.292	13.363
ProbeTrackDT01	18	ProbeTrack	10.4	SCS215a	20100708.111306	20100708.111426	8	0.013328	60	0	60-180	60	175	NoGap	1	9	2	4	0	distractor	1	520	740	6260	13.328	13.182	13.474
ProbeTrackDT01	18	ProbeTrack	10.4	SCS215a	20100708.111306	20100708.111432	8	0.013328	60	0	60-180	60	162	NoGap	1	10	2	2	0	distractor	1	400	800	7060	13.328	13.293	13.363
ProbeTrackDT01	18	ProbeTrack	10.4	SCS215a	20100708.111306	20100708.111438	8	0.013328	60	0	60-180	60	158	NoGap	1	11	2	0	0	distractor	1	560	720	7780	13.328	13.044	13.611
ProbeTrackDT01	18	ProbeTrack	10.4	SCS215a	20100708.111306	20100708.111444	8	0.013328	60	0	60-180	60	146	NoGap	1	12	2	0	0	distractor	1	494	753	8533	13.328	13.293	13.363
ProbeTrackDT01	18	ProbeTrack	10.4	SCS215a	20100708.111306	20100708.111450	8	0.013328	60	0	60-180	60	159	NoGap	1	13	2	0	0	distractor	1	374	813	9346	13.328	13.290	13.366
ProbeTrackDT01	18	ProbeTrack	10.4	SCS215a	20100708.111306	20100708.111456	8	0.013328	60	0	60-180	60	94	NoGap	1	14	2	75	1	distractor	0	307	-1000	8346	13.328	13.152	13.505
ProbeTrackDT01	18	ProbeTrack	10.4	SCS215a	20100708.111306	20100708.111501	8	0.013328	60	0	60-180	60	110	NoGap	1	15	2	0	1	target	1	347	827	9173	13.328	13.293	13.363
ProbeTrackDT01	18	ProbeTrack	10.4	SCS215a	20100708.111306	20100708.111506	8	0.013328	60	0	60-180	60	79	NoGap	1	16	2	1	1	target	1	374	813	9986	13.328	13.164	13.491
ProbeTrackDT01	18	ProbeTrack	10.4	SCS215a	20100708.111306	20100708.111511	8	0.013328	60	0	60-180	60	150	NoGap	1	17	2	1	0	distractor	1	560	720	10706	13.328	13.274	13.381
ProbeTrackDT01	18	ProbeTrack	10.4	SCS215a	20100708.111306	20100708.111517	8	0.013328	60	0	60-180	60	95	NoGap	1	18	2	2	0	distractor	1	480	760	11466	13.328	13.293	13.363
ProbeTrackDT01	18	ProbeTrack	10.4	SCS215a	20100708.111306	20100708.111522	8	0.013328	60	0	60-180	60	119	NoGap	1	19	2	75	0	distractor	1	467	767	12233	13.328	13.293	13.363
ProbeTrackDT01	18	ProbeTrack	10.4	SCS215a	20100708.111306	20100708.111528	8	0.013328	60	0	60-180	60	99	NoGap	1	20	2	1	1	target	1	467	767	13000	13.328	13.183	13.506
ProbeTrackDT01	18	ProbeTrack	10.4	SCS215a	20100708.111306	20100708.111533	8	0.013328	60	0	60-180	60	129	NoGap	1	21	2	1	1	target	1	360	820	13820	13.328	13.228	13.427
ProbeTrackDT01	18	ProbeTrack	10.4	SCS215a	20100708.111306	20100708.111539	8	0.013328	60	0	60-180	60	172	NoGap	1	22	2	75	0	distractor	1	480	760	14580	13.328	13.283	13.406
ProbeTrackDT01	18	ProbeTrack	10.4	SCS215a	20100708.111306	20100708.111546	8	0.013328	60	0	60-180	60	180	NoGap	1	23	2	4	0	distractor	1	467	767	15347	13.328	13.293	13.363
ProbeTrackDT01	18	ProbeTrack	10.4	SCS215a	20100708.111306	20100708.111552	8	0.013328	60	0	60-180	60	124	NoGap	1	24	2	2	0	target	0	414	-1000	14347	13.328	13.292	13.363
ProbeTrackDT01	18	ProbeTrack	10.4	SCS215a	20100708.111306	20100708.111557	8	0.013328	60	0	60-180	60	83	NoGap	1	25	2	1	1	target	1	440	780	15127	13.328	13.265	13.390
ProbeTrackDT01	18	ProbeTrack	10.4	SCS215a	20100708.111306	20100708.111602	8	0.013328	60	0	60-180	60	151	NoGap	1	26	2	4	1	target	1	347	827	15954	13.328	13.119	13.537
ProbeTrackDT01	18	ProbeTrack	10.4	SCS215a	20100708.111306	20100708.111608	8	0.013328	60	0	60-180	60	73	NoGap	1	27	2	0	1	target	1	387	807	16761	13.328	13.230	13.427
ProbeTrackDT01	18	ProbeTrack	10.4	SCS215a	20100708.111306	20100708.111612	8	0.013328	60	0	60-180	60	132	NoGap	1	28	2	75	1	target	1	400	800	17561	13.328	13.211	13.411
ProbeTrackDT01	18	ProbeTrack	10.4	SCS215a	20100708.111306	20100708.111619	8	0.013328	60	0	60-180	60	81	NoGap	1	29	2	1	0	distractor	1	547	727	18288	13.328	13.033	13.623
ProbeTrackDT01	18	ProbeTrack	10.4	SCS215a	20100708.111306	20100708.111624	8	0.013328	60	0	60-180	60	177	NoGap	1	30	2	2	0	target	0	507	-1000	17288	13.328	13.293	13.363
ProbeTrackDT01	18	ProbeTrack	10.4	SCS215a	20100708.111306	20100708.111630	8	0.013328	60	0	60-180	60	152	NoGap	1	31	2	4	1	distractor	0	320	-1000	16288	13.328	13.293	13.363
ProbeTrackDT01	18	ProbeTrack	10.4	SCS215a	20100708.111306	20100708.111635	8	0.013328	60	0	60-180	60	119	NoGap	1	32	2	1	0	distractor	1	480	760	17048	13.328	13.165	13.489
ProbeTrackDT01	18	ProbeTrack	10.4	SCS215a	20100708.111306	20100708.111641	8	0.013328	60	0	60-180	60	150	NoGap	1	33	2	4	0	distractor	1	374	813	17861	13.328	13.043	13.647
ProbeTrackDT01	18	ProbeTrack	10.4	SCS215a	20100708.111306	20100708.111646	8	0.013328	60	0	60-180	60	64	NoGap	1	34	2	0	1	distractor	0	440	-1000	16861	13.328	13.293	13.363
ProbeTrackDT01	18	ProbeTrack	10.4	SCS215a	20100708.111306	20100708.111651	8	0.013328	60	0	60-180	60	111	NoGap	1	35	2	1	0	distractor	1	520	740	17601	13.328	13.289	13.367
ProbeTrackDT01	18	ProbeTrack	10.4	SCS215a	20100708.111306	20100708.111656	8	0.013328	60	0	60-180	60	145	NoGap	1	36	2	4	1	target	1	334	833	18434	13.328	13.251	13.380
ProbeTrackDT01	18	ProbeTrack	10.4	SCS215a	20100708.111306	20100708.111702	8	0.013328	60	0	60-180	60	120	NoGap	1	37	2	2	1	distractor	0	374	-1000	17434	13.328	13.293	13.363
ProbeTrackDT01	18	ProbeTrack	10.4	SCS215a	20100708.111306	20100708.111707	8	0.013328	60	0	60-180	60	64	NoGap	1	38	2	75	1	target	1	360	820	18254	13.383	13.067	26.526
ProbeTrackDT01	18	ProbeTrack	10.4	SCS215a	20100708.111306	20100708.111712	8	0.013328	60	0	60-180	60	166	NoGap	1	39	2	4	1	target	1	267	867	19121	13.328	13.293	13.363
ProbeTrackDT01	18	ProbeTrack	10.4	SCS215a	20100708.111306	20100708.111718	8	0.013328	60	0	60-180	60	80	NoGap	1	40	2	75	1	target	1	334	833	19954	13.328	13.191	13.430
ProbeTrackDT01	18	ProbeTrack	10.4	SCS215a	20100708.111811	20100708.111816	8	0.013328	60	10	60-180	60	80	GapPrac	1	1	2	75	0	distractor	1	507	747	20701	13.328	13.293	13.366
ProbeTrackDT01	18	ProbeTrack	10.4	SCS215a	20100708.111811	20100708.111822	8	0.013328	60	10	60-180	60	171	GapPrac	1	2	2	1	1	target	1	467	767	21468	13.328	13.087	13.602
ProbeTrackDT01	18	ProbeTrack	10.4	SCS215a	20100708.111811	20100708.111828	8	0.013328	60	10	60-180	60	79	GapPrac	1	3	2	75	0	target	0	347	-1000	20468	13.328	13.231	13.459
ProbeTrackDT01	18	ProbeTrack	10.4	SCS215a	20100708.111811	20100708.111834	8	0.013328	60	10	60-180	60	172	GapPrac	1	4	2	1	0	target	0	547	-1000	19468	13.328	12.990	13.632
ProbeTrackDT01	18	ProbeTrack	10.4	SCS215a	20100708.111811	20100708.111840	8	0.013328	60	10	60-180	60	108	GapPrac	1	5	2	0	1	target	1	627	687	20155	13.548	12.925	39.870
ProbeTrackDT01	18	ProbeTrack	10.4	SCS215a	20100708.111811	20100708.111846	8	0.013328	60	10	60-180	60	119	GapPrac	1	6	2	0	0	distractor	1	614	693	20848	13.328	13.293	13.363
ProbeTrackDT01	18	ProbeTrack	10.4	SCS215a	20100708.111811	20100708.111851	8	0.013328	60	10	60-180	60	71	GapPrac	1	7	2	0	0	target	0	494	-1000	19848	13.328	13.293	13.363
ProbeTrackDT01	18	ProbeTrack	10.4	SCS215a	20100708.111811	20100708.111856	8	0.013328	60	10	60-180	60	65	GapPrac	1	8	2	4	0	target	0	707	-1000	18848	13.328	13.293	13.363
ProbeTrackDT01	18	ProbeTrack	10.4	SCS215a	20100708.111811	20100708.111901	8	0.013328	60	10	60-180	60	133	GapPrac	1	9	2	4	1	target	1	667	667	19515	13.328	13.293	13.363
ProbeTrackDT01	18	ProbeTrack	10.4	SCS215a	20100708.111811	20100708.111907	8	0.013328	60	10	60-180	60	113	GapPrac	1	10	2	2	1	target	1	573	714	20229	13.328	13.293	13.363
ProbeTrackDT01	18	ProbeTrack	10.4	SCS215a	20100708.111811	20100708.111912	8	0.013328	60	10	60-180	60	125	GapPrac	1	11	2	2	0	distractor	1	427	787	21016	13.328	13.029	13.611
ProbeTrackDT01	18	ProbeTrack	10.4	SCS215a	20100708.111811	20100708.111918	8	0.013328	60	10	60-180	60	113	GapPrac	1	12	2	4	1	target	1	427	787	21803	13.328	13.170	13.520
ProbeTrackDT01	18	ProbeTrack	10.4	SCS215a	20100708.111811	20100708.111923	8	0.013328	60	10	60-180	60	128	GapPrac	1	13	2	75	1	distractor	0	294	-1000	20803	13.328	13.293	13.363
ProbeTrackDT01	18	ProbeTrack	10.4	SCS215a	20100708.111811	20100708.111930	8	0.013328	60	10	60-180	60	172	GapPrac	1	14	2	2	1	target	1	400	800	21603	13.328	13.093	13.595
ProbeTrackDT01	18	ProbeTrack	10.4	SCS215a	20100708.111811	20100708.111936	8	0.013328	60	10	60-180	60	178	GapPrac	1	15	2	2	0	distractor	1	534	733	22336	13.328	12.983	13.638
ProbeTrackDT01	18	ProbeTrack	10.4	SCS215a	20100708.111811	20100708.111942	8	0.013328	60	10	60-180	60	137	GapPrac	1	16	2	1	0	distractor	1	707	647	22983	13.328	13.223	13.434
ProbeTrackDT01	18	ProbeTrack	10.4	SCS215a	20100708.111811	20100708.111948	8	0.013328	60	10	60-180	60	79	GapPrac	1	17	2	75	1	target	1	360	820	23803	13.328	13.293	13.366
ProbeTrackDT01	18	ProbeTrack	10.4	SCS215a	20100708.111811	20100708.111954	8	0.013328	60	10	60-180	60	89	GapPrac	1	18	2	1	1	target	1	494	753	24556	13.328	13.214	13.442
ProbeTrackDT01	18	ProbeTrack	10.4	SCS215a	20100708.111811	20100708.111959	8	0.013328	60	10	60-180	60	134	GapPrac	1	19	2	0	1	target	1	467	767	25323	13.328	13.145	13.510
ProbeTrackDT01	18	ProbeTrack	10.4	SCS215a	20100708.111811	20100708.112004	8	0.013328	60	10	60-180	60	92	GapPrac	1	20	2	4	0	distractor	1	560	720	26043	13.328	13.293	13.363
ProbeTrackDT01	18	ProbeTrack	10.4	SCS215a	20100708.112117	20100708.112124	8	0.013328	60	10	60-180	60	178	GapPrac	1	1	2	1	1	target	1	507	747	26790	13.328	13.293	13.363
ProbeTrackDT01	18	ProbeTrack	10.4	SCS215a	20100708.112117	20100708.112130	8	0.013328	60	10	60-180	60	129	GapPrac	1	2	2	4	0	target	0	280	-1000	25790	13.328	13.267	13.390
ProbeTrackDT01	18	ProbeTrack	10.4	SCS215a	20100708.112117	20100708.112136	8	0.013328	60	10	60-180	60	75	GapPrac	1	3	2	2	0	distractor	1	3705	0	25790	13.328	13.021	13.667
ProbeTrackDT01	18	ProbeTrack	10.4	SCS215a	20100708.112117	20100708.112144	8	0.013328	60	10	60-180	60	166	GapPrac	1	4	2	4	1	target	1	907	547	26337	13.328	13.187	13.468
ProbeTrackDT01	18	ProbeTrack	10.4	SCS215a	20100708.112117	20100708.112150	8	0.013328	60	10	60-180	60	101	GapPrac	1	5	2	2	1	target	1	360	820	27157	13.328	13.207	13.416
ProbeTrackDT01	18	ProbeTrack	10.4	SCS215a	20100708.112117	20100708.112156	8	0.013328	60	10	60-180	60	179	GapPrac	1	6	2	75	1	distractor	0	347	-1000	26157	13.328	13.118	13.538
ProbeTrackDT01	18	ProbeTrack	10.4	SCS215a	20100708.112117	20100708.112203	8	0.013328	60	10	60-180	60	64	GapPrac	1	7	2	1	1	target	1	534	733	26890	13.328	13.293	13.363
ProbeTrackDT01	18	ProbeTrack	10.4	SCS215a	20100708.112117	20100708.112207	8	0.013328	60	10	60-180	60	139	GapPrac	1	8	2	0	1	target	1	427	787	27677	13.328	13.293	13.366
ProbeTrackDT01	18	ProbeTrack	10.4	SCS215a	20100708.112117	20100708.112213	8	0.013328	60	10	60-180	60	122	GapPrac	1	9	2	75	0	distractor	1	320	840	28517	13.328	13.293	13.363
ProbeTrackDT01	18	ProbeTrack	10.4	SCS215a	20100708.112117	20100708.112220	8	0.013328	60	10	60-180	60	68	GapPrac	1	10	2	0	0	target	0	613	-1000	27517	13.328	13.293	13.363
ProbeTrackDT01	18	ProbeTrack	10.4	SCS215a	20100708.112117	20100708.112224	8	0.013328	60	10	60-180	60	164	GapPrac	1	11	2	2	0	distractor	1	427	787	28304	13.328	13.293	13.363
ProbeTrackDT01	18	ProbeTrack	10.4	SCS215a	20100708.112117	20100708.112230	8	0.013328	60	10	60-180	60	74	GapPrac	1	12	2	1	0	target	0	1306	-1000	27304	13.328	13.246	13.444
ProbeTrackDT01	18	ProbeTrack	10.4	SCS215a	20100708.112117	20100708.112236	8	0.013328	60	10	60-180	60	85	GapPrac	1	13	2	4	0	target	0	480	-1000	26304	13.328	13.293	13.363
ProbeTrackDT01	18	ProbeTrack	10.4	SCS215a	20100708.112117	20100708.112241	8	0.013328	60	10	60-180	60	107	GapPrac	1	14	2	4	1	target	1	440	780	27084	13.328	13.293	13.363
ProbeTrackDT01	18	ProbeTrack	10.4	SCS215a	20100708.112117	20100708.112246	8	0.013328	60	10	60-180	60	84	GapPrac	1	15	2	1	0	target	0	614	-1000	26084	13.328	13.214	13.443
ProbeTrackDT01	18	ProbeTrack	10.4	SCS215a	20100708.112117	20100708.112251	8	0.013328	60	10	60-180	60	102	GapPrac	1	16	2	0	0	distractor	1	547	727	26811	13.328	13.292	13.363
ProbeTrackDT01	18	ProbeTrack	10.4	SCS215a	20100708.112117	20100708.112257	8	0.013328	60	10	60-180	60	146	GapPrac	1	17	2	2	1	target	1	480	760	27571	13.328	13.289	13.363
ProbeTrackDT01	18	ProbeTrack	10.4	SCS215a	20100708.112117	20100708.112303	8	0.013328	60	10	60-180	60	107	GapPrac	1	18	2	0	1	target	1	427	787	28358	13.328	13.293	13.363
ProbeTrackDT01	18	ProbeTrack	10.4	SCS215a	20100708.112117	20100708.112308	8	0.013328	60	10	60-180	60	97	GapPrac	1	19	2	75	0	target	0	600	-1000	27358	13.328	13.293	13.364
ProbeTrackDT01	18	ProbeTrack	10.4	SCS215a	20100708.112117	20100708.112314	8	0.013328	60	10	60-180	60	159	GapPrac	1	20	2	75	1	distractor	0	454	-1000	26358	13.328	13.293	13.363
ProbeTrackDT01	18	ProbeTrack	10.4	SCS215a	20100708.112411	20100708.112418	8	0.013328	60	10	60-180	60	112	GapExp	1	1	2	4	1	target	1	507	747	27105	13.328	13.293	13.364
ProbeTrackDT01	18	ProbeTrack	10.4	SCS215a	20100708.112411	20100708.112423	8	0.013328	60	10	60-180	60	125	GapExp	1	2	2	0	0	target	0	454	-1000	26105	13.328	13.293	13.363
ProbeTrackDT01	18	ProbeTrack	10.4	SCS215a	20100708.112411	20100708.112429	8	0.013328	60	10	60-180	60	142	GapExp	1	3	2	2	0	target	0	613	-1000	25105	13.328	13.292	13.363
ProbeTrackDT01	18	ProbeTrack	10.4	SCS215a	20100708.112411	20100708.112435	8	0.013328	60	10	60-180	60	67	GapExp	1	4	2	1	0	target	0	787	-1000	24105	13.328	13.293	13.363
ProbeTrackDT01	18	ProbeTrack	10.4	SCS215a	20100708.112411	20100708.112440	8	0.013328	60	10	60-180	60	157	GapExp	1	5	2	75	0	distractor	1	627	687	24792	13.328	13.293	13.364
ProbeTrackDT01	18	ProbeTrack	10.4	SCS215a	20100708.112411	20100708.112447	8	0.013328	60	10	60-180	60	73	GapExp	1	6	2	4	0	target	0	600	-1000	23792	13.328	13.293	13.363
ProbeTrackDT01	18	ProbeTrack	10.4	SCS215a	20100708.112411	20100708.112452	8	0.013328	60	10	60-180	60	138	GapExp	1	7	2	0	1	target	1	573	714	24506	13.328	13.291	13.363
ProbeTrackDT01	18	ProbeTrack	10.4	SCS215a	20100708.112411	20100708.112458	8	0.013328	60	10	60-180	60	68	GapExp	1	8	2	75	1	target	1	454	773	25279	13.328	13.293	13.363
ProbeTrackDT01	18	ProbeTrack	10.4	SCS215a	20100708.112411	20100708.112503	8	0.013328	60	10	60-180	60	139	GapExp	1	9	2	2	1	target	1	747	627	25906	13.328	13.293	13.363
ProbeTrackDT01	18	ProbeTrack	10.4	SCS215a	20100708.112411	20100708.112509	8	0.013328	60	10	60-180	60	101	GapExp	1	10	2	1	1	target	1	440	780	26686	13.328	13.293	13.363
ProbeTrackDT01	18	ProbeTrack	10.4	SCS215a	20100708.112411	20100708.112515	8	0.013328	60	10	60-180	60	88	GapExp	0	11	2	75	0	distractor	1	520	740	27426	13.328	13.292	13.363
ProbeTrackDT01	18	ProbeTrack	10.4	SCS215a	20100708.112411	20100708.112521	8	0.013328	60	10	60-180	60	72	GapExp	0	12	2	1	1	distractor	0	574	-1000	26426	13.328	13.293	13.362
ProbeTrackDT01	18	ProbeTrack	10.4	SCS215a	20100708.112411	20100708.112526	8	0.013328	60	10	60-180	60	106	GapExp	0	13	2	1	0	distractor	1	653	674	27100	13.328	13.292	13.363
ProbeTrackDT01	18	ProbeTrack	10.4	SCS215a	20100708.112411	20100708.112531	8	0.013328	60	10	60-180	60	113	GapExp	0	14	2	4	1	target	1	427	787	27887	13.328	13.293	13.363
ProbeTrackDT01	18	ProbeTrack	10.4	SCS215a	20100708.112411	20100708.112536	8	0.013328	60	10	60-180	60	129	GapExp	0	15	2	4	0	distractor	1	534	733	28620	13.328	13.148	13.508
ProbeTrackDT01	18	ProbeTrack	10.4	SCS215a	20100708.112411	20100708.112542	8	0.013328	60	10	60-180	60	145	GapExp	0	16	2	75	0	distractor	1	600	700	29320	13.328	13.293	13.365
ProbeTrackDT01	18	ProbeTrack	10.4	SCS215a	20100708.112411	20100708.112549	8	0.013328	60	10	60-180	60	96	GapExp	0	17	2	1	0	distractor	1	1000	500	29820	13.328	13.293	13.363
ProbeTrackDT01	18	ProbeTrack	10.4	SCS215a	20100708.112411	20100708.112555	8	0.013328	60	10	60-180	60	145	GapExp	0	18	2	2	1	target	1	867	567	30387	13.328	13.293	13.363
ProbeTrackDT01	18	ProbeTrack	10.4	SCS215a	20100708.112411	20100708.112601	8	0.013328	60	10	60-180	60	69	GapExp	0	19	2	0	1	target	1	747	627	31014	13.328	13.292	13.363
ProbeTrackDT01	18	ProbeTrack	10.4	SCS215a	20100708.112411	20100708.112606	8	0.013328	60	10	60-180	60	68	GapExp	0	20	2	1	0	distractor	1	627	687	31701	13.328	13.292	13.363
ProbeTrackDT01	18	ProbeTrack	10.4	SCS215a	20100708.112411	20100708.112611	8	0.013328	60	10	60-180	60	153	GapExp	0	21	2	75	1	distractor	0	467	-1000	30701	13.328	13.293	13.364
ProbeTrackDT01	18	ProbeTrack	10.4	SCS215a	20100708.112411	20100708.112618	8	0.013328	60	10	60-180	60	85	GapExp	0	22	2	1	1	target	1	853	574	31275	13.328	13.293	13.364
ProbeTrackDT01	18	ProbeTrack	10.4	SCS215a	20100708.112411	20100708.112623	8	0.013328	60	10	60-180	60	175	GapExp	0	23	2	2	0	distractor	1	800	600	31875	13.328	13.293	13.363
ProbeTrackDT01	18	ProbeTrack	10.4	SCS215a	20100708.112411	20100708.112629	8	0.013328	60	10	60-180	60	85	GapExp	0	24	2	75	1	target	1	720	640	32515	13.328	13.289	13.366
ProbeTrackDT01	18	ProbeTrack	10.4	SCS215a	20100708.112411	20100708.112636	8	0.013328	60	10	60-180	60	115	GapExp	0	25	2	75	1	distractor	0	720	-1000	31515	13.328	13.293	13.364
ProbeTrackDT01	18	ProbeTrack	10.4	SCS215a	20100708.112411	20100708.112642	8	0.013328	60	10	60-180	60	94	GapExp	0	26	2	0	0	target	0	680	-1000	30515	13.328	13.231	13.424
ProbeTrackDT01	18	ProbeTrack	10.4	SCS215a	20100708.112411	20100708.112648	8	0.013328	60	10	60-180	60	156	GapExp	0	27	2	2	1	target	1	494	753	31268	13.328	13.293	13.363
ProbeTrackDT01	18	ProbeTrack	10.4	SCS215a	20100708.112411	20100708.112654	8	0.013328	60	10	60-180	60	112	GapExp	0	28	2	1	1	target	1	827	587	31855	13.328	13.289	13.366
ProbeTrackDT01	18	ProbeTrack	10.4	SCS215a	20100708.112411	20100708.112659	8	0.013328	60	10	60-180	60	109	GapExp	0	29	2	75	1	target	1	480	760	32615	13.328	13.253	13.419
ProbeTrackDT01	18	ProbeTrack	10.4	SCS215a	20100708.112411	20100708.112706	8	0.013328	60	10	60-180	60	113	GapExp	0	30	2	4	0	distractor	1	534	733	33348	13.328	13.293	13.363
ProbeTrackDT01	18	ProbeTrack	10.4	SCS215a	20100708.112411	20100708.112711	8	0.013328	60	10	60-180	60	88	GapExp	0	31	2	0	1	target	1	574	713	34061	13.328	13.292	13.363
ProbeTrackDT01	18	ProbeTrack	10.4	SCS215a	20100708.112411	20100708.112716	8	0.013328	60	10	60-180	60	159	GapExp	0	32	2	0	1	target	1	520	740	34801	13.328	13.293	13.363
ProbeTrackDT01	18	ProbeTrack	10.4	SCS215a	20100708.112411	20100708.112722	8	0.013328	60	10	60-180	60	90	GapExp	0	33	2	75	1	target	1	480	760	35561	13.328	13.045	13.609
ProbeTrackDT01	18	ProbeTrack	10.4	SCS215a	20100708.112411	20100708.112728	8	0.013328	60	10	60-180	60	176	GapExp	0	34	2	4	0	target	0	1000	-1000	34561	13.328	13.293	13.363
ProbeTrackDT01	18	ProbeTrack	10.4	SCS215a	20100708.112411	20100708.112735	8	0.013328	60	10	60-180	60	125	GapExp	0	35	2	2	1	target	1	494	753	35314	13.328	13.293	13.363
ProbeTrackDT01	18	ProbeTrack	10.4	SCS215a	20100708.112411	20100708.112740	8	0.013328	60	10	60-180	60	151	GapExp	0	36	2	2	1	target	1	427	787	36101	13.328	13.096	13.559
ProbeTrackDT01	18	ProbeTrack	10.4	SCS215a	20100708.112411	20100708.112746	8	0.013328	60	10	60-180	60	69	GapExp	0	37	2	1	1	distractor	0	587	-1000	35101	13.328	13.239	13.417
ProbeTrackDT01	18	ProbeTrack	10.4	SCS215a	20100708.112411	20100708.112751	8	0.013328	60	10	60-180	60	78	GapExp	0	38	2	0	1	target	1	494	753	35854	13.328	13.293	13.372
ProbeTrackDT01	18	ProbeTrack	10.4	SCS215a	20100708.112411	20100708.112756	8	0.013328	60	10	60-180	60	114	GapExp	0	39	2	4	1	target	1	494	753	36607	13.328	13.293	13.363
ProbeTrackDT01	18	ProbeTrack	10.4	SCS215a	20100708.112411	20100708.112802	8	0.013328	60	10	60-180	60	177	GapExp	0	40	2	75	1	target	1	414	793	37400	13.328	13.293	13.365
ProbeTrackDT01	18	ProbeTrack	10.4	SCS215a	20100708.112411	20100708.112809	8	0.013328	60	10	60-180	60	162	GapExp	0	41	2	0	1	target	1	587	707	38107	13.328	13.264	13.426
ProbeTrackDT01	18	ProbeTrack	10.4	SCS215a	20100708.112411	20100708.112815	8	0.013328	60	10	60-180	60	134	GapExp	0	42	2	0	1	target	1	520	740	38847	13.328	12.926	13.696
ProbeTrackDT01	18	ProbeTrack	10.4	SCS215a	20100708.112411	20100708.112820	8	0.013328	60	10	60-180	60	165	GapExp	0	43	2	2	1	target	1	520	740	39587	13.328	13.293	13.363
ProbeTrackDT01	18	ProbeTrack	10.4	SCS215a	20100708.112411	20100708.112827	8	0.013328	60	10	60-180	60	177	GapExp	0	44	2	0	1	target	1	480	760	40347	13.328	13.290	13.367
ProbeTrackDT01	18	ProbeTrack	10.4	SCS215a	20100708.112411	20100708.112833	8	0.013328	60	10	60-180	60	149	GapExp	0	45	2	0	0	target	0	627	-1000	39347	13.328	13.293	13.363
ProbeTrackDT01	18	ProbeTrack	10.4	SCS215a	20100708.112411	20100708.112839	8	0.013328	60	10	60-180	60	161	GapExp	0	46	2	75	1	target	1	653	674	40021	13.328	13.293	13.365
ProbeTrackDT01	18	ProbeTrack	10.4	SCS215a	20100708.112411	20100708.112846	8	0.013328	60	10	60-180	60	101	GapExp	0	47	2	4	1	target	1	573	714	40735	13.328	13.093	13.563
ProbeTrackDT01	18	ProbeTrack	10.4	SCS215a	20100708.112411	20100708.112851	8	0.013328	60	10	60-180	60	70	GapExp	0	48	2	1	1	target	1	467	767	41502	13.328	13.207	13.483
ProbeTrackDT01	18	ProbeTrack	10.4	SCS215a	20100708.112411	20100708.112856	8	0.013328	60	10	60-180	60	126	GapExp	0	49	2	2	1	target	1	574	713	42215	13.379	12.948	27.070
ProbeTrackDT01	18	ProbeTrack	10.4	SCS215a	20100708.112411	20100708.112902	8	0.013328	60	10	60-180	60	150	GapExp	0	50	2	1	0	target	0	667	-1000	41215	13.328	12.869	13.754
ProbeTrackDT01	18	ProbeTrack	10.4	SCS215a	20100708.112411	20100708.113004	8	0.013328	60	10	60-180	60	168	GapExp	0	51	2	4	1	target	1	454	773	41988	13.328	13.191	13.464
ProbeTrackDT01	18	ProbeTrack	10.4	SCS215a	20100708.112411	20100708.113010	8	0.013328	60	10	60-180	60	95	GapExp	0	52	2	0	1	target	1	600	700	42688	13.328	13.293	13.363
ProbeTrackDT01	18	ProbeTrack	10.4	SCS215a	20100708.112411	20100708.113016	8	0.013328	60	10	60-180	60	80	GapExp	0	53	2	75	0	distractor	1	800	600	43288	13.328	13.253	13.437
ProbeTrackDT01	18	ProbeTrack	10.4	SCS215a	20100708.112411	20100708.113022	8	0.013328	60	10	60-180	60	176	GapExp	0	54	2	1	1	target	1	587	707	43995	13.328	13.293	13.363
ProbeTrackDT01	18	ProbeTrack	10.4	SCS215a	20100708.112411	20100708.113028	8	0.013328	60	10	60-180	60	61	GapExp	0	55	2	2	0	distractor	1	16967	0	43995	13.328	13.293	13.363
ProbeTrackDT01	18	ProbeTrack	10.4	SCS215a	20100708.112411	20100708.113049	8	0.013328	60	10	60-180	60	147	GapExp	0	56	2	1	0	target	0	787	-1000	42995	13.328	13.293	13.363
ProbeTrackDT01	18	ProbeTrack	10.4	SCS215a	20100708.112411	20100708.113055	8	0.013328	60	10	60-180	60	141	GapExp	0	57	2	0	1	target	1	547	727	43722	13.328	13.293	13.363
ProbeTrackDT01	18	ProbeTrack	10.4	SCS215a	20100708.112411	20100708.113101	8	0.013328	60	10	60-180	60	173	GapExp	0	58	2	75	0	distractor	1	520	740	44462	13.328	13.286	13.403
ProbeTrackDT01	18	ProbeTrack	10.4	SCS215a	20100708.112411	20100708.113108	8	0.013328	60	10	60-180	60	70	GapExp	0	59	2	75	0	distractor	1	520	740	45202	13.328	13.290	13.367
ProbeTrackDT01	18	ProbeTrack	10.4	SCS215a	20100708.112411	20100708.113114	8	0.013328	60	10	60-180	60	97	GapExp	0	60	2	75	0	distractor	1	494	753	45955	13.328	13.293	13.363
ProbeTrackDT01	18	ProbeTrack	10.4	SCS215a	20100708.112411	20100708.113120	8	0.013328	60	10	60-180	60	174	GapExp	0	61	2	4	0	target	0	654	-1000	44955	13.328	13.293	13.363
ProbeTrackDT01	18	ProbeTrack	10.4	SCS215a	20100708.112411	20100708.113127	8	0.013328	60	10	60-180	60	130	GapExp	0	62	2	4	0	target	0	787	-1000	43955	13.328	13.293	13.363
ProbeTrackDT01	18	ProbeTrack	10.4	SCS215a	20100708.112411	20100708.113133	8	0.013328	60	10	60-180	60	93	GapExp	0	63	2	75	1	target	1	427	787	44742	13.328	13.293	13.364
ProbeTrackDT01	18	ProbeTrack	10.4	SCS215a	20100708.112411	20100708.113139	8	0.013328	60	10	60-180	60	69	GapExp	0	64	2	1	1	target	1	640	680	45422	13.328	13.292	13.363
ProbeTrackDT01	18	ProbeTrack	10.4	SCS215a	20100708.112411	20100708.113144	8	0.013328	60	10	60-180	60	98	GapExp	0	65	2	4	0	distractor	1	907	547	45969	13.328	13.243	13.446
ProbeTrackDT01	18	ProbeTrack	10.4	SCS215a	20100708.112411	20100708.113149	8	0.013328	60	10	60-180	60	144	GapExp	0	66	2	2	0	target	0	1746	-1000	44969	13.328	13.292	13.363
ProbeTrackDT01	18	ProbeTrack	10.4	SCS215a	20100708.112411	20100708.113156	8	0.013328	60	10	60-180	60	141	GapExp	0	67	2	0	0	target	0	760	-1000	43969	13.328	13.293	13.367
ProbeTrackDT01	18	ProbeTrack	10.4	SCS215a	20100708.112411	20100708.113202	8	0.013328	60	10	60-180	60	168	GapExp	0	68	2	2	1	target	1	667	667	44636	13.328	13.034	13.624
ProbeTrackDT01	18	ProbeTrack	10.4	SCS215a	20100708.112411	20100708.113209	8	0.013328	60	10	60-180	60	167	GapExp	0	69	2	75	0	distractor	1	547	727	45363	13.328	13.293	13.363
ProbeTrackDT01	18	ProbeTrack	10.4	SCS215a	20100708.112411	20100708.113216	8	0.013328	60	10	60-180	60	67	GapExp	0	70	2	1	0	target	0	587	-1000	44363	13.328	13.293	13.363
ProbeTrackDT01	18	ProbeTrack	10.4	SCS215a	20100708.112411	20100708.113221	8	0.013328	60	10	60-180	60	147	GapExp	0	71	2	1	1	target	1	494	753	45116	13.377	13.293	26.533
ProbeTrackDT01	18	ProbeTrack	10.4	SCS215a	20100708.112411	20100708.113227	8	0.013328	60	10	60-180	60	140	GapExp	0	72	2	75	0	distractor	1	494	753	45869	13.328	13.293	13.363
ProbeTrackDT01	18	ProbeTrack	10.4	SCS215a	20100708.112411	20100708.113233	8	0.013328	60	10	60-180	60	120	GapExp	0	73	2	0	0	target	0	920	-1000	44869	13.328	12.946	13.710
ProbeTrackDT01	18	ProbeTrack	10.4	SCS215a	20100708.112411	20100708.113239	8	0.013328	60	10	60-180	60	99	GapExp	0	74	2	1	0	target	0	534	-1000	43869	13.328	13.293	13.363
ProbeTrackDT01	18	ProbeTrack	10.4	SCS215a	20100708.112411	20100708.113245	8	0.013328	60	10	60-180	60	99	GapExp	0	75	2	2	0	target	0	667	-1000	42869	13.328	13.111	13.544
ProbeTrackDT01	18	ProbeTrack	10.4	SCS215a	20100708.112411	20100708.113250	8	0.013328	60	10	60-180	60	72	GapExp	0	76	2	75	0	distractor	1	640	680	43549	13.328	13.293	13.363
ProbeTrackDT01	18	ProbeTrack	10.4	SCS215a	20100708.112411	20100708.113256	8	0.013328	60	10	60-180	60	124	GapExp	0	77	2	2	1	target	1	640	680	44229	13.328	13.252	13.405
ProbeTrackDT01	18	ProbeTrack	10.4	SCS215a	20100708.112411	20100708.113302	8	0.013328	60	10	60-180	60	78	GapExp	0	78	2	4	0	distractor	1	707	647	44876	13.328	12.869	13.754
ProbeTrackDT01	18	ProbeTrack	10.4	SCS215a	20100708.112411	20100708.113307	8	0.013328	60	10	60-180	60	173	GapExp	0	79	2	75	0	distractor	1	547	727	45603	13.328	13.083	13.573
ProbeTrackDT01	18	ProbeTrack	10.4	SCS215a	20100708.112411	20100708.113314	8	0.013328	60	10	60-180	60	136	GapExp	0	80	2	4	1	target	1	987	507	46110	13.328	13.293	13.363
ProbeTrackDT01	18	ProbeTrack	10.4	SCS215a	20100708.112411	20100708.113320	8	0.013328	60	10	60-180	60	111	GapExp	0	81	2	4	0	distractor	1	760	620	46730	13.328	13.293	13.363
ProbeTrackDT01	18	ProbeTrack	10.4	SCS215a	20100708.112411	20100708.113326	8	0.013328	60	10	60-180	60	89	GapExp	0	82	2	1	0	target	0	520	-1000	45730	13.328	13.293	13.363
ProbeTrackDT01	18	ProbeTrack	10.4	SCS215a	20100708.112411	20100708.113331	8	0.013328	60	10	60-180	60	175	GapExp	0	83	2	75	0	distractor	1	653	674	46404	13.328	13.177	13.480
ProbeTrackDT01	18	ProbeTrack	10.4	SCS215a	20100708.112411	20100708.113338	8	0.013328	60	10	60-180	60	101	GapExp	0	84	2	0	1	target	1	627	687	47091	13.328	13.175	13.481
ProbeTrackDT01	18	ProbeTrack	10.4	SCS215a	20100708.112411	20100708.113344	8	0.013328	60	10	60-180	60	132	GapExp	0	85	2	1	0	distractor	1	773	614	47705	13.328	13.061	13.562
ProbeTrackDT01	18	ProbeTrack	10.4	SCS215a	20100708.112411	20100708.113350	8	0.013328	60	10	60-180	60	162	GapExp	0	86	2	0	1	target	1	547	727	48432	13.328	13.290	13.363
ProbeTrackDT01	18	ProbeTrack	10.4	SCS215a	20100708.112411	20100708.113356	8	0.013328	60	10	60-180	60	173	GapExp	0	87	2	4	1	target	1	480	760	49192	13.328	13.293	13.363
ProbeTrackDT01	18	ProbeTrack	10.4	SCS215a	20100708.112411	20100708.113402	8	0.013328	60	10	60-180	60	104	GapExp	0	88	2	0	0	target	0	694	-1000	48192	13.328	13.179	13.442
ProbeTrackDT01	18	ProbeTrack	10.4	SCS215a	20100708.112411	20100708.113407	8	0.013328	60	10	60-180	60	104	GapExp	0	89	2	75	1	distractor	0	507	-1000	47192	13.328	13.088	13.567
ProbeTrackDT01	18	ProbeTrack	10.4	SCS215a	20100708.112411	20100708.113414	8	0.013328	60	10	60-180	60	109	GapExp	0	90	2	4	1	target	1	534	733	47925	13.328	13.293	13.363
ProbeTrackDT01	18	ProbeTrack	10.4	SCS215a	20100708.112411	20100708.113419	8	0.013328	60	10	60-180	60	174	GapExp	0	91	2	1	1	target	1	427	787	48712	13.328	13.103	13.553
ProbeTrackDT01	18	ProbeTrack	10.4	SCS215a	20100708.112411	20100708.113425	8	0.013328	60	10	60-180	60	170	GapExp	0	92	2	4	0	target	0	507	-1000	47712	13.328	13.240	13.449
ProbeTrackDT01	18	ProbeTrack	10.4	SCS215a	20100708.112411	20100708.113431	8	0.013328	60	10	60-180	60	127	GapExp	0	93	2	0	0	target	0	613	-1000	46712	13.328	13.293	13.365
ProbeTrackDT01	18	ProbeTrack	10.4	SCS215a	20100708.112411	20100708.113437	8	0.013328	60	10	60-180	60	81	GapExp	0	94	2	75	0	distractor	1	693	654	47366	13.328	13.217	13.437
ProbeTrackDT01	18	ProbeTrack	10.4	SCS215a	20100708.112411	20100708.113443	8	0.013328	60	10	60-180	60	126	GapExp	0	95	2	4	0	distractor	1	640	680	48046	13.328	13.047	13.576
ProbeTrackDT01	18	ProbeTrack	10.4	SCS215a	20100708.112411	20100708.113449	8	0.013328	60	10	60-180	60	92	GapExp	0	96	2	0	0	distractor	1	667	667	48713	13.328	13.293	13.365
ProbeTrackDT01	18	ProbeTrack	10.4	SCS215a	20100708.112411	20100708.113454	8	0.013328	60	10	60-180	60	150	GapExp	0	97	2	2	0	distractor	1	560	720	49433	13.328	12.969	13.720
ProbeTrackDT01	18	ProbeTrack	10.4	SCS215a	20100708.112411	20100708.113500	8	0.013328	60	10	60-180	60	84	GapExp	0	98	2	0	0	distractor	1	653	674	50107	13.328	13.293	13.363
ProbeTrackDT01	18	ProbeTrack	10.4	SCS215a	20100708.112411	20100708.113505	8	0.013328	60	10	60-180	60	160	GapExp	0	99	2	0	0	target	0	653	-1000	49107	13.328	13.289	13.363
ProbeTrackDT01	18	ProbeTrack	10.4	SCS215a	20100708.112411	20100708.113511	8	0.013328	60	10	60-180	60	153	GapExp	0	100	2	1	0	distractor	1	627	687	49794	13.328	13.285	13.363
ProbeTrackDT01	18	ProbeTrack	10.4	SCS215a	20100708.112411	20100708.113655	8	0.013328	60	10	60-180	60	124	GapExp	0	101	2	2	0	distractor	1	653	674	50468	13.328	13.165	13.458
ProbeTrackDT01	18	ProbeTrack	10.4	SCS215a	20100708.112411	20100708.113701	8	0.013328	60	10	60-180	60	168	GapExp	0	102	2	75	1	target	1	347	827	51295	13.328	13.293	13.363
ProbeTrackDT01	18	ProbeTrack	10.4	SCS215a	20100708.112411	20100708.113708	8	0.013328	60	10	60-180	60	104	GapExp	0	103	2	2	0	distractor	1	707	647	51942	13.328	13.290	13.366
ProbeTrackDT01	18	ProbeTrack	10.4	SCS215a	20100708.112411	20100708.113713	8	0.013328	60	10	60-180	60	79	GapExp	0	104	2	2	0	distractor	1	787	607	52549	13.328	13.293	13.363
ProbeTrackDT01	18	ProbeTrack	10.4	SCS215a	20100708.112411	20100708.113718	8	0.013328	60	10	60-180	60	71	GapExp	0	105	2	2	0	target	0	907	-1000	51549	13.328	13.293	13.363
ProbeTrackDT01	18	ProbeTrack	10.4	SCS215a	20100708.112411	20100708.113724	8	0.013328	60	10	60-180	60	177	GapExp	0	106	2	1	1	target	1	627	687	52236	13.328	13.292	13.363
ProbeTrackDT01	18	ProbeTrack	10.4	SCS215a	20100708.112411	20100708.113730	8	0.013328	60	10	60-180	60	73	GapExp	0	107	2	75	0	distractor	1	494	753	52989	13.328	13.293	13.363
ProbeTrackDT01	18	ProbeTrack	10.4	SCS215a	20100708.112411	20100708.113736	8	0.013328	60	10	60-180	60	129	GapExp	0	108	2	0	1	distractor	0	427	-1000	51989	13.328	13.293	13.363
ProbeTrackDT01	18	ProbeTrack	10.4	SCS215a	20100708.112411	20100708.113741	8	0.013328	60	10	60-180	60	132	GapExp	0	109	2	75	1	target	1	334	833	52822	13.328	13.211	13.445
ProbeTrackDT01	18	ProbeTrack	10.4	SCS215a	20100708.112411	20100708.113748	8	0.013328	60	10	60-180	60	74	GapExp	0	110	2	2	1	target	1	654	673	53495	13.328	13.293	13.363
ProbeTrackDT01	18	ProbeTrack	10.4	SCS215a	20100708.112411	20100708.113753	8	0.013328	60	10	60-180	60	149	GapExp	0	111	2	2	1	target	1	480	760	54255	13.328	13.293	13.363
ProbeTrackDT01	18	ProbeTrack	10.4	SCS215a	20100708.112411	20100708.113759	8	0.013328	60	10	60-180	60	79	GapExp	0	112	2	1	0	target	0	627	-1000	53255	13.328	13.292	13.363
ProbeTrackDT01	18	ProbeTrack	10.4	SCS215a	20100708.112411	20100708.113804	8	0.013328	60	10	60-180	60	119	GapExp	0	113	2	4	1	distractor	0	494	-1000	52255	13.328	13.293	13.363
ProbeTrackDT01	18	ProbeTrack	10.4	SCS215a	20100708.112411	20100708.113809	8	0.013328	60	10	60-180	60	64	GapExp	0	114	2	2	1	target	1	400	800	53055	13.328	13.293	13.363
ProbeTrackDT01	18	ProbeTrack	10.4	SCS215a	20100708.112411	20100708.113814	8	0.013328	60	10	60-180	60	168	GapExp	0	115	2	0	1	target	1	374	813	53868	13.328	13.292	13.363
ProbeTrackDT01	18	ProbeTrack	10.4	SCS215a	20100708.112411	20100708.113820	8	0.013328	60	10	60-180	60	133	GapExp	0	116	2	1	0	target	0	507	-1000	52868	13.328	13.293	13.363
ProbeTrackDT01	18	ProbeTrack	10.4	SCS215a	20100708.112411	20100708.113826	8	0.013328	60	10	60-180	60	148	GapExp	0	117	2	75	1	target	1	494	753	53621	13.328	13.090	13.600
ProbeTrackDT01	18	ProbeTrack	10.4	SCS215a	20100708.112411	20100708.113832	8	0.013328	60	10	60-180	60	102	GapExp	0	118	2	75	1	target	1	574	713	54334	13.328	13.293	13.363
ProbeTrackDT01	18	ProbeTrack	10.4	SCS215a	20100708.112411	20100708.113839	8	0.013328	60	10	60-180	60	161	GapExp	0	119	2	1	1	target	1	747	627	54961	13.328	13.293	13.363
ProbeTrackDT01	18	ProbeTrack	10.4	SCS215a	20100708.112411	20100708.113845	8	0.013328	60	10	60-180	60	75	GapExp	0	120	2	4	0	target	0	933	-1000	53961	13.328	13.287	13.370
ProbeTrackDT01	18	ProbeTrack	10.4	SCS215a	20100708.112411	20100708.113850	8	0.013328	60	10	60-180	60	133	GapExp	0	121	2	4	0	target	0	680	-1000	52961	13.328	13.293	13.363
ProbeTrackDT01	18	ProbeTrack	10.4	SCS215a	20100708.112411	20100708.113856	8	0.013328	60	10	60-180	60	86	GapExp	0	122	2	75	0	distractor	1	694	653	53614	13.328	13.279	13.377
ProbeTrackDT01	18	ProbeTrack	10.4	SCS215a	20100708.112411	20100708.113902	8	0.013328	60	10	60-180	60	106	GapExp	0	123	2	2	0	target	0	667	-1000	52614	13.328	13.293	13.363
ProbeTrackDT01	18	ProbeTrack	10.4	SCS215a	20100708.112411	20100708.113908	8	0.013328	60	10	60-180	60	113	GapExp	0	124	2	0	0	target	0	600	-1000	51614	13.328	13.059	13.632
ProbeTrackDT01	18	ProbeTrack	10.4	SCS215a	20100708.112411	20100708.113913	8	0.013328	60	10	60-180	60	164	GapExp	0	125	2	75	1	distractor	0	534	-1000	50614	13.328	13.293	13.363
ProbeTrackDT01	18	ProbeTrack	10.4	SCS215a	20100708.112411	20100708.113920	8	0.013328	60	10	60-180	60	90	GapExp	0	126	2	2	1	target	1	480	760	51374	13.328	13.292	13.364
ProbeTrackDT01	18	ProbeTrack	10.4	SCS215a	20100708.112411	20100708.113926	8	0.013328	60	10	60-180	60	108	GapExp	0	127	2	4	1	target	1	494	753	52127	13.328	13.166	13.524
ProbeTrackDT01	18	ProbeTrack	10.4	SCS215a	20100708.112411	20100708.113931	8	0.013328	60	10	60-180	60	121	GapExp	0	128	2	0	0	target	0	534	-1000	51127	13.328	13.293	13.363
ProbeTrackDT01	18	ProbeTrack	10.4	SCS215a	20100708.112411	20100708.113936	8	0.013328	60	10	60-180	60	86	GapExp	0	129	2	1	0	distractor	1	733	634	51761	13.386	12.823	27.161
ProbeTrackDT01	18	ProbeTrack	10.4	SCS215a	20100708.112411	20100708.113942	8	0.013328	60	10	60-180	60	158	GapExp	0	130	2	1	1	target	1	520	740	52501	13.328	13.028	13.628
ProbeTrackDT01	18	ProbeTrack	10.4	SCS215a	20100708.112411	20100708.113948	8	0.013328	60	10	60-180	60	97	GapExp	0	131	2	4	1	target	1	853	574	53075	13.328	13.277	13.366
ProbeTrackDT01	18	ProbeTrack	10.4	SCS215a	20100708.112411	20100708.113953	8	0.013328	60	10	60-180	60	83	GapExp	0	132	2	2	1	target	1	387	807	53882	13.328	13.014	13.674
ProbeTrackDT01	18	ProbeTrack	10.4	SCS215a	20100708.112411	20100708.113958	8	0.013328	60	10	60-180	60	169	GapExp	0	133	2	4	1	target	1	414	793	54675	13.328	13.006	13.646
ProbeTrackDT01	18	ProbeTrack	10.4	SCS215a	20100708.112411	20100708.114004	8	0.013328	60	10	60-180	60	151	GapExp	0	134	2	0	1	target	1	947	527	55202	13.328	12.925	13.731
ProbeTrackDT01	18	ProbeTrack	10.4	SCS215a	20100708.112411	20100708.114011	8	0.013328	60	10	60-180	60	167	GapExp	0	135	2	4	0	distractor	1	560	720	55922	13.328	13.293	13.363
ProbeTrackDT01	18	ProbeTrack	10.4	SCS215a	20100708.112411	20100708.114017	8	0.013328	60	10	60-180	60	103	GapExp	0	136	2	0	0	target	0	707	-1000	54922	13.328	13.293	13.364
ProbeTrackDT01	18	ProbeTrack	10.4	SCS215a	20100708.112411	20100708.114022	8	0.013328	60	10	60-180	60	75	GapExp	0	137	2	1	1	target	1	494	753	55675	13.328	13.293	13.367
ProbeTrackDT01	18	ProbeTrack	10.4	SCS215a	20100708.112411	20100708.114027	8	0.013328	60	10	60-180	60	117	GapExp	0	138	2	1	0	distractor	1	614	693	56368	13.328	13.259	13.397
ProbeTrackDT01	18	ProbeTrack	10.4	SCS215a	20100708.112411	20100708.114033	8	0.013328	60	10	60-180	60	176	GapExp	0	139	2	0	1	target	1	440	780	57148	13.328	13.156	13.498
ProbeTrackDT01	18	ProbeTrack	10.4	SCS215a	20100708.112411	20100708.114039	8	0.013328	60	10	60-180	60	81	GapExp	0	140	2	0	0	distractor	1	534	733	57881	13.328	13.292	13.363
ProbeTrackDT01	18	ProbeTrack	10.4	SCS215a	20100708.112411	20100708.114044	8	0.013328	60	10	60-180	60	98	GapExp	0	141	2	0	1	target	1	614	693	58574	13.328	13.293	13.364
ProbeTrackDT01	18	ProbeTrack	10.4	SCS215a	20100708.112411	20100708.114049	8	0.013328	60	10	60-180	60	153	GapExp	0	142	2	1	1	target	1	534	733	59307	13.328	13.293	13.363
ProbeTrackDT01	18	ProbeTrack	10.4	SCS215a	20100708.112411	20100708.114055	8	0.013328	60	10	60-180	60	141	GapExp	0	143	2	2	1	target	1	640	680	59987	13.328	13.293	13.363
ProbeTrackDT01	18	ProbeTrack	10.4	SCS215a	20100708.112411	20100708.114101	8	0.013328	60	10	60-180	60	129	GapExp	0	144	2	75	0	target	0	747	-1000	58987	13.328	13.273	13.382
ProbeTrackDT01	18	ProbeTrack	10.4	SCS215a	20100708.112411	20100708.114108	8	0.013328	60	10	60-180	60	79	GapExp	0	145	2	4	1	target	1	454	773	59760	13.328	13.238	13.384
ProbeTrackDT01	18	ProbeTrack	10.4	SCS215a	20100708.112411	20100708.114113	8	0.013328	60	10	60-180	60	102	GapExp	0	146	2	4	0	distractor	1	520	740	60500	13.328	13.293	13.363
ProbeTrackDT01	18	ProbeTrack	10.4	SCS215a	20100708.112411	20100708.114118	8	0.013328	60	10	60-180	60	65	GapExp	0	147	2	0	0	distractor	1	520	740	61240	13.328	13.086	13.536
ProbeTrackDT01	18	ProbeTrack	10.4	SCS215a	20100708.112411	20100708.114123	8	0.013328	60	10	60-180	60	114	GapExp	0	148	2	75	0	distractor	1	467	767	62007	13.328	13.293	13.363
ProbeTrackDT01	18	ProbeTrack	10.4	SCS215a	20100708.112411	20100708.114129	8	0.013328	60	10	60-180	60	137	GapExp	0	149	2	1	1	target	1	454	773	62780	13.328	13.236	13.387
ProbeTrackDT01	18	ProbeTrack	10.4	SCS215a	20100708.112411	20100708.114135	8	0.013328	60	10	60-180	60	128	GapExp	0	150	2	75	1	target	1	653	674	63454	13.328	13.291	13.363
ProbeTrackDT01	18	ProbeTrack	10.4	SCS215a	20100708.112411	20100708.114350	8	0.013328	60	10	60-180	60	124	GapExp	0	151	2	2	0	target	0	600	-1000	62454	13.328	13.293	13.363
ProbeTrackDT01	18	ProbeTrack	10.4	SCS215a	20100708.112411	20100708.114356	8	0.013328	60	10	60-180	60	123	GapExp	0	152	2	1	1	target	1	507	747	63201	13.328	13.064	13.591
ProbeTrackDT01	18	ProbeTrack	10.4	SCS215a	20100708.112411	20100708.114401	8	0.013328	60	10	60-180	60	121	GapExp	0	153	2	1	0	distractor	1	520	740	63941	13.327	13.065	13.590
ProbeTrackDT01	18	ProbeTrack	10.4	SCS215a	20100708.112411	20100708.114407	8	0.013328	60	10	60-180	60	150	GapExp	0	154	2	1	1	target	1	507	747	64688	13.376	13.224	26.250
ProbeTrackDT01	18	ProbeTrack	10.4	SCS215a	20100708.112411	20100708.114413	8	0.013328	60	10	60-180	60	100	GapExp	0	155	2	4	1	target	1	600	700	65388	13.441	13.007	26.806
ProbeTrackDT01	18	ProbeTrack	10.4	SCS215a	20100708.112411	20100708.114418	8	0.013328	60	10	60-180	60	62	GapExp	0	156	2	75	0	distractor	1	614	693	66081	13.328	13.292	13.363
ProbeTrackDT01	18	ProbeTrack	10.4	SCS215a	20100708.112411	20100708.114424	8	0.013328	60	10	60-180	60	170	GapExp	0	157	2	75	0	distractor	1	520	740	66821	13.328	13.293	13.376
ProbeTrackDT01	18	ProbeTrack	10.4	SCS215a	20100708.112411	20100708.114431	8	0.013328	60	10	60-180	60	149	GapExp	0	158	2	2	0	target	0	480	-1000	65821	13.328	13.290	13.366
ProbeTrackDT01	18	ProbeTrack	10.4	SCS215a	20100708.112411	20100708.114437	8	0.013328	60	10	60-180	60	72	GapExp	0	159	2	0	1	target	1	733	634	66455	13.328	13.135	13.488
ProbeTrackDT01	18	ProbeTrack	10.4	SCS215a	20100708.112411	20100708.114442	8	0.013328	60	10	60-180	60	115	GapExp	0	160	2	4	0	target	0	747	-1000	65455	13.328	13.292	13.363
ProbeTrackDT01	18	ProbeTrack	10.4	SCS215a	20100708.112411	20100708.114448	8	0.013328	60	10	60-180	60	145	GapExp	0	161	2	75	1	target	1	400	800	66255	13.328	13.098	13.524
ProbeTrackDT01	18	ProbeTrack	10.4	SCS215a	20100708.112411	20100708.114454	8	0.013328	60	10	60-180	60	96	GapExp	0	162	2	75	1	distractor	0	440	-1000	65255	13.328	13.144	13.545
ProbeTrackDT01	18	ProbeTrack	10.4	SCS215a	20100708.112411	20100708.114500	8	0.013328	60	10	60-180	60	140	GapExp	0	163	2	2	1	distractor	0	733	-1000	64255	13.658	13.000	53.338
ProbeTrackDT01	18	ProbeTrack	10.4	SCS215a	20100708.112411	20100708.114507	8	0.013328	60	10	60-180	60	159	GapExp	0	164	2	75	1	target	1	400	800	65055	13.328	13.290	13.366
ProbeTrackDT01	18	ProbeTrack	10.4	SCS215a	20100708.112411	20100708.114513	8	0.013328	60	10	60-180	60	125	GapExp	0	165	2	4	0	distractor	1	773	614	65669	13.328	13.083	13.540
ProbeTrackDT01	18	ProbeTrack	10.4	SCS215a	20100708.112411	20100708.114519	8	0.013328	60	10	60-180	60	100	GapExp	0	166	2	2	0	target	0	560	-1000	64669	13.328	13.293	13.363
ProbeTrackDT01	18	ProbeTrack	10.4	SCS215a	20100708.112411	20100708.114525	8	0.013328	60	10	60-180	60	157	GapExp	0	167	2	4	1	target	1	680	660	65329	13.328	13.181	13.509
ProbeTrackDT01	18	ProbeTrack	10.4	SCS215a	20100708.112411	20100708.114531	8	0.013328	60	10	60-180	60	96	GapExp	0	168	2	75	1	target	1	400	800	66129	13.328	13.047	13.607
ProbeTrackDT01	18	ProbeTrack	10.4	SCS215a	20100708.112411	20100708.114537	8	0.013328	60	10	60-180	60	134	GapExp	0	169	2	75	0	distractor	1	693	654	66783	13.328	13.290	13.366
ProbeTrackDT01	18	ProbeTrack	10.4	SCS215a	20100708.112411	20100708.114544	8	0.013328	60	10	60-180	60	134	GapExp	0	170	2	1	1	target	1	560	720	67503	13.631	13.060	39.919
ProbeTrackDT01	18	ProbeTrack	10.4	SCS215a	20100708.112411	20100708.114550	8	0.013328	60	10	60-180	60	156	GapExp	0	171	2	4	1	target	1	1133	434	67937	13.328	13.292	13.363
ProbeTrackDT01	18	ProbeTrack	10.4	SCS215a	20100708.112411	20100708.114556	8	0.013328	60	10	60-180	60	125	GapExp	0	172	2	4	1	target	1	893	554	68491	13.376	13.291	26.427
ProbeTrackDT01	18	ProbeTrack	10.4	SCS215a	20100708.112411	20100708.114602	8	0.013328	60	10	60-180	60	144	GapExp	0	173	2	2	1	target	1	547	727	69218	13.328	13.083	13.539
ProbeTrackDT01	18	ProbeTrack	10.4	SCS215a	20100708.112411	20100708.114608	8	0.013328	60	10	60-180	60	96	GapExp	0	174	2	2	0	distractor	1	574	713	69931	13.328	13.293	13.363
ProbeTrackDT01	18	ProbeTrack	10.4	SCS215a	20100708.112411	20100708.114613	8	0.013328	60	10	60-180	60	102	GapExp	0	175	2	0	0	target	0	720	-1000	68931	13.328	13.256	13.411
ProbeTrackDT01	18	ProbeTrack	10.4	SCS215a	20100708.112411	20100708.114619	8	0.013328	60	10	60-180	60	116	GapExp	0	176	2	0	0	distractor	1	733	634	69565	13.328	13.293	13.363
ProbeTrackDT01	18	ProbeTrack	10.4	SCS215a	20100708.112411	20100708.114624	8	0.013328	60	10	60-180	60	144	GapExp	0	177	2	2	0	distractor	1	1853	74	69639	13.328	13.007	13.648
ProbeTrackDT01	18	ProbeTrack	10.4	SCS215a	20100708.112411	20100708.114632	8	0.013328	60	10	60-180	60	168	GapExp	0	178	2	1	0	target	0	600	-1000	68639	13.726	13.001	39.785
ProbeTrackDT01	18	ProbeTrack	10.4	SCS215a	20100708.112411	20100708.114638	8	0.013328	60	10	60-180	60	101	GapExp	0	179	2	1	0	distractor	1	720	640	69279	13.328	13.149	13.541
ProbeTrackDT01	18	ProbeTrack	10.4	SCS215a	20100708.112411	20100708.114643	8	0.013328	60	10	60-180	60	130	GapExp	0	180	2	1	0	target	0	613	-1000	68279	13.328	13.185	13.504
ProbeTrackDT01	18	ProbeTrack	10.4	SCS215a	20100708.112411	20100708.114649	8	0.013328	60	10	60-180	60	66	GapExp	0	181	2	4	0	target	0	507	-1000	67279	13.328	13.293	13.362
ProbeTrackDT01	18	ProbeTrack	10.4	SCS215a	20100708.112411	20100708.114654	8	0.013328	60	10	60-180	60	138	GapExp	0	182	2	1	1	distractor	0	667	-1000	66279	13.328	13.293	13.363
ProbeTrackDT01	18	ProbeTrack	10.4	SCS215a	20100708.112411	20100708.114700	8	0.013328	60	10	60-180	60	105	GapExp	0	183	2	4	0	distractor	1	733	634	66913	13.328	13.211	13.478
ProbeTrackDT01	18	ProbeTrack	10.4	SCS215a	20100708.112411	20100708.114705	8	0.013328	60	10	60-180	60	106	GapExp	0	184	2	4	1	target	1	1053	474	67387	13.328	13.293	13.363
ProbeTrackDT01	18	ProbeTrack	10.4	SCS215a	20100708.112411	20100708.114711	8	0.013328	60	10	60-180	60	128	GapExp	0	185	2	75	0	distractor	1	573	714	68101	13.328	13.293	13.363
ProbeTrackDT01	18	ProbeTrack	10.4	SCS215a	20100708.112411	20100708.114718	8	0.013328	60	10	60-180	60	86	GapExp	0	186	2	1	0	target	0	747	-1000	67101	13.328	13.176	13.446
ProbeTrackDT01	18	ProbeTrack	10.4	SCS215a	20100708.112411	20100708.114723	8	0.013328	60	10	60-180	60	152	GapExp	0	187	2	4	0	target	0	693	-1000	66101	13.328	13.229	13.426
ProbeTrackDT01	18	ProbeTrack	10.4	SCS215a	20100708.112411	20100708.114729	8	0.013328	60	10	60-180	60	67	GapExp	0	188	2	2	0	distractor	1	640	680	66781	13.328	13.247	13.375
ProbeTrackDT01	18	ProbeTrack	10.4	SCS215a	20100708.112411	20100708.114734	8	0.013328	60	10	60-180	60	153	GapExp	0	189	2	2	0	distractor	1	627	687	67468	13.328	13.293	13.363
ProbeTrackDT01	18	ProbeTrack	10.4	SCS215a	20100708.112411	20100708.114740	8	0.013328	60	10	60-180	60	77	GapExp	0	190	2	0	0	target	0	707	-1000	66468	13.328	13.293	13.363
ProbeTrackDT01	18	ProbeTrack	10.4	SCS215a	20100708.112411	20100708.114746	8	0.013328	60	10	60-180	60	152	GapExp	0	191	2	4	0	distractor	1	600	700	67168	13.328	13.177	13.512
ProbeTrackDT01	18	ProbeTrack	10.4	SCS215a	20100708.112411	20100708.114752	8	0.013328	60	10	60-180	60	113	GapExp	0	192	2	0	1	distractor	0	573	-1000	66168	13.328	13.293	13.363
ProbeTrackDT01	18	ProbeTrack	10.4	SCS215a	20100708.112411	20100708.114757	8	0.013328	60	10	60-180	60	87	GapExp	0	193	2	2	0	distractor	1	547	727	66895	13.328	13.293	13.362
ProbeTrackDT01	18	ProbeTrack	10.4	SCS215a	20100708.112411	20100708.114802	8	0.013328	60	10	60-180	60	90	GapExp	0	194	2	4	1	target	1	494	753	67648	13.328	13.293	13.363
ProbeTrackDT01	18	ProbeTrack	10.4	SCS215a	20100708.112411	20100708.114807	8	0.013328	60	10	60-180	60	164	GapExp	0	195	2	1	0	distractor	1	480	760	68408	13.328	13.292	13.364
ProbeTrackDT01	18	ProbeTrack	10.4	SCS215a	20100708.112411	20100708.114813	8	0.013328	60	10	60-180	60	135	GapExp	0	196	2	0	0	distractor	1	534	733	69141	13.328	13.293	13.363
ProbeTrackDT01	18	ProbeTrack	10.4	SCS215a	20100708.112411	20100708.114819	8	0.013328	60	10	60-180	60	173	GapExp	0	197	2	2	0	distractor	1	600	700	69841	13.328	13.013	13.609
ProbeTrackDT01	18	ProbeTrack	10.4	SCS215a	20100708.112411	20100708.114825	8	0.013328	60	10	60-180	60	106	GapExp	0	198	2	0	1	distractor	0	1666	-1000	68841	13.329	13.290	13.365
ProbeTrackDT01	18	ProbeTrack	10.4	SCS215a	20100708.112411	20100708.114832	8	0.013328	60	10	60-180	60	174	GapExp	0	199	2	0	0	distractor	1	773	614	69455	13.328	13.265	13.390
ProbeTrackDT01	18	ProbeTrack	10.4	SCS215a	20100708.112411	20100708.114838	8	0.013328	60	10	60-180	60	109	GapExp	0	200	2	2	1	target	1	1053	474	69929	13.328	13.290	13.363
ProbeTrackDT01	18	ProbeTrack	10.4	SCS215a	20100708.112411	20100708.115015	8	0.013328	60	10	60-180	60	178	GapExp	0	201	2	2	1	target	1	400	800	70729	13.328	13.155	13.500
ProbeTrackDT01	18	ProbeTrack	10.4	SCS215a	20100708.112411	20100708.115021	8	0.013328	60	10	60-180	60	66	GapExp	0	202	2	2	1	target	1	454	773	71502	13.328	13.293	13.363
ProbeTrackDT01	18	ProbeTrack	10.4	SCS215a	20100708.112411	20100708.115026	8	0.013328	60	10	60-180	60	109	GapExp	0	203	2	2	1	target	1	414	793	72295	13.328	13.293	13.364
ProbeTrackDT01	18	ProbeTrack	10.4	SCS215a	20100708.112411	20100708.115031	8	0.013328	60	10	60-180	60	126	GapExp	0	204	2	1	1	target	1	360	820	73115	13.328	13.293	13.363
ProbeTrackDT01	18	ProbeTrack	10.4	SCS215a	20100708.112411	20100708.115036	8	0.013328	60	10	60-180	60	137	GapExp	0	205	2	2	0	distractor	1	494	753	73868	13.328	13.293	13.367
ProbeTrackDT01	18	ProbeTrack	10.4	SCS215a	20100708.112411	20100708.115042	8	0.013328	60	10	60-180	60	78	GapExp	0	206	2	4	1	target	1	400	800	74668	13.328	13.293	13.363
ProbeTrackDT01	18	ProbeTrack	10.4	SCS215a	20100708.112411	20100708.115047	8	0.013328	60	10	60-180	60	155	GapExp	0	207	2	4	1	target	1	334	833	75501	13.328	13.293	13.363
ProbeTrackDT01	18	ProbeTrack	10.4	SCS215a	20100708.112411	20100708.115053	8	0.013328	60	10	60-180	60	164	GapExp	0	208	2	0	1	distractor	0	387	-1000	74501	13.328	13.293	13.363
ProbeTrackDT01	18	ProbeTrack	10.4	SCS215a	20100708.112411	20100708.115059	8	0.013328	60	10	60-180	60	97	GapExp	0	209	2	0	0	distractor	1	494	753	75254	13.328	13.293	13.363
ProbeTrackDT01	18	ProbeTrack	10.4	SCS215a	20100708.112411	20100708.115104	8	0.013328	60	10	60-180	60	112	GapExp	0	210	2	75	1	target	1	347	827	76081	13.328	13.293	13.363
