exp	sub	code	rev	comp	runtime	trialtime	nstim	refreshdur	cuedur	gapdur	gapOnsetRange	durPostProbe	gapOnsetTime	blocktype	prac	trial	ntargets	soa	probeTarget	resp	acc	rt	pts	tpts	meanFrameDur	minFrameDur	maxFrameDur
ProbeTrackDT01	15	ProbeTrack	10.4	SCS215a	20100707.132519	20100707.132525	8	0.013328	60	0	60-180	60	96	NoGap	1	1	2	75	0	distractor	1	2146	0	0	13.328	13.290	13.363
ProbeTrackDT01	15	ProbeTrack	10.4	SCS215a	20100707.132519	20100707.132533	8	0.013328	60	0	60-180	60	130	NoGap	1	2	2	4	1	target	1	1066	467	467	13.328	13.293	13.364
ProbeTrackDT01	15	ProbeTrack	10.4	SCS215a	20100707.132519	20100707.132539	8	0.013328	60	0	60-180	60	82	NoGap	1	3	2	2	0	distractor	1	893	554	1021	13.328	13.293	13.363
ProbeTrackDT01	15	ProbeTrack	10.4	SCS215a	20100707.132519	20100707.132544	8	0.013328	60	0	60-180	60	72	NoGap	1	4	2	2	0	distractor	1	760	620	1641	13.328	13.293	13.363
ProbeTrackDT01	15	ProbeTrack	10.4	SCS215a	20100707.132519	20100707.132550	8	0.013328	60	0	60-180	60	67	NoGap	1	5	2	0	0	target	0	587	-1000	641	13.328	13.293	13.364
ProbeTrackDT01	15	ProbeTrack	10.4	SCS215a	20100707.132519	20100707.132554	8	0.013328	60	0	60-180	60	72	NoGap	1	6	2	1	1	distractor	0	827	-1000	-359	13.328	13.135	13.522
ProbeTrackDT01	15	ProbeTrack	10.4	SCS215a	20100707.132519	20100707.132559	8	0.013328	60	0	60-180	60	173	NoGap	1	7	2	75	1	target	1	760	620	261	13.328	13.119	13.538
ProbeTrackDT01	15	ProbeTrack	10.4	SCS215a	20100707.132519	20100707.132607	8	0.013328	60	0	60-180	60	169	NoGap	1	8	2	2	1	target	1	907	547	808	13.328	13.251	13.439
ProbeTrackDT01	15	ProbeTrack	10.4	SCS215a	20100707.132519	20100707.132613	8	0.013328	60	0	60-180	60	130	NoGap	1	9	2	1	0	distractor	1	693	654	1462	13.328	13.293	13.363
ProbeTrackDT01	15	ProbeTrack	10.4	SCS215a	20100707.132519	20100707.132619	8	0.013328	60	0	60-180	60	173	NoGap	1	10	2	0	1	target	1	627	687	2149	13.328	13.293	13.363
ProbeTrackDT01	15	ProbeTrack	10.4	SCS215a	20100707.132519	20100707.132625	8	0.013328	60	0	60-180	60	127	NoGap	1	11	2	0	0	distractor	1	680	660	2809	13.328	13.293	13.363
ProbeTrackDT01	15	ProbeTrack	10.4	SCS215a	20100707.132519	20100707.132631	8	0.013328	60	0	60-180	60	91	NoGap	1	12	2	75	0	distractor	1	1800	100	2909	13.328	13.293	13.363
ProbeTrackDT01	15	ProbeTrack	10.4	SCS215a	20100707.132519	20100707.132638	8	0.013328	60	0	60-180	60	159	NoGap	1	13	2	2	1	target	1	600	700	3609	13.328	13.210	13.414
ProbeTrackDT01	15	ProbeTrack	10.4	SCS215a	20100707.132519	20100707.132644	8	0.013328	60	0	60-180	60	121	NoGap	1	14	2	1	1	target	1	547	727	4336	13.328	12.998	13.679
ProbeTrackDT01	15	ProbeTrack	10.4	SCS215a	20100707.132519	20100707.132650	8	0.013328	60	0	60-180	60	83	NoGap	1	15	2	0	1	target	1	707	647	4983	13.328	13.156	13.489
ProbeTrackDT01	15	ProbeTrack	10.4	SCS215a	20100707.132519	20100707.132655	8	0.013328	60	0	60-180	60	108	NoGap	1	16	2	1	0	distractor	1	560	720	5703	13.328	13.151	13.505
ProbeTrackDT01	15	ProbeTrack	10.4	SCS215a	20100707.132519	20100707.132700	8	0.013328	60	0	60-180	60	125	NoGap	1	17	2	2	1	target	1	414	793	6496	13.328	13.221	13.470
ProbeTrackDT01	15	ProbeTrack	10.4	SCS215a	20100707.132519	20100707.132706	8	0.013328	60	0	60-180	60	115	NoGap	1	18	2	1	0	distractor	1	693	654	7150	13.438	13.201	26.905
ProbeTrackDT01	15	ProbeTrack	10.4	SCS215a	20100707.132519	20100707.132711	8	0.013328	60	0	60-180	60	94	NoGap	1	19	2	1	1	target	1	560	720	7870	13.328	13.223	13.433
ProbeTrackDT01	15	ProbeTrack	10.4	SCS215a	20100707.132519	20100707.132716	8	0.013328	60	0	60-180	60	126	NoGap	1	20	2	0	0	distractor	1	680	660	8530	13.328	13.293	13.377
ProbeTrackDT01	15	ProbeTrack	10.4	SCS215a	20100707.132519	20100707.132722	8	0.013328	60	0	60-180	60	64	NoGap	1	21	2	75	1	target	1	534	733	9263	13.328	13.237	13.419
ProbeTrackDT01	15	ProbeTrack	10.4	SCS215a	20100707.132519	20100707.132728	8	0.013328	60	0	60-180	60	152	NoGap	1	22	2	2	0	distractor	1	760	620	9883	13.328	13.293	13.363
ProbeTrackDT01	15	ProbeTrack	10.4	SCS215a	20100707.132519	20100707.132734	8	0.013328	60	0	60-180	60	117	NoGap	1	23	2	0	1	target	1	667	667	10550	13.328	13.293	13.363
ProbeTrackDT01	15	ProbeTrack	10.4	SCS215a	20100707.132519	20100707.132739	8	0.013328	60	0	60-180	60	73	NoGap	1	24	2	2	0	distractor	1	640	680	11230	13.328	13.070	13.553
ProbeTrackDT01	15	ProbeTrack	10.4	SCS215a	20100707.132519	20100707.132744	8	0.013328	60	0	60-180	60	61	NoGap	1	25	2	75	0	distractor	1	560	720	11950	13.328	13.137	13.519
ProbeTrackDT01	15	ProbeTrack	10.4	SCS215a	20100707.132519	20100707.132750	8	0.013328	60	0	60-180	60	106	NoGap	1	26	2	4	0	distractor	1	720	640	12590	13.328	13.228	13.460
ProbeTrackDT01	15	ProbeTrack	10.4	SCS215a	20100707.132519	20100707.132755	8	0.013328	60	0	60-180	60	132	NoGap	1	27	2	1	1	target	1	600	700	13290	13.328	13.091	13.583
ProbeTrackDT01	15	ProbeTrack	10.4	SCS215a	20100707.132519	20100707.132801	8	0.013328	60	0	60-180	60	98	NoGap	1	28	2	75	1	target	1	693	654	13944	13.328	13.290	13.366
ProbeTrackDT01	15	ProbeTrack	10.4	SCS215a	20100707.132519	20100707.132807	8	0.013328	60	0	60-180	60	137	NoGap	1	29	2	2	1	target	1	733	634	14578	13.328	13.194	13.497
ProbeTrackDT01	15	ProbeTrack	10.4	SCS215a	20100707.132519	20100707.132813	8	0.013328	60	0	60-180	60	162	NoGap	1	30	2	1	0	distractor	1	600	700	15278	13.328	13.293	13.363
ProbeTrackDT01	15	ProbeTrack	10.4	SCS215a	20100707.132519	20100707.132819	8	0.013328	60	0	60-180	60	141	NoGap	1	31	2	0	1	target	1	720	640	15918	13.328	13.099	13.524
ProbeTrackDT01	15	ProbeTrack	10.4	SCS215a	20100707.132519	20100707.132825	8	0.013328	60	0	60-180	60	130	NoGap	1	32	2	75	0	distractor	1	520	740	16658	13.328	13.289	13.363
ProbeTrackDT01	15	ProbeTrack	10.4	SCS215a	20100707.132519	20100707.132831	8	0.013328	60	0	60-180	60	162	NoGap	1	33	2	4	1	target	1	747	627	17285	13.328	13.293	13.363
ProbeTrackDT01	15	ProbeTrack	10.4	SCS215a	20100707.132519	20100707.132838	8	0.013328	60	0	60-180	60	113	NoGap	1	34	2	4	0	distractor	1	813	594	17879	13.328	13.146	13.508
ProbeTrackDT01	15	ProbeTrack	10.4	SCS215a	20100707.132519	20100707.132843	8	0.013328	60	0	60-180	60	174	NoGap	1	35	2	75	1	target	1	627	687	18566	13.328	13.277	13.363
ProbeTrackDT01	15	ProbeTrack	10.4	SCS215a	20100707.132519	20100707.132851	8	0.013328	60	0	60-180	60	167	NoGap	1	36	2	0	0	distractor	1	640	680	19246	13.328	13.239	13.452
ProbeTrackDT01	15	ProbeTrack	10.4	SCS215a	20100707.132519	20100707.132857	8	0.013328	60	0	60-180	60	146	NoGap	1	37	2	4	1	target	1	680	660	19906	13.328	13.184	13.472
ProbeTrackDT01	15	ProbeTrack	10.4	SCS215a	20100707.132519	20100707.132903	8	0.013328	60	0	60-180	60	80	NoGap	1	38	2	4	1	target	1	880	560	20466	13.328	13.293	13.363
ProbeTrackDT01	15	ProbeTrack	10.4	SCS215a	20100707.132519	20100707.132908	8	0.013328	60	0	60-180	60	114	NoGap	1	39	2	4	0	distractor	1	573	714	21180	13.328	13.212	13.444
ProbeTrackDT01	15	ProbeTrack	10.4	SCS215a	20100707.132519	20100707.132913	8	0.013328	60	0	60-180	60	82	NoGap	1	40	2	4	0	distractor	1	827	587	21767	13.328	13.293	13.362
ProbeTrackDT01	15	ProbeTrack	10.4	SCS215a	20100707.133001	20100707.133005	8	0.013328	60	10	60-180	60	145	GapPrac	1	1	2	0	1	target	1	947	527	22294	13.328	13.289	13.363
ProbeTrackDT01	15	ProbeTrack	10.4	SCS215a	20100707.133001	20100707.133012	8	0.013328	60	10	60-180	60	171	GapPrac	1	2	2	4	1	target	1	600	700	22994	13.328	13.174	13.515
ProbeTrackDT01	15	ProbeTrack	10.4	SCS215a	20100707.133001	20100707.133018	8	0.013328	60	10	60-180	60	126	GapPrac	1	3	2	1	1	target	1	640	680	23674	13.328	13.293	13.363
ProbeTrackDT01	15	ProbeTrack	10.4	SCS215a	20100707.133001	20100707.133024	8	0.013328	60	10	60-180	60	75	GapPrac	1	4	2	2	1	target	1	800	600	24274	13.328	13.092	13.563
ProbeTrackDT01	15	ProbeTrack	10.4	SCS215a	20100707.133001	20100707.133029	8	0.013328	60	10	60-180	60	83	GapPrac	1	5	2	75	1	distractor	0	640	-1000	23274	13.328	13.293	13.363
ProbeTrackDT01	15	ProbeTrack	10.4	SCS215a	20100707.133001	20100707.133035	8	0.013328	60	10	60-180	60	61	GapPrac	1	6	2	2	1	target	1	680	660	23934	13.328	13.262	13.394
ProbeTrackDT01	15	ProbeTrack	10.4	SCS215a	20100707.133001	20100707.133040	8	0.013328	60	10	60-180	60	145	GapPrac	1	7	2	75	0	distractor	1	640	680	24614	13.328	13.238	13.452
ProbeTrackDT01	15	ProbeTrack	10.4	SCS215a	20100707.133001	20100707.133047	8	0.013328	60	10	60-180	60	132	GapPrac	1	8	2	0	1	target	1	587	707	25321	13.328	13.134	13.522
ProbeTrackDT01	15	ProbeTrack	10.4	SCS215a	20100707.133001	20100707.133053	8	0.013328	60	10	60-180	60	151	GapPrac	1	9	2	1	0	distractor	1	534	733	26054	13.328	13.293	13.366
ProbeTrackDT01	15	ProbeTrack	10.4	SCS215a	20100707.133001	20100707.133059	8	0.013328	60	10	60-180	60	156	GapPrac	1	10	2	4	0	distractor	1	627	687	26741	13.328	13.292	13.363
ProbeTrackDT01	15	ProbeTrack	10.4	SCS215a	20100707.133001	20100707.133105	8	0.013328	60	10	60-180	60	137	GapPrac	1	11	2	2	0	distractor	1	494	753	27494	13.328	13.117	13.538
ProbeTrackDT01	15	ProbeTrack	10.4	SCS215a	20100707.133001	20100707.133111	8	0.013328	60	10	60-180	60	129	GapPrac	1	12	2	4	1	target	1	520	740	28234	13.328	13.163	13.492
ProbeTrackDT01	15	ProbeTrack	10.4	SCS215a	20100707.133001	20100707.133116	8	0.013328	60	10	60-180	60	169	GapPrac	1	13	2	1	0	distractor	1	427	787	29021	13.328	13.041	13.581
ProbeTrackDT01	15	ProbeTrack	10.4	SCS215a	20100707.133001	20100707.133122	8	0.013328	60	10	60-180	60	162	GapPrac	1	14	2	1	1	target	1	893	554	29575	13.328	13.020	13.636
ProbeTrackDT01	15	ProbeTrack	10.4	SCS215a	20100707.133001	20100707.133129	8	0.013328	60	10	60-180	60	167	GapPrac	1	15	2	0	0	distractor	1	733	634	30209	13.328	12.937	13.686
ProbeTrackDT01	15	ProbeTrack	10.4	SCS215a	20100707.133001	20100707.133135	8	0.013328	60	10	60-180	60	117	GapPrac	1	16	2	75	1	target	1	680	660	30869	13.328	12.943	13.678
ProbeTrackDT01	15	ProbeTrack	10.4	SCS215a	20100707.133001	20100707.133142	8	0.013328	60	10	60-180	60	154	GapPrac	1	17	2	2	0	distractor	1	560	720	31589	13.328	13.293	13.363
ProbeTrackDT01	15	ProbeTrack	10.4	SCS215a	20100707.133001	20100707.133148	8	0.013328	60	10	60-180	60	170	GapPrac	1	18	2	4	0	distractor	1	574	713	32302	13.328	13.121	13.533
ProbeTrackDT01	15	ProbeTrack	10.4	SCS215a	20100707.133001	20100707.133154	8	0.013328	60	10	60-180	60	133	GapPrac	1	19	2	0	0	distractor	1	574	713	33015	13.430	13.139	39.822
ProbeTrackDT01	15	ProbeTrack	10.4	SCS215a	20100707.133001	20100707.133200	8	0.013328	60	10	60-180	60	78	GapPrac	1	20	2	75	0	distractor	1	440	780	33795	13.328	13.280	13.409
ProbeTrackDT01	15	ProbeTrack	10.4	SCS215a	20100707.133343	20100707.133347	8	0.013328	60	10	60-180	60	79	GapPrac	1	1	2	4	1	target	1	733	634	34429	13.446	13.293	39.950
ProbeTrackDT01	15	ProbeTrack	10.4	SCS215a	20100707.133343	20100707.133353	8	0.013328	60	10	60-180	60	90	GapPrac	1	2	2	1	1	target	1	427	787	35216	13.328	13.275	13.406
ProbeTrackDT01	15	ProbeTrack	10.4	SCS215a	20100707.133343	20100707.133358	8	0.013328	60	10	60-180	60	177	GapPrac	1	3	2	75	1	target	1	467	767	35983	13.328	13.177	13.479
ProbeTrackDT01	15	ProbeTrack	10.4	SCS215a	20100707.133343	20100707.133405	8	0.013328	60	10	60-180	60	65	GapPrac	1	4	2	4	0	target	0	640	-1000	34983	13.328	13.237	13.453
ProbeTrackDT01	15	ProbeTrack	10.4	SCS215a	20100707.133343	20100707.133410	8	0.013328	60	10	60-180	60	83	GapPrac	1	5	2	2	0	distractor	1	1253	374	35357	13.328	13.218	13.404
ProbeTrackDT01	15	ProbeTrack	10.4	SCS215a	20100707.133343	20100707.133416	8	0.013328	60	10	60-180	60	102	GapPrac	1	6	2	0	0	target	0	374	-1000	34357	13.328	13.293	13.363
ProbeTrackDT01	15	ProbeTrack	10.4	SCS215a	20100707.133343	20100707.133421	8	0.013328	60	10	60-180	60	75	GapPrac	1	7	2	1	1	target	1	320	840	35197	13.328	13.289	13.363
ProbeTrackDT01	15	ProbeTrack	10.4	SCS215a	20100707.133343	20100707.133426	8	0.013328	60	10	60-180	60	147	GapPrac	1	8	2	0	1	distractor	0	414	-1000	34197	13.328	10.753	15.936
ProbeTrackDT01	15	ProbeTrack	10.4	SCS215a	20100707.133343	20100707.133431	8	0.013328	60	10	60-180	60	83	GapPrac	1	9	2	1	0	distractor	1	440	780	34977	13.328	13.153	13.502
ProbeTrackDT01	15	ProbeTrack	10.4	SCS215a	20100707.133343	20100707.133436	8	0.013328	60	10	60-180	60	137	GapPrac	1	10	2	75	1	target	1	387	807	35784	13.328	13.224	13.431
ProbeTrackDT01	15	ProbeTrack	10.4	SCS215a	20100707.133343	20100707.133443	8	0.013328	60	10	60-180	60	102	GapPrac	1	11	2	2	1	distractor	0	360	-1000	34784	13.328	13.239	13.417
ProbeTrackDT01	15	ProbeTrack	10.4	SCS215a	20100707.133343	20100707.133448	8	0.013328	60	10	60-180	60	100	GapPrac	1	12	2	0	1	target	1	534	733	35517	13.328	13.263	13.392
ProbeTrackDT01	15	ProbeTrack	10.4	SCS215a	20100707.133343	20100707.133453	8	0.013328	60	10	60-180	60	92	GapPrac	1	13	2	1	0	target	0	520	-1000	34517	13.328	13.293	13.369
ProbeTrackDT01	15	ProbeTrack	10.4	SCS215a	20100707.133343	20100707.133458	8	0.013328	60	10	60-180	60	150	GapPrac	1	14	2	2	1	distractor	0	720	-1000	33517	13.328	13.142	13.547
ProbeTrackDT01	15	ProbeTrack	10.4	SCS215a	20100707.133343	20100707.133505	8	0.013328	60	10	60-180	60	141	GapPrac	1	15	2	4	0	target	0	653	-1000	32517	13.328	13.004	13.686
ProbeTrackDT01	15	ProbeTrack	10.4	SCS215a	20100707.133343	20100707.133511	8	0.013328	60	10	60-180	60	76	GapPrac	1	16	2	2	0	target	0	1333	-1000	31517	13.328	13.211	13.478
ProbeTrackDT01	15	ProbeTrack	10.4	SCS215a	20100707.133343	20100707.133516	8	0.013328	60	10	60-180	60	96	GapPrac	1	17	2	0	0	target	0	467	-1000	30517	13.328	13.224	13.401
ProbeTrackDT01	15	ProbeTrack	10.4	SCS215a	20100707.133343	20100707.133522	8	0.013328	60	10	60-180	60	112	GapPrac	1	18	2	4	1	distractor	0	360	-1000	29517	13.328	13.156	13.466
ProbeTrackDT01	15	ProbeTrack	10.4	SCS215a	20100707.133343	20100707.133527	8	0.013328	60	10	60-180	60	122	GapPrac	1	19	2	75	0	target	0	387	-1000	28517	13.328	13.048	13.574
ProbeTrackDT01	15	ProbeTrack	10.4	SCS215a	20100707.133343	20100707.133533	8	0.013328	60	10	60-180	60	108	GapPrac	1	20	2	75	0	target	0	494	-1000	27517	13.328	13.230	13.426
ProbeTrackDT01	15	ProbeTrack	10.4	SCS215a	20100707.133658	20100707.133704	8	0.013328	60	10	60-180	60	123	GapExp	1	1	2	2	1	target	1	454	773	28290	13.328	12.899	13.756
ProbeTrackDT01	15	ProbeTrack	10.4	SCS215a	20100707.133658	20100707.133710	8	0.013328	60	10	60-180	60	179	GapExp	1	2	2	4	0	distractor	1	711	645	28935	13.328	13.144	13.512
ProbeTrackDT01	15	ProbeTrack	10.4	SCS215a	20100707.133658	20100707.133716	8	0.013328	60	10	60-180	60	106	GapExp	1	3	2	75	0	distractor	1	534	733	29668	13.328	13.102	13.520
ProbeTrackDT01	15	ProbeTrack	10.4	SCS215a	20100707.133658	20100707.133723	8	0.013328	60	10	60-180	60	92	GapExp	1	4	2	75	1	distractor	0	468	-1000	28668	13.328	13.284	13.370
ProbeTrackDT01	15	ProbeTrack	10.4	SCS215a	20100707.133658	20100707.133729	8	0.013328	60	10	60-180	60	124	GapExp	1	5	2	1	0	distractor	1	560	720	29388	13.328	13.041	13.615
ProbeTrackDT01	15	ProbeTrack	10.4	SCS215a	20100707.133658	20100707.133734	8	0.013328	60	10	60-180	60	153	GapExp	1	6	2	2	0	target	0	680	-1000	28388	13.328	13.213	13.410
ProbeTrackDT01	15	ProbeTrack	10.4	SCS215a	20100707.133658	20100707.133740	8	0.013328	60	10	60-180	60	137	GapExp	1	7	2	1	1	distractor	0	374	-1000	27388	13.328	13.166	13.490
ProbeTrackDT01	15	ProbeTrack	10.4	SCS215a	20100707.133658	20100707.133746	8	0.013328	60	10	60-180	60	107	GapExp	1	8	2	0	0	target	0	1040	-1000	26388	13.328	13.056	13.632
ProbeTrackDT01	15	ProbeTrack	10.4	SCS215a	20100707.133658	20100707.133752	8	0.013328	60	10	60-180	60	153	GapExp	1	9	2	0	1	target	1	534	733	27121	13.328	13.130	13.560
ProbeTrackDT01	15	ProbeTrack	10.4	SCS215a	20100707.133658	20100707.133758	8	0.013328	60	10	60-180	60	64	GapExp	1	10	2	4	1	target	1	773	614	27735	13.390	13.218	26.599
ProbeTrackDT01	15	ProbeTrack	10.4	SCS215a	20100707.133658	20100707.133803	8	0.013328	60	10	60-180	60	131	GapExp	0	11	2	75	1	target	1	560	720	28455	13.328	13.174	13.482
ProbeTrackDT01	15	ProbeTrack	10.4	SCS215a	20100707.133658	20100707.133810	8	0.013328	60	10	60-180	60	141	GapExp	0	12	2	1	0	distractor	1	507	747	29202	13.328	13.268	13.387
ProbeTrackDT01	15	ProbeTrack	10.4	SCS215a	20100707.133658	20100707.133815	8	0.013328	60	10	60-180	60	174	GapExp	0	13	2	75	0	distractor	1	600	700	29902	13.328	13.102	13.554
ProbeTrackDT01	15	ProbeTrack	10.4	SCS215a	20100707.133658	20100707.133823	8	0.013328	60	10	60-180	60	100	GapExp	0	14	2	1	0	distractor	1	707	647	30549	13.328	13.075	13.581
ProbeTrackDT01	15	ProbeTrack	10.4	SCS215a	20100707.133658	20100707.133828	8	0.013328	60	10	60-180	60	175	GapExp	0	15	2	0	1	target	1	1080	460	31009	13.328	13.140	13.549
ProbeTrackDT01	15	ProbeTrack	10.4	SCS215a	20100707.133658	20100707.133835	8	0.013328	60	10	60-180	60	85	GapExp	0	16	2	1	1	distractor	0	640	-1000	30009	13.328	13.291	13.363
ProbeTrackDT01	15	ProbeTrack	10.4	SCS215a	20100707.133658	20100707.133840	8	0.013328	60	10	60-180	60	132	GapExp	0	17	2	75	1	target	1	653	674	30683	13.328	13.110	13.545
ProbeTrackDT01	15	ProbeTrack	10.4	SCS215a	20100707.133658	20100707.133847	8	0.013328	60	10	60-180	60	138	GapExp	0	18	2	4	0	target	0	12688	-1000	29683	13.328	13.158	13.497
ProbeTrackDT01	15	ProbeTrack	10.4	SCS215a	20100707.133658	20100707.133905	8	0.013328	60	10	60-180	60	65	GapExp	0	19	2	75	1	target	1	800	600	30283	13.328	13.151	13.537
ProbeTrackDT01	15	ProbeTrack	10.4	SCS215a	20100707.133658	20100707.133911	8	0.013328	60	10	60-180	60	131	GapExp	0	20	2	75	1	distractor	0	507	-1000	29283	13.328	13.278	13.410
ProbeTrackDT01	15	ProbeTrack	10.4	SCS215a	20100707.133658	20100707.133918	8	0.013328	60	10	60-180	60	122	GapExp	0	21	2	1	0	distractor	1	707	647	29930	13.328	13.293	13.363
ProbeTrackDT01	15	ProbeTrack	10.4	SCS215a	20100707.133658	20100707.133924	8	0.013328	60	10	60-180	60	68	GapExp	0	22	2	2	1	target	1	480	760	30690	13.328	13.102	13.553
ProbeTrackDT01	15	ProbeTrack	10.4	SCS215a	20100707.133658	20100707.133928	8	0.013328	60	10	60-180	60	141	GapExp	0	23	2	75	1	distractor	0	414	-1000	29690	13.328	13.041	13.616
ProbeTrackDT01	15	ProbeTrack	10.4	SCS215a	20100707.133658	20100707.133935	8	0.013328	60	10	60-180	60	150	GapExp	0	24	2	1	0	target	0	480	-1000	28690	13.328	13.149	13.539
ProbeTrackDT01	15	ProbeTrack	10.4	SCS215a	20100707.133658	20100707.133941	8	0.013328	60	10	60-180	60	164	GapExp	0	25	2	4	0	distractor	1	933	534	29224	13.328	13.293	13.367
ProbeTrackDT01	15	ProbeTrack	10.4	SCS215a	20100707.133658	20100707.133948	8	0.013328	60	10	60-180	60	129	GapExp	0	26	2	4	0	target	0	1613	-1000	28224	13.328	13.288	13.363
ProbeTrackDT01	15	ProbeTrack	10.4	SCS215a	20100707.133658	20100707.133954	8	0.013328	60	10	60-180	60	109	GapExp	0	27	2	0	0	target	0	560	-1000	27224	13.328	13.162	13.492
ProbeTrackDT01	15	ProbeTrack	10.4	SCS215a	20100707.133658	20100707.134000	8	0.013328	60	10	60-180	60	138	GapExp	0	28	2	0	0	target	0	6371	-1000	26224	13.328	13.152	13.537
ProbeTrackDT01	15	ProbeTrack	10.4	SCS215a	20100707.133658	20100707.134011	8	0.013328	60	10	60-180	60	117	GapExp	0	29	2	75	1	target	1	467	767	26991	13.328	13.210	13.480
ProbeTrackDT01	15	ProbeTrack	10.4	SCS215a	20100707.133658	20100707.134018	8	0.013328	60	10	60-180	60	77	GapExp	0	30	2	4	0	target	0	707	-1000	25991	13.328	13.293	13.363
ProbeTrackDT01	15	ProbeTrack	10.4	SCS215a	20100707.133658	20100707.134023	8	0.013328	60	10	60-180	60	110	GapExp	0	31	2	1	1	target	1	1480	260	26251	13.328	13.293	13.363
ProbeTrackDT01	15	ProbeTrack	10.4	SCS215a	20100707.133658	20100707.134029	8	0.013328	60	10	60-180	60	176	GapExp	0	32	2	2	0	target	0	374	-1000	25251	13.328	13.272	13.386
ProbeTrackDT01	15	ProbeTrack	10.4	SCS215a	20100707.133658	20100707.134036	8	0.013328	60	10	60-180	60	65	GapExp	0	33	2	1	0	distractor	1	507	747	25998	13.328	13.197	13.424
ProbeTrackDT01	15	ProbeTrack	10.4	SCS215a	20100707.133658	20100707.134040	8	0.013328	60	10	60-180	60	114	GapExp	0	34	2	1	1	target	1	454	773	26771	13.328	13.293	13.363
ProbeTrackDT01	15	ProbeTrack	10.4	SCS215a	20100707.133658	20100707.134046	8	0.013328	60	10	60-180	60	90	GapExp	0	35	2	0	1	target	1	1200	400	27171	13.328	13.130	13.527
ProbeTrackDT01	15	ProbeTrack	10.4	SCS215a	20100707.133658	20100707.134052	8	0.013328	60	10	60-180	60	115	GapExp	0	36	2	4	1	distractor	0	640	-1000	26171	13.328	13.207	13.450
ProbeTrackDT01	15	ProbeTrack	10.4	SCS215a	20100707.133658	20100707.134057	8	0.013328	60	10	60-180	60	130	GapExp	0	37	2	75	0	target	0	1346	-1000	25171	13.328	13.130	13.526
ProbeTrackDT01	15	ProbeTrack	10.4	SCS215a	20100707.133658	20100707.134105	8	0.013328	60	10	60-180	60	61	GapExp	0	38	2	0	1	target	1	600	700	25871	13.328	13.293	13.363
ProbeTrackDT01	15	ProbeTrack	10.4	SCS215a	20100707.133658	20100707.134109	8	0.013328	60	10	60-180	60	111	GapExp	0	39	2	1	1	target	1	1027	487	26358	13.328	13.293	13.363
ProbeTrackDT01	15	ProbeTrack	10.4	SCS215a	20100707.133658	20100707.134115	8	0.013328	60	10	60-180	60	125	GapExp	0	40	2	1	1	distractor	0	494	-1000	25358	13.328	13.191	13.499
ProbeTrackDT01	15	ProbeTrack	10.4	SCS215a	20100707.133658	20100707.134121	8	0.013328	60	10	60-180	60	75	GapExp	0	41	2	0	1	target	1	480	760	26118	13.328	13.290	13.365
ProbeTrackDT01	15	ProbeTrack	10.4	SCS215a	20100707.133658	20100707.134126	8	0.013328	60	10	60-180	60	133	GapExp	0	42	2	4	1	target	1	667	667	26785	13.328	13.293	13.363
ProbeTrackDT01	15	ProbeTrack	10.4	SCS215a	20100707.133658	20100707.134132	8	0.013328	60	10	60-180	60	86	GapExp	0	43	2	0	0	target	0	640	-1000	25785	13.328	13.293	13.363
ProbeTrackDT01	15	ProbeTrack	10.4	SCS215a	20100707.133658	20100707.134137	8	0.013328	60	10	60-180	60	136	GapExp	0	44	2	4	1	target	1	414	793	26578	13.328	13.105	13.495
ProbeTrackDT01	15	ProbeTrack	10.4	SCS215a	20100707.133658	20100707.134143	8	0.013328	60	10	60-180	60	163	GapExp	0	45	2	2	0	target	0	680	-1000	25578	13.328	13.293	13.363
ProbeTrackDT01	15	ProbeTrack	10.4	SCS215a	20100707.133658	20100707.134149	8	0.013328	60	10	60-180	60	84	GapExp	0	46	2	4	0	target	0	574	-1000	24578	13.328	13.291	13.363
ProbeTrackDT01	15	ProbeTrack	10.4	SCS215a	20100707.133658	20100707.134154	8	0.013328	60	10	60-180	60	160	GapExp	0	47	2	2	0	target	0	587	-1000	23578	13.328	13.293	13.364
ProbeTrackDT01	15	ProbeTrack	10.4	SCS215a	20100707.133658	20100707.134200	8	0.013328	60	10	60-180	60	67	GapExp	0	48	2	0	0	distractor	1	880	560	24138	13.328	13.293	13.363
ProbeTrackDT01	15	ProbeTrack	10.4	SCS215a	20100707.133658	20100707.134205	8	0.013328	60	10	60-180	60	132	GapExp	0	49	2	75	1	target	1	587	707	24845	13.328	13.138	13.551
ProbeTrackDT01	15	ProbeTrack	10.4	SCS215a	20100707.133658	20100707.134212	8	0.013328	60	10	60-180	60	149	GapExp	0	50	2	4	1	target	1	454	773	25618	13.328	13.293	13.363
ProbeTrackDT01	15	ProbeTrack	10.4	SCS215a	20100707.133658	20100707.134236	8	0.013328	60	10	60-180	60	89	GapExp	0	51	2	2	0	target	0	454	-1000	24618	13.328	13.293	13.363
ProbeTrackDT01	15	ProbeTrack	10.4	SCS215a	20100707.133658	20100707.134241	8	0.013328	60	10	60-180	60	91	GapExp	0	52	2	1	1	target	1	574	713	25331	13.328	13.291	13.363
ProbeTrackDT01	15	ProbeTrack	10.4	SCS215a	20100707.133658	20100707.134246	8	0.013328	60	10	60-180	60	119	GapExp	0	53	2	4	1	target	1	653	674	26005	13.328	13.266	13.409
ProbeTrackDT01	15	ProbeTrack	10.4	SCS215a	20100707.133658	20100707.134251	8	0.013328	60	10	60-180	60	93	GapExp	0	54	2	1	0	target	0	760	-1000	25005	13.328	13.292	13.397
ProbeTrackDT01	15	ProbeTrack	10.4	SCS215a	20100707.133658	20100707.134257	8	0.013328	60	10	60-180	60	179	GapExp	0	55	2	0	0	target	0	987	-1000	24005	13.328	13.287	13.403
ProbeTrackDT01	15	ProbeTrack	10.4	SCS215a	20100707.133658	20100707.134304	8	0.013328	60	10	60-180	60	90	GapExp	0	56	2	75	0	target	0	667	-1000	23005	13.328	13.293	13.363
ProbeTrackDT01	15	ProbeTrack	10.4	SCS215a	20100707.133658	20100707.134310	8	0.013328	60	10	60-180	60	130	GapExp	0	57	2	0	1	target	1	480	760	23765	13.328	13.257	13.397
ProbeTrackDT01	15	ProbeTrack	10.4	SCS215a	20100707.133658	20100707.134315	8	0.013328	60	10	60-180	60	128	GapExp	0	58	2	75	0	target	0	-13	-1000	22765	13.328	13.293	13.363
ProbeTrackDT01	15	ProbeTrack	10.4	SCS215a	20100707.133658	20100707.134322	8	0.013328	60	10	60-180	60	75	GapExp	0	59	2	0	0	distractor	1	600	700	23465	13.328	13.293	13.363
ProbeTrackDT01	15	ProbeTrack	10.4	SCS215a	20100707.133658	20100707.134327	8	0.013328	60	10	60-180	60	128	GapExp	0	60	2	0	0	target	0	720	-1000	22465	13.328	13.292	13.364
ProbeTrackDT01	15	ProbeTrack	10.4	SCS215a	20100707.133658	20100707.134332	8	0.013328	60	10	60-180	60	155	GapExp	0	61	2	75	1	target	1	507	747	23212	13.328	13.135	13.521
ProbeTrackDT01	15	ProbeTrack	10.4	SCS215a	20100707.133658	20100707.134339	8	0.013328	60	10	60-180	60	65	GapExp	0	62	2	75	0	target	0	600	-1000	22212	13.328	13.290	13.367
ProbeTrackDT01	15	ProbeTrack	10.4	SCS215a	20100707.133658	20100707.134345	8	0.013328	60	10	60-180	60	95	GapExp	0	63	2	4	1	target	1	1320	340	22552	13.328	13.258	13.398
ProbeTrackDT01	15	ProbeTrack	10.4	SCS215a	20100707.133658	20100707.134351	8	0.013328	60	10	60-180	60	174	GapExp	0	64	2	2	0	target	0	560	-1000	21552	13.328	13.194	13.462
ProbeTrackDT01	15	ProbeTrack	10.4	SCS215a	20100707.133658	20100707.134358	8	0.013328	60	10	60-180	60	106	GapExp	0	65	2	2	1	target	1	614	693	22245	13.328	13.289	13.366
ProbeTrackDT01	15	ProbeTrack	10.4	SCS215a	20100707.133658	20100707.134403	8	0.013328	60	10	60-180	60	133	GapExp	0	66	2	75	0	target	0	467	-1000	21245	13.328	13.292	13.365
ProbeTrackDT01	15	ProbeTrack	10.4	SCS215a	20100707.133658	20100707.134410	8	0.013328	60	10	60-180	60	143	GapExp	0	67	2	2	0	target	0	574	-1000	20245	13.328	13.288	13.395
ProbeTrackDT01	15	ProbeTrack	10.4	SCS215a	20100707.133658	20100707.134415	8	0.013328	60	10	60-180	60	65	GapExp	0	68	2	0	0	distractor	1	1227	387	20632	13.328	13.293	13.363
ProbeTrackDT01	15	ProbeTrack	10.4	SCS215a	20100707.133658	20100707.134421	8	0.013328	60	10	60-180	60	74	GapExp	0	69	2	1	1	distractor	0	574	-1000	19632	13.328	13.292	13.364
ProbeTrackDT01	15	ProbeTrack	10.4	SCS215a	20100707.133658	20100707.134426	8	0.013328	60	10	60-180	60	131	GapExp	0	70	2	2	0	target	0	520	-1000	18632	13.328	13.293	13.363
ProbeTrackDT01	15	ProbeTrack	10.4	SCS215a	20100707.133658	20100707.134432	8	0.013328	60	10	60-180	60	88	GapExp	0	71	2	4	0	target	0	1373	-1000	17632	13.328	13.197	13.460
ProbeTrackDT01	15	ProbeTrack	10.4	SCS215a	20100707.133658	20100707.134438	8	0.013328	60	10	60-180	60	77	GapExp	0	72	2	75	1	target	1	454	773	18405	13.328	13.293	13.363
ProbeTrackDT01	15	ProbeTrack	10.4	SCS215a	20100707.133658	20100707.134443	8	0.013328	60	10	60-180	60	99	GapExp	0	73	2	1	0	distractor	1	1160	420	18825	13.328	13.194	13.462
ProbeTrackDT01	15	ProbeTrack	10.4	SCS215a	20100707.133658	20100707.134449	8	0.013328	60	10	60-180	60	72	GapExp	0	74	2	1	0	target	0	574	-1000	17825	13.328	13.293	13.363
ProbeTrackDT01	15	ProbeTrack	10.4	SCS215a	20100707.133658	20100707.134454	8	0.013328	60	10	60-180	60	67	GapExp	0	75	2	4	1	distractor	0	613	-1000	16825	13.328	13.293	13.363
ProbeTrackDT01	15	ProbeTrack	10.4	SCS215a	20100707.133658	20100707.134459	8	0.013328	60	10	60-180	60	71	GapExp	0	76	2	0	1	target	1	493	754	17579	13.328	13.293	13.363
ProbeTrackDT01	15	ProbeTrack	10.4	SCS215a	20100707.133658	20100707.134504	8	0.013328	60	10	60-180	60	137	GapExp	0	77	2	4	1	target	1	1493	254	17833	13.328	13.233	13.422
ProbeTrackDT01	15	ProbeTrack	10.4	SCS215a	20100707.133658	20100707.134511	8	0.013328	60	10	60-180	60	119	GapExp	0	78	2	4	1	target	1	400	800	18633	13.328	13.293	13.363
ProbeTrackDT01	15	ProbeTrack	10.4	SCS215a	20100707.133658	20100707.134516	8	0.013328	60	10	60-180	60	149	GapExp	0	79	2	4	0	distractor	1	973	514	19147	13.328	13.217	13.435
ProbeTrackDT01	15	ProbeTrack	10.4	SCS215a	20100707.133658	20100707.134523	8	0.013328	60	10	60-180	60	79	GapExp	0	80	2	4	1	target	1	813	594	19741	13.328	13.292	13.363
ProbeTrackDT01	15	ProbeTrack	10.4	SCS215a	20100707.133658	20100707.134528	8	0.013328	60	10	60-180	60	137	GapExp	0	81	2	1	1	target	1	987	507	20248	13.328	13.192	13.497
ProbeTrackDT01	15	ProbeTrack	10.4	SCS215a	20100707.133658	20100707.134534	8	0.013328	60	10	60-180	60	70	GapExp	0	82	2	1	0	target	0	-13	-1000	19248	13.328	13.234	13.421
ProbeTrackDT01	15	ProbeTrack	10.4	SCS215a	20100707.133658	20100707.134538	8	0.013328	60	10	60-180	60	168	GapExp	0	83	2	0	1	target	1	787	607	19855	13.328	13.293	13.363
ProbeTrackDT01	15	ProbeTrack	10.4	SCS215a	20100707.133658	20100707.134545	8	0.013328	60	10	60-180	60	109	GapExp	0	84	2	0	0	target	0	534	-1000	18855	13.328	13.142	13.548
ProbeTrackDT01	15	ProbeTrack	10.4	SCS215a	20100707.133658	20100707.134550	8	0.013328	60	10	60-180	60	76	GapExp	0	85	2	75	1	distractor	0	560	-1000	17855	13.328	13.146	13.512
ProbeTrackDT01	15	ProbeTrack	10.4	SCS215a	20100707.133658	20100707.134556	8	0.013328	60	10	60-180	60	90	GapExp	0	86	2	2	0	target	0	3865	-1000	16855	13.328	13.115	13.540
ProbeTrackDT01	15	ProbeTrack	10.4	SCS215a	20100707.133658	20100707.134605	8	0.013328	60	10	60-180	60	120	GapExp	0	87	2	4	0	distractor	1	427	787	17642	13.328	13.293	13.363
ProbeTrackDT01	15	ProbeTrack	10.4	SCS215a	20100707.133658	20100707.134610	8	0.013328	60	10	60-180	60	163	GapExp	0	88	2	1	0	distractor	1	680	660	18302	13.328	13.293	13.363
ProbeTrackDT01	15	ProbeTrack	10.4	SCS215a	20100707.133658	20100707.134616	8	0.013328	60	10	60-180	60	68	GapExp	0	89	2	1	1	target	1	600	700	19002	13.328	13.293	13.367
ProbeTrackDT01	15	ProbeTrack	10.4	SCS215a	20100707.133658	20100707.134621	8	0.013328	60	10	60-180	60	114	GapExp	0	90	2	1	0	target	0	494	-1000	18002	13.328	13.293	13.363
ProbeTrackDT01	15	ProbeTrack	10.4	SCS215a	20100707.133658	20100707.134627	8	0.013328	60	10	60-180	60	145	GapExp	0	91	2	2	0	distractor	1	640	680	18682	13.328	13.233	13.423
ProbeTrackDT01	15	ProbeTrack	10.4	SCS215a	20100707.133658	20100707.134633	8	0.013328	60	10	60-180	60	140	GapExp	0	92	2	4	0	target	0	1346	-1000	17682	13.328	13.293	13.363
ProbeTrackDT01	15	ProbeTrack	10.4	SCS215a	20100707.133658	20100707.134639	8	0.013328	60	10	60-180	60	166	GapExp	0	93	2	4	0	target	0	1813	-1000	16682	13.328	13.096	13.526
ProbeTrackDT01	15	ProbeTrack	10.4	SCS215a	20100707.133658	20100707.134647	8	0.013328	60	10	60-180	60	110	GapExp	0	94	2	4	0	distractor	1	440	780	17462	13.328	13.293	13.363
ProbeTrackDT01	15	ProbeTrack	10.4	SCS215a	20100707.133658	20100707.134652	8	0.013328	60	10	60-180	60	167	GapExp	0	95	2	2	0	distractor	1	640	680	18142	13.328	13.246	13.431
ProbeTrackDT01	15	ProbeTrack	10.4	SCS215a	20100707.133658	20100707.134659	8	0.013328	60	10	60-180	60	91	GapExp	0	96	2	4	0	distractor	1	387	807	18949	13.328	13.042	13.648
ProbeTrackDT01	15	ProbeTrack	10.4	SCS215a	20100707.133658	20100707.134704	8	0.013328	60	10	60-180	60	81	GapExp	0	97	2	1	1	distractor	0	400	-1000	17949	13.328	13.084	13.572
ProbeTrackDT01	15	ProbeTrack	10.4	SCS215a	20100707.133658	20100707.134709	8	0.013328	60	10	60-180	60	129	GapExp	0	98	2	2	0	target	0	360	-1000	16949	13.328	13.293	13.365
ProbeTrackDT01	15	ProbeTrack	10.4	SCS215a	20100707.133658	20100707.134714	8	0.013328	60	10	60-180	60	103	GapExp	0	99	2	4	0	distractor	1	573	714	17663	13.328	13.290	13.364
ProbeTrackDT01	15	ProbeTrack	10.4	SCS215a	20100707.133658	20100707.134719	8	0.013328	60	10	60-180	60	164	GapExp	0	100	2	75	0	target	0	1493	-1000	16663	13.328	13.212	13.409
ProbeTrackDT01	15	ProbeTrack	10.4	SCS215a	20100707.133658	20100707.134756	8	0.013328	60	10	60-180	60	134	GapExp	0	101	2	2	0	distractor	1	747	627	17290	13.328	13.201	13.454
ProbeTrackDT01	15	ProbeTrack	10.4	SCS215a	20100707.133658	20100707.134802	8	0.013328	60	10	60-180	60	110	GapExp	0	102	2	1	1	distractor	0	400	-1000	16290	13.328	13.182	13.507
ProbeTrackDT01	15	ProbeTrack	10.4	SCS215a	20100707.133658	20100707.134807	8	0.013328	60	10	60-180	60	122	GapExp	0	103	2	4	0	target	0	1800	-1000	15290	13.328	12.967	13.723
ProbeTrackDT01	15	ProbeTrack	10.4	SCS215a	20100707.133658	20100707.134814	8	0.013328	60	10	60-180	60	177	GapExp	0	104	2	0	0	distractor	1	507	747	16037	13.328	13.293	13.365
ProbeTrackDT01	15	ProbeTrack	10.4	SCS215a	20100707.133658	20100707.134820	8	0.013328	60	10	60-180	60	90	GapExp	0	105	2	2	1	target	1	787	607	16644	13.328	13.205	13.483
ProbeTrackDT01	15	ProbeTrack	10.4	SCS215a	20100707.133658	20100707.134826	8	0.013328	60	10	60-180	60	143	GapExp	0	106	2	4	1	target	1	587	707	17351	13.328	13.134	13.555
ProbeTrackDT01	15	ProbeTrack	10.4	SCS215a	20100707.133658	20100707.134832	8	0.013328	60	10	60-180	60	126	GapExp	0	107	2	2	1	target	1	1080	460	17811	13.328	13.278	13.378
ProbeTrackDT01	15	ProbeTrack	10.4	SCS215a	20100707.133658	20100707.134838	8	0.013328	60	10	60-180	60	152	GapExp	0	108	2	1	0	target	0	680	-1000	16811	13.328	13.222	13.401
ProbeTrackDT01	15	ProbeTrack	10.4	SCS215a	20100707.133658	20100707.134844	8	0.013328	60	10	60-180	60	102	GapExp	0	109	2	0	1	distractor	0	1933	-1000	15811	13.328	13.130	13.526
ProbeTrackDT01	15	ProbeTrack	10.4	SCS215a	20100707.133658	20100707.134851	8	0.013328	60	10	60-180	60	76	GapExp	0	110	2	75	0	target	0	640	-1000	14811	13.328	13.124	13.565
ProbeTrackDT01	15	ProbeTrack	10.4	SCS215a	20100707.133658	20100707.134857	8	0.013328	60	10	60-180	60	97	GapExp	0	111	2	1	0	distractor	1	747	627	15438	13.328	13.292	13.367
ProbeTrackDT01	15	ProbeTrack	10.4	SCS215a	20100707.133658	20100707.134902	8	0.013328	60	10	60-180	60	76	GapExp	0	112	2	75	1	target	1	654	673	16111	13.328	13.148	13.507
ProbeTrackDT01	15	ProbeTrack	10.4	SCS215a	20100707.133658	20100707.134908	8	0.013328	60	10	60-180	60	114	GapExp	0	113	2	2	1	target	1	600	700	16811	13.328	13.129	13.561
ProbeTrackDT01	15	ProbeTrack	10.4	SCS215a	20100707.133658	20100707.134914	8	0.013328	60	10	60-180	60	88	GapExp	0	114	2	75	1	target	1	440	780	17591	13.328	13.272	13.368
ProbeTrackDT01	15	ProbeTrack	10.4	SCS215a	20100707.133658	20100707.134920	8	0.013328	60	10	60-180	60	162	GapExp	0	115	2	1	0	distractor	1	640	680	18271	13.328	13.106	13.583
ProbeTrackDT01	15	ProbeTrack	10.4	SCS215a	20100707.133658	20100707.134926	8	0.013328	60	10	60-180	60	174	GapExp	0	116	2	1	1	target	1	640	680	18951	13.328	13.210	13.446
ProbeTrackDT01	15	ProbeTrack	10.4	SCS215a	20100707.133658	20100707.134932	8	0.013328	60	10	60-180	60	179	GapExp	0	117	2	75	0	target	0	747	-1000	17951	13.328	13.230	13.426
ProbeTrackDT01	15	ProbeTrack	10.4	SCS215a	20100707.133658	20100707.134940	8	0.013328	60	10	60-180	60	170	GapExp	0	118	2	1	1	target	1	507	747	18698	13.328	13.182	13.474
ProbeTrackDT01	15	ProbeTrack	10.4	SCS215a	20100707.133658	20100707.134946	8	0.013328	60	10	60-180	60	108	GapExp	0	119	2	4	0	target	0	747	-1000	17698	13.328	13.123	13.567
ProbeTrackDT01	15	ProbeTrack	10.4	SCS215a	20100707.133658	20100707.134952	8	0.013328	60	10	60-180	60	134	GapExp	0	120	2	0	0	distractor	1	614	693	18391	13.327	13.055	13.625
ProbeTrackDT01	15	ProbeTrack	10.4	SCS215a	20100707.133658	20100707.134958	8	0.013328	60	10	60-180	60	116	GapExp	0	121	2	4	1	target	1	600	700	19091	13.328	13.170	13.455
ProbeTrackDT01	15	ProbeTrack	10.4	SCS215a	20100707.133658	20100707.135003	8	0.013328	60	10	60-180	60	173	GapExp	0	122	2	4	0	distractor	1	480	760	19851	13.328	12.979	13.712
ProbeTrackDT01	15	ProbeTrack	10.4	SCS215a	20100707.133658	20100707.135009	8	0.013328	60	10	60-180	60	74	GapExp	0	123	2	0	0	distractor	1	720	640	20491	13.328	12.880	13.810
ProbeTrackDT01	15	ProbeTrack	10.4	SCS215a	20100707.133658	20100707.135014	8	0.013328	60	10	60-180	60	134	GapExp	0	124	2	0	0	target	0	560	-1000	19491	13.328	13.133	13.521
ProbeTrackDT01	15	ProbeTrack	10.4	SCS215a	20100707.133658	20100707.135020	8	0.013328	60	10	60-180	60	152	GapExp	0	125	2	4	0	target	0	560	-1000	18491	13.328	13.087	13.568
ProbeTrackDT01	15	ProbeTrack	10.4	SCS215a	20100707.133658	20100707.135026	8	0.013328	60	10	60-180	60	67	GapExp	0	126	2	0	0	target	0	760	-1000	17491	13.328	13.289	13.363
ProbeTrackDT01	15	ProbeTrack	10.4	SCS215a	20100707.133658	20100707.135031	8	0.013328	60	10	60-180	60	105	GapExp	0	127	2	1	1	target	1	1373	314	17805	13.328	13.124	13.532
ProbeTrackDT01	15	ProbeTrack	10.4	SCS215a	20100707.133658	20100707.135037	8	0.013328	60	10	60-180	60	84	GapExp	0	128	2	0	1	target	1	600	700	18505	13.328	13.033	13.590
ProbeTrackDT01	15	ProbeTrack	10.4	SCS215a	20100707.133658	20100707.135043	8	0.013328	60	10	60-180	60	124	GapExp	0	129	2	4	1	target	1	480	760	19265	13.328	13.293	13.363
ProbeTrackDT01	15	ProbeTrack	10.4	SCS215a	20100707.133658	20100707.135048	8	0.013328	60	10	60-180	60	143	GapExp	0	130	2	1	0	distractor	1	693	654	19919	13.328	13.093	13.563
ProbeTrackDT01	15	ProbeTrack	10.4	SCS215a	20100707.133658	20100707.135054	8	0.013328	60	10	60-180	60	74	GapExp	0	131	2	2	1	target	1	534	733	20652	13.328	13.183	13.473
ProbeTrackDT01	15	ProbeTrack	10.4	SCS215a	20100707.133658	20100707.135059	8	0.013328	60	10	60-180	60	93	GapExp	0	132	2	1	1	target	1	733	634	21286	13.328	13.293	13.363
ProbeTrackDT01	15	ProbeTrack	10.4	SCS215a	20100707.133658	20100707.135104	8	0.013328	60	10	60-180	60	129	GapExp	0	133	2	75	0	target	0	387	-1000	20286	13.328	13.162	13.493
ProbeTrackDT01	15	ProbeTrack	10.4	SCS215a	20100707.133658	20100707.135111	8	0.013328	60	10	60-180	60	116	GapExp	0	134	2	2	1	target	1	507	747	21033	13.328	13.135	13.521
ProbeTrackDT01	15	ProbeTrack	10.4	SCS215a	20100707.133658	20100707.135116	8	0.013328	60	10	60-180	60	180	GapExp	0	135	2	75	0	distractor	1	507	747	21780	13.328	13.007	13.650
ProbeTrackDT01	15	ProbeTrack	10.4	SCS215a	20100707.133658	20100707.135124	8	0.013328	60	10	60-180	60	106	GapExp	0	136	2	75	0	distractor	1	574	713	22493	13.328	13.118	13.503
ProbeTrackDT01	15	ProbeTrack	10.4	SCS215a	20100707.133658	20100707.135130	8	0.013328	60	10	60-180	60	83	GapExp	0	137	2	2	1	target	1	1027	487	22980	13.328	13.292	13.363
ProbeTrackDT01	15	ProbeTrack	10.4	SCS215a	20100707.133658	20100707.135136	8	0.013328	60	10	60-180	60	167	GapExp	0	138	2	2	1	target	1	547	727	23707	13.328	13.293	13.363
ProbeTrackDT01	15	ProbeTrack	10.4	SCS215a	20100707.133658	20100707.135142	8	0.013328	60	10	60-180	60	147	GapExp	0	139	2	75	1	target	1	507	747	24454	13.328	13.058	13.606
ProbeTrackDT01	15	ProbeTrack	10.4	SCS215a	20100707.133658	20100707.135149	8	0.013328	60	10	60-180	60	78	GapExp	0	140	2	0	1	target	1	693	654	25108	13.389	12.881	27.069
ProbeTrackDT01	15	ProbeTrack	10.4	SCS215a	20100707.133658	20100707.135154	8	0.013328	60	10	60-180	60	102	GapExp	0	141	2	2	1	target	1	1773	114	25222	13.328	13.180	13.510
ProbeTrackDT01	15	ProbeTrack	10.4	SCS215a	20100707.133658	20100707.135200	8	0.013328	60	10	60-180	60	143	GapExp	0	142	2	75	1	target	1	613	694	25916	13.328	13.158	13.464
ProbeTrackDT01	15	ProbeTrack	10.4	SCS215a	20100707.133658	20100707.135207	8	0.013328	60	10	60-180	60	156	GapExp	0	143	2	75	1	target	1	520	740	26656	13.328	13.265	13.391
ProbeTrackDT01	15	ProbeTrack	10.4	SCS215a	20100707.133658	20100707.135214	8	0.013328	60	10	60-180	60	126	GapExp	0	144	2	4	1	target	1	347	827	27483	13.328	13.054	13.602
ProbeTrackDT01	15	ProbeTrack	10.4	SCS215a	20100707.133658	20100707.135220	8	0.013328	60	10	60-180	60	155	GapExp	0	145	2	0	0	target	0	680	-1000	26483	13.328	12.990	13.699
ProbeTrackDT01	15	ProbeTrack	10.4	SCS215a	20100707.133658	20100707.135226	8	0.013328	60	10	60-180	60	93	GapExp	0	146	2	75	1	target	1	640	680	27163	13.328	13.293	13.367
ProbeTrackDT01	15	ProbeTrack	10.4	SCS215a	20100707.133658	20100707.135232	8	0.013328	60	10	60-180	60	90	GapExp	0	147	2	2	1	target	1	387	807	27970	13.328	13.139	13.483
ProbeTrackDT01	15	ProbeTrack	10.4	SCS215a	20100707.133658	20100707.135237	8	0.013328	60	10	60-180	60	72	GapExp	0	148	2	75	1	target	1	387	807	28777	13.328	13.291	13.365
ProbeTrackDT01	15	ProbeTrack	10.4	SCS215a	20100707.133658	20100707.135243	8	0.013328	60	10	60-180	60	84	GapExp	0	149	2	2	1	target	1	507	747	29524	13.328	13.151	13.505
ProbeTrackDT01	15	ProbeTrack	10.4	SCS215a	20100707.133658	20100707.135248	8	0.013328	60	10	60-180	60	138	GapExp	0	150	2	75	0	distractor	1	614	693	30217	13.328	13.293	13.363
ProbeTrackDT01	15	ProbeTrack	10.4	SCS215a	20100707.133658	20100707.135336	8	0.013328	60	10	60-180	60	119	GapExp	0	151	2	75	1	target	1	454	773	30990	13.328	13.128	13.506
ProbeTrackDT01	15	ProbeTrack	10.4	SCS215a	20100707.133658	20100707.135343	8	0.013328	60	10	60-180	60	79	GapExp	0	152	2	2	1	target	1	400	800	31790	13.328	13.212	13.409
ProbeTrackDT01	15	ProbeTrack	10.4	SCS215a	20100707.133658	20100707.135347	8	0.013328	60	10	60-180	60	110	GapExp	0	153	2	0	1	target	1	693	654	32444	13.381	12.908	26.623
ProbeTrackDT01	15	ProbeTrack	10.4	SCS215a	20100707.133658	20100707.135353	8	0.013328	60	10	60-180	60	71	GapExp	0	154	2	2	1	target	1	667	667	33111	13.518	13.103	40.244
ProbeTrackDT01	15	ProbeTrack	10.4	SCS215a	20100707.133658	20100707.135358	8	0.013328	60	10	60-180	60	168	GapExp	0	155	2	4	0	distractor	1	600	700	33811	13.328	13.292	13.364
ProbeTrackDT01	15	ProbeTrack	10.4	SCS215a	20100707.133658	20100707.135404	8	0.013328	60	10	60-180	60	66	GapExp	0	156	2	2	1	target	1	867	567	34378	13.328	13.293	13.363
ProbeTrackDT01	15	ProbeTrack	10.4	SCS215a	20100707.133658	20100707.135409	8	0.013328	60	10	60-180	60	86	GapExp	0	157	2	1	1	target	1	387	807	35185	13.525	13.293	40.001
ProbeTrackDT01	15	ProbeTrack	10.4	SCS215a	20100707.133658	20100707.135414	8	0.013328	60	10	60-180	60	127	GapExp	0	158	2	1	1	distractor	0	613	-1000	34185	13.328	13.186	13.471
ProbeTrackDT01	15	ProbeTrack	10.4	SCS215a	20100707.133658	20100707.135420	8	0.013328	60	10	60-180	60	62	GapExp	0	159	2	1	0	target	0	2972	-1000	33185	13.392	13.293	26.689
ProbeTrackDT01	15	ProbeTrack	10.4	SCS215a	20100707.133658	20100707.135427	8	0.013328	60	10	60-180	60	92	GapExp	0	160	2	1	1	target	1	560	720	33905	13.448	13.228	39.884
ProbeTrackDT01	15	ProbeTrack	10.4	SCS215a	20100707.133658	20100707.135433	8	0.013328	60	10	60-180	60	143	GapExp	0	161	2	0	1	target	1	640	680	34585	13.328	13.247	13.444
ProbeTrackDT01	15	ProbeTrack	10.4	SCS215a	20100707.133658	20100707.135438	8	0.013328	60	10	60-180	60	70	GapExp	0	162	2	4	1	target	1	893	554	35139	13.328	13.292	13.363
ProbeTrackDT01	15	ProbeTrack	10.4	SCS215a	20100707.133658	20100707.135444	8	0.013328	60	10	60-180	60	122	GapExp	0	163	2	0	0	distractor	1	467	767	35906	13.328	13.293	13.363
ProbeTrackDT01	15	ProbeTrack	10.4	SCS215a	20100707.133658	20100707.135449	8	0.013328	60	10	60-180	60	122	GapExp	0	164	2	75	0	distractor	1	494	753	36659	13.328	13.091	13.564
ProbeTrackDT01	15	ProbeTrack	10.4	SCS215a	20100707.133658	20100707.135456	8	0.013328	60	10	60-180	60	123	GapExp	0	165	2	4	1	target	1	667	667	37326	13.883	13.070	40.292
ProbeTrackDT01	15	ProbeTrack	10.4	SCS215a	20100707.133658	20100707.135502	8	0.013328	60	10	60-180	60	99	GapExp	0	166	2	2	0	distractor	1	747	627	37953	13.328	13.232	13.391
ProbeTrackDT01	15	ProbeTrack	10.4	SCS215a	20100707.133658	20100707.135507	8	0.013328	60	10	60-180	60	68	GapExp	0	167	2	2	0	target	0	560	-1000	36953	13.328	13.293	13.363
ProbeTrackDT01	15	ProbeTrack	10.4	SCS215a	20100707.133658	20100707.135512	8	0.013328	60	10	60-180	60	73	GapExp	0	168	2	0	1	distractor	0	560	-1000	35953	13.328	13.293	13.363
ProbeTrackDT01	15	ProbeTrack	10.4	SCS215a	20100707.133658	20100707.135517	8	0.013328	60	10	60-180	60	171	GapExp	0	169	2	4	1	target	1	773	614	36567	13.328	12.941	13.681
ProbeTrackDT01	15	ProbeTrack	10.4	SCS215a	20100707.133658	20100707.135523	8	0.013328	60	10	60-180	60	154	GapExp	0	170	2	75	0	distractor	1	653	674	37241	13.328	13.208	13.481
ProbeTrackDT01	15	ProbeTrack	10.4	SCS215a	20100707.133658	20100707.135530	8	0.013328	60	10	60-180	60	121	GapExp	0	171	2	2	1	target	1	454	773	38014	13.328	13.293	13.363
ProbeTrackDT01	15	ProbeTrack	10.4	SCS215a	20100707.133658	20100707.135536	8	0.013328	60	10	60-180	60	129	GapExp	0	172	2	1	0	distractor	1	467	767	38781	13.328	13.293	13.363
ProbeTrackDT01	15	ProbeTrack	10.4	SCS215a	20100707.133658	20100707.135542	8	0.013328	60	10	60-180	60	112	GapExp	0	173	2	1	0	distractor	1	440	780	39561	13.328	13.293	13.363
ProbeTrackDT01	15	ProbeTrack	10.4	SCS215a	20100707.133658	20100707.135547	8	0.013328	60	10	60-180	60	105	GapExp	0	174	2	75	0	target	0	627	-1000	38561	13.328	13.293	13.362
ProbeTrackDT01	15	ProbeTrack	10.4	SCS215a	20100707.133658	20100707.135553	8	0.013328	60	10	60-180	60	76	GapExp	0	175	2	0	0	distractor	1	547	727	39288	13.328	13.293	13.364
ProbeTrackDT01	15	ProbeTrack	10.4	SCS215a	20100707.133658	20100707.135558	8	0.013328	60	10	60-180	60	88	GapExp	0	176	2	75	1	distractor	0	387	-1000	38288	13.328	13.259	13.396
ProbeTrackDT01	15	ProbeTrack	10.4	SCS215a	20100707.133658	20100707.135604	8	0.013328	60	10	60-180	60	83	GapExp	0	177	2	2	0	target	0	1333	-1000	37288	13.328	13.293	13.363
ProbeTrackDT01	15	ProbeTrack	10.4	SCS215a	20100707.133658	20100707.135610	8	0.013328	60	10	60-180	60	133	GapExp	0	178	2	0	1	distractor	0	560	-1000	36288	13.328	12.942	13.714
ProbeTrackDT01	15	ProbeTrack	10.4	SCS215a	20100707.133658	20100707.135616	8	0.013328	60	10	60-180	60	127	GapExp	0	179	2	75	0	distractor	1	653	674	36962	13.328	13.293	13.363
ProbeTrackDT01	15	ProbeTrack	10.4	SCS215a	20100707.133658	20100707.135623	8	0.013328	60	10	60-180	60	67	GapExp	0	180	2	2	0	distractor	1	667	667	37629	13.328	13.293	13.363
ProbeTrackDT01	15	ProbeTrack	10.4	SCS215a	20100707.133658	20100707.135628	8	0.013328	60	10	60-180	60	155	GapExp	0	181	2	2	0	target	0	507	-1000	36629	13.328	13.133	13.489
ProbeTrackDT01	15	ProbeTrack	10.4	SCS215a	20100707.133658	20100707.135634	8	0.013328	60	10	60-180	60	149	GapExp	0	182	2	75	1	distractor	0	627	-1000	35629	13.328	13.121	13.534
ProbeTrackDT01	15	ProbeTrack	10.4	SCS215a	20100707.133658	20100707.135641	8	0.013328	60	10	60-180	60	106	GapExp	0	183	2	2	1	distractor	0	400	-1000	34629	13.328	13.126	13.532
ProbeTrackDT01	15	ProbeTrack	10.4	SCS215a	20100707.133658	20100707.135646	8	0.013328	60	10	60-180	60	118	GapExp	0	184	2	0	1	target	1	560	720	35349	13.328	13.293	13.363
ProbeTrackDT01	15	ProbeTrack	10.4	SCS215a	20100707.133658	20100707.135651	8	0.013328	60	10	60-180	60	74	GapExp	0	185	2	0	1	distractor	0	693	-1000	34349	13.328	13.293	13.363
ProbeTrackDT01	15	ProbeTrack	10.4	SCS215a	20100707.133658	20100707.135657	8	0.013328	60	10	60-180	60	173	GapExp	0	186	2	75	0	distractor	1	494	753	35102	13.328	12.686	13.937
ProbeTrackDT01	15	ProbeTrack	10.4	SCS215a	20100707.133658	20100707.135704	8	0.013328	60	10	60-180	60	151	GapExp	0	187	2	2	1	target	1	947	527	35629	13.328	13.160	13.462
ProbeTrackDT01	15	ProbeTrack	10.4	SCS215a	20100707.133658	20100707.135710	8	0.013328	60	10	60-180	60	136	GapExp	0	188	2	75	0	target	0	800	-1000	34629	13.328	13.053	13.569
ProbeTrackDT01	15	ProbeTrack	10.4	SCS215a	20100707.133658	20100707.135717	8	0.013328	60	10	60-180	60	145	GapExp	0	189	2	0	1	target	1	627	687	35316	13.328	13.292	13.363
ProbeTrackDT01	15	ProbeTrack	10.4	SCS215a	20100707.133658	20100707.135723	8	0.013328	60	10	60-180	60	79	GapExp	0	190	2	2	0	distractor	1	494	753	36069	13.328	13.116	13.507
ProbeTrackDT01	15	ProbeTrack	10.4	SCS215a	20100707.133658	20100707.135728	8	0.013328	60	10	60-180	60	144	GapExp	0	191	2	0	0	distractor	1	374	813	36882	13.328	13.139	13.517
ProbeTrackDT01	15	ProbeTrack	10.4	SCS215a	20100707.133658	20100707.135734	8	0.013328	60	10	60-180	60	167	GapExp	0	192	2	4	0	target	0	534	-1000	35882	13.328	13.117	13.539
ProbeTrackDT01	15	ProbeTrack	10.4	SCS215a	20100707.133658	20100707.135740	8	0.013328	60	10	60-180	60	130	GapExp	0	193	2	4	1	target	1	467	767	36649	13.328	13.271	13.418
ProbeTrackDT01	15	ProbeTrack	10.4	SCS215a	20100707.133658	20100707.135746	8	0.013328	60	10	60-180	60	65	GapExp	0	194	2	2	0	target	0	1253	-1000	35649	13.328	13.086	13.603
ProbeTrackDT01	15	ProbeTrack	10.4	SCS215a	20100707.133658	20100707.135751	8	0.013328	60	10	60-180	60	103	GapExp	0	195	2	0	0	distractor	1	1413	294	35943	13.328	13.131	13.524
ProbeTrackDT01	15	ProbeTrack	10.4	SCS215a	20100707.133658	20100707.135758	8	0.013328	60	10	60-180	60	158	GapExp	0	196	2	1	0	distractor	1	494	753	36696	13.328	13.055	13.634
ProbeTrackDT01	15	ProbeTrack	10.4	SCS215a	20100707.133658	20100707.135804	8	0.013328	60	10	60-180	60	179	GapExp	0	197	2	1	0	distractor	1	800	600	37296	13.328	13.074	13.616
ProbeTrackDT01	15	ProbeTrack	10.4	SCS215a	20100707.133658	20100707.135810	8	0.013328	60	10	60-180	60	78	GapExp	0	198	2	2	1	target	1	667	667	37963	13.328	13.094	13.594
ProbeTrackDT01	15	ProbeTrack	10.4	SCS215a	20100707.133658	20100707.135815	8	0.013328	60	10	60-180	60	61	GapExp	0	199	2	0	1	target	1	1893	54	38017	13.328	13.127	13.494
ProbeTrackDT01	15	ProbeTrack	10.4	SCS215a	20100707.133658	20100707.135821	8	0.013328	60	10	60-180	60	114	GapExp	0	200	2	2	0	distractor	1	574	713	38730	13.328	13.059	13.562
ProbeTrackDT01	15	ProbeTrack	10.4	SCS215a	20100707.133658	20100707.135837	8	0.013328	60	10	60-180	60	159	GapExp	0	201	2	4	1	distractor	0	387	-1000	37730	13.328	13.274	13.406
ProbeTrackDT01	15	ProbeTrack	10.4	SCS215a	20100707.133658	20100707.135843	8	0.013328	60	10	60-180	60	77	GapExp	0	202	2	0	1	target	1	427	787	38517	13.328	13.212	13.444
ProbeTrackDT01	15	ProbeTrack	10.4	SCS215a	20100707.133658	20100707.135848	8	0.013328	60	10	60-180	60	161	GapExp	0	203	2	0	1	target	1	441	780	39297	13.328	13.290	13.364
ProbeTrackDT01	15	ProbeTrack	10.4	SCS215a	20100707.133658	20100707.135854	8	0.013328	60	10	60-180	60	177	GapExp	0	204	2	2	1	target	1	480	760	40057	13.328	13.284	13.372
ProbeTrackDT01	15	ProbeTrack	10.4	SCS215a	20100707.133658	20100707.135900	8	0.013328	60	10	60-180	60	82	GapExp	0	205	2	75	0	distractor	1	494	753	40810	13.328	13.276	13.412
ProbeTrackDT01	15	ProbeTrack	10.4	SCS215a	20100707.133658	20100707.135906	8	0.013328	60	10	60-180	60	167	GapExp	0	206	2	1	1	target	1	1133	434	41244	13.413	13.145	39.948
ProbeTrackDT01	15	ProbeTrack	10.4	SCS215a	20100707.133658	20100707.135913	8	0.013328	60	10	60-180	60	170	GapExp	0	207	2	4	0	target	0	787	-1000	40244	13.328	13.114	13.543
ProbeTrackDT01	15	ProbeTrack	10.4	SCS215a	20100707.133658	20100707.135919	8	0.013328	60	10	60-180	60	66	GapExp	0	208	2	4	1	target	1	640	680	40924	13.328	13.293	13.363
ProbeTrackDT01	15	ProbeTrack	10.4	SCS215a	20100707.133658	20100707.135924	8	0.013328	60	10	60-180	60	134	GapExp	0	209	2	1	1	distractor	0	347	-1000	39924	13.328	13.293	13.363
ProbeTrackDT01	15	ProbeTrack	10.4	SCS215a	20100707.133658	20100707.135930	8	0.013328	60	10	60-180	60	72	GapExp	0	210	2	0	0	distractor	1	893	554	40478	13.328	13.135	13.554
