exp	sub	code	rev	comp	runtime	trialtime	nstim	refreshdur	cuedur	gapdur	gapOnsetRange	durPostProbe	gapOnsetTime	blocktype	prac	trial	ntargets	soa	probeTarget	resp	acc	rt	pts	tpts	meanFrameDur	minFrameDur	maxFrameDur
ProbeTrackDT01	12	ProbeTrack	10.4	SCS215a	20100707.085623	20100707.085632	8	0.013328	60	0	60-180	60	104	NoGap	1	1	2	4	0	target	0	1253	-1000	-1000	13.328	13.293	13.363
ProbeTrackDT01	12	ProbeTrack	10.4	SCS215a	20100707.085623	20100707.085638	8	0.013328	60	0	60-180	60	97	NoGap	1	2	2	1	0	distractor	1	667	667	-333	13.328	13.293	13.363
ProbeTrackDT01	12	ProbeTrack	10.4	SCS215a	20100707.085623	20100707.085643	8	0.013328	60	0	60-180	60	167	NoGap	1	3	2	0	0	distractor	1	587	707	374	13.328	13.293	13.363
ProbeTrackDT01	12	ProbeTrack	10.4	SCS215a	20100707.085623	20100707.085649	8	0.013328	60	0	60-180	60	164	NoGap	1	4	2	75	1	target	1	667	667	1041	13.328	13.223	13.400
ProbeTrackDT01	12	ProbeTrack	10.4	SCS215a	20100707.085623	20100707.085656	8	0.013328	60	0	60-180	60	141	NoGap	1	5	2	1	0	distractor	1	933	534	1575	13.328	13.293	13.363
ProbeTrackDT01	12	ProbeTrack	10.4	SCS215a	20100707.085623	20100707.085702	8	0.013328	60	0	60-180	60	77	NoGap	1	6	2	0	1	distractor	0	414	-1000	575	13.328	13.293	13.363
ProbeTrackDT01	12	ProbeTrack	10.4	SCS215a	20100707.085623	20100707.085707	8	0.013328	60	0	60-180	60	70	NoGap	1	7	2	2	1	target	1	454	773	1348	13.328	13.292	13.363
ProbeTrackDT01	12	ProbeTrack	10.4	SCS215a	20100707.085623	20100707.085711	8	0.013328	60	0	60-180	60	88	NoGap	1	8	2	4	0	distractor	1	507	747	2095	13.328	13.293	13.367
ProbeTrackDT01	12	ProbeTrack	10.4	SCS215a	20100707.085623	20100707.085716	8	0.013328	60	0	60-180	60	85	NoGap	1	9	2	1	0	distractor	1	494	753	2848	13.328	13.293	13.364
ProbeTrackDT01	12	ProbeTrack	10.4	SCS215a	20100707.085623	20100707.085721	8	0.013328	60	0	60-180	60	128	NoGap	1	10	2	75	0	distractor	1	533	734	3582	13.328	13.293	13.367
ProbeTrackDT01	12	ProbeTrack	10.4	SCS215a	20100707.085623	20100707.085728	8	0.013328	60	0	60-180	60	157	NoGap	1	11	2	75	1	target	1	560	720	4302	13.328	13.289	13.366
ProbeTrackDT01	12	ProbeTrack	10.4	SCS215a	20100707.085623	20100707.085735	8	0.013328	60	0	60-180	60	132	NoGap	1	12	2	1	1	target	1	454	773	5075	13.328	13.293	13.369
ProbeTrackDT01	12	ProbeTrack	10.4	SCS215a	20100707.085623	20100707.085740	8	0.013328	60	0	60-180	60	174	NoGap	1	13	2	0	0	distractor	1	440	780	5855	13.328	13.292	13.363
ProbeTrackDT01	12	ProbeTrack	10.4	SCS215a	20100707.085623	20100707.085746	8	0.013328	60	0	60-180	60	71	NoGap	1	14	2	1	1	target	1	360	820	6675	13.328	13.293	13.363
ProbeTrackDT01	12	ProbeTrack	10.4	SCS215a	20100707.085623	20100707.085751	8	0.013328	60	0	60-180	60	128	NoGap	1	15	2	75	0	distractor	1	414	793	7468	13.328	13.289	13.365
ProbeTrackDT01	12	ProbeTrack	10.4	SCS215a	20100707.085623	20100707.085757	8	0.013328	60	0	60-180	60	165	NoGap	1	16	2	4	1	target	1	320	840	8308	13.328	13.293	13.364
ProbeTrackDT01	12	ProbeTrack	10.4	SCS215a	20100707.085623	20100707.085803	8	0.013328	60	0	60-180	60	149	NoGap	1	17	2	1	1	target	1	374	813	9121	13.328	13.090	13.533
ProbeTrackDT01	12	ProbeTrack	10.4	SCS215a	20100707.085623	20100707.085809	8	0.013328	60	0	60-180	60	152	NoGap	1	18	2	2	1	target	1	414	793	9914	13.430	13.292	39.984
ProbeTrackDT01	12	ProbeTrack	10.4	SCS215a	20100707.085623	20100707.085814	8	0.013328	60	0	60-180	60	167	NoGap	1	19	2	0	0	distractor	1	507	747	10661	13.328	13.293	13.363
ProbeTrackDT01	12	ProbeTrack	10.4	SCS215a	20100707.085623	20100707.085820	8	0.013328	60	0	60-180	60	97	NoGap	1	20	2	0	0	target	0	667	-1000	9661	13.328	13.293	13.363
ProbeTrackDT01	12	ProbeTrack	10.4	SCS215a	20100707.085623	20100707.085826	8	0.013328	60	0	60-180	60	130	NoGap	1	21	2	0	1	target	1	494	753	10414	13.328	13.293	13.363
ProbeTrackDT01	12	ProbeTrack	10.4	SCS215a	20100707.085623	20100707.085831	8	0.013328	60	0	60-180	60	63	NoGap	1	22	2	4	0	distractor	1	640	680	11094	13.328	13.293	13.363
ProbeTrackDT01	12	ProbeTrack	10.4	SCS215a	20100707.085623	20100707.085836	8	0.013328	60	0	60-180	60	113	NoGap	1	23	2	2	0	distractor	1	400	800	11894	13.328	13.291	13.363
ProbeTrackDT01	12	ProbeTrack	10.4	SCS215a	20100707.085623	20100707.085841	8	0.013328	60	0	60-180	60	107	NoGap	1	24	2	2	0	distractor	1	547	727	12621	13.328	13.293	13.363
ProbeTrackDT01	12	ProbeTrack	10.4	SCS215a	20100707.085623	20100707.085846	8	0.013328	60	0	60-180	60	144	NoGap	1	25	2	2	0	distractor	1	480	760	13381	13.328	13.293	13.363
ProbeTrackDT01	12	ProbeTrack	10.4	SCS215a	20100707.085623	20100707.085852	8	0.013328	60	0	60-180	60	71	NoGap	1	26	2	75	0	target	0	454	-1000	12381	13.328	13.293	13.363
ProbeTrackDT01	12	ProbeTrack	10.4	SCS215a	20100707.085623	20100707.085857	8	0.013328	60	0	60-180	60	121	NoGap	1	27	2	1	0	distractor	1	480	760	13141	13.328	13.293	13.363
ProbeTrackDT01	12	ProbeTrack	10.4	SCS215a	20100707.085623	20100707.085903	8	0.013328	60	0	60-180	60	147	NoGap	1	28	2	75	0	distractor	1	387	807	13948	13.328	13.291	13.363
ProbeTrackDT01	12	ProbeTrack	10.4	SCS215a	20100707.085623	20100707.085909	8	0.013328	60	0	60-180	60	164	NoGap	1	29	2	4	1	target	1	427	787	14735	13.328	13.292	13.364
ProbeTrackDT01	12	ProbeTrack	10.4	SCS215a	20100707.085623	20100707.085915	8	0.013328	60	0	60-180	60	118	NoGap	1	30	2	4	1	target	1	600	700	15435	13.328	13.293	13.363
ProbeTrackDT01	12	ProbeTrack	10.4	SCS215a	20100707.085623	20100707.085921	8	0.013328	60	0	60-180	60	77	NoGap	1	31	2	4	1	target	1	507	747	16182	13.328	13.293	13.363
ProbeTrackDT01	12	ProbeTrack	10.4	SCS215a	20100707.085623	20100707.085926	8	0.013328	60	0	60-180	60	126	NoGap	1	32	2	0	1	target	1	454	773	16955	13.328	13.293	13.363
ProbeTrackDT01	12	ProbeTrack	10.4	SCS215a	20100707.085623	20100707.085931	8	0.013328	60	0	60-180	60	157	NoGap	1	33	2	2	1	target	1	374	813	17768	13.328	13.293	13.366
ProbeTrackDT01	12	ProbeTrack	10.4	SCS215a	20100707.085623	20100707.085937	8	0.013328	60	0	60-180	60	168	NoGap	1	34	2	1	1	target	1	387	807	18575	13.328	13.293	13.363
ProbeTrackDT01	12	ProbeTrack	10.4	SCS215a	20100707.085623	20100707.085943	8	0.013328	60	0	60-180	60	127	NoGap	1	35	2	75	1	target	1	387	807	19382	13.328	13.293	13.363
ProbeTrackDT01	12	ProbeTrack	10.4	SCS215a	20100707.085623	20100707.085949	8	0.013328	60	0	60-180	60	89	NoGap	1	36	2	75	1	target	1	387	807	20189	13.328	13.291	13.365
ProbeTrackDT01	12	ProbeTrack	10.4	SCS215a	20100707.085623	20100707.085955	8	0.013328	60	0	60-180	60	171	NoGap	1	37	2	0	1	target	1	360	820	21009	13.328	13.293	13.364
ProbeTrackDT01	12	ProbeTrack	10.4	SCS215a	20100707.085623	20100707.090001	8	0.013328	60	0	60-180	60	172	NoGap	1	38	2	4	0	distractor	1	520	740	21749	13.328	13.293	13.365
ProbeTrackDT01	12	ProbeTrack	10.4	SCS215a	20100707.085623	20100707.090007	8	0.013328	60	0	60-180	60	61	NoGap	1	39	2	2	1	target	1	440	780	22529	13.328	13.291	13.364
ProbeTrackDT01	12	ProbeTrack	10.4	SCS215a	20100707.085623	20100707.090012	8	0.013328	60	0	60-180	60	85	NoGap	1	40	2	2	0	distractor	1	414	793	23322	13.328	13.293	13.363
ProbeTrackDT01	12	ProbeTrack	10.4	SCS215a	20100707.090107	20100707.090111	8	0.013328	60	10	60-180	60	164	GapPrac	1	1	2	4	1	target	1	973	514	23836	13.328	13.289	13.367
ProbeTrackDT01	12	ProbeTrack	10.4	SCS215a	20100707.090107	20100707.090118	8	0.013328	60	10	60-180	60	95	GapPrac	1	2	2	75	0	distractor	1	494	753	24589	13.328	13.292	13.363
ProbeTrackDT01	12	ProbeTrack	10.4	SCS215a	20100707.090107	20100707.090124	8	0.013328	60	10	60-180	60	150	GapPrac	1	3	2	4	0	target	0	813	-1000	23589	13.328	13.221	13.468
ProbeTrackDT01	12	ProbeTrack	10.4	SCS215a	20100707.090107	20100707.090130	8	0.013328	60	10	60-180	60	119	GapPrac	1	4	2	1	1	target	1	733	634	24223	13.328	13.293	13.363
ProbeTrackDT01	12	ProbeTrack	10.4	SCS215a	20100707.090107	20100707.090136	8	0.013328	60	10	60-180	60	134	GapPrac	1	5	2	0	0	distractor	1	427	787	25010	13.328	13.293	13.363
ProbeTrackDT01	12	ProbeTrack	10.4	SCS215a	20100707.090107	20100707.090142	8	0.013328	60	10	60-180	60	167	GapPrac	1	6	2	2	1	distractor	0	680	-1000	24010	13.328	13.232	13.425
ProbeTrackDT01	12	ProbeTrack	10.4	SCS215a	20100707.090107	20100707.090148	8	0.013328	60	10	60-180	60	77	GapPrac	1	7	2	75	1	target	1	534	733	24743	13.328	13.292	13.366
ProbeTrackDT01	12	ProbeTrack	10.4	SCS215a	20100707.090107	20100707.090154	8	0.013328	60	10	60-180	60	151	GapPrac	1	8	2	0	1	target	1	533	734	25477	13.328	13.292	13.363
ProbeTrackDT01	12	ProbeTrack	10.4	SCS215a	20100707.090107	20100707.090200	8	0.013328	60	10	60-180	60	73	GapPrac	1	9	2	0	1	target	1	640	680	26157	13.328	13.293	13.363
ProbeTrackDT01	12	ProbeTrack	10.4	SCS215a	20100707.090107	20100707.090205	8	0.013328	60	10	60-180	60	114	GapPrac	1	10	2	1	0	distractor	1	667	667	26824	13.328	13.293	13.363
ProbeTrackDT01	12	ProbeTrack	10.4	SCS215a	20100707.090107	20100707.090210	8	0.013328	60	10	60-180	60	170	GapPrac	1	11	2	0	0	target	0	654	-1000	25824	13.328	13.292	13.363
ProbeTrackDT01	12	ProbeTrack	10.4	SCS215a	20100707.090107	20100707.090217	8	0.013328	60	10	60-180	60	88	GapPrac	1	12	2	4	0	target	0	747	-1000	24824	13.328	13.231	13.426
ProbeTrackDT01	12	ProbeTrack	10.4	SCS215a	20100707.090107	20100707.090222	8	0.013328	60	10	60-180	60	61	GapPrac	1	13	2	2	1	target	1	547	727	25551	13.328	13.292	13.363
ProbeTrackDT01	12	ProbeTrack	10.4	SCS215a	20100707.090107	20100707.090227	8	0.013328	60	10	60-180	60	113	GapPrac	1	14	2	1	0	distractor	1	680	660	26211	13.328	13.272	13.385
ProbeTrackDT01	12	ProbeTrack	10.4	SCS215a	20100707.090107	20100707.090232	8	0.013328	60	10	60-180	60	180	GapPrac	1	15	2	2	0	distractor	1	613	694	26905	13.328	13.293	13.363
ProbeTrackDT01	12	ProbeTrack	10.4	SCS215a	20100707.090107	20100707.090239	8	0.013328	60	10	60-180	60	160	GapPrac	1	16	2	2	0	target	0	613	-1000	25905	13.328	13.293	13.364
ProbeTrackDT01	12	ProbeTrack	10.4	SCS215a	20100707.090107	20100707.090245	8	0.013328	60	10	60-180	60	103	GapPrac	1	17	2	4	1	target	1	614	693	26598	13.328	13.293	13.363
ProbeTrackDT01	12	ProbeTrack	10.4	SCS215a	20100707.090107	20100707.090250	8	0.013328	60	10	60-180	60	97	GapPrac	1	18	2	75	0	distractor	1	693	654	27252	13.328	13.292	13.366
ProbeTrackDT01	12	ProbeTrack	10.4	SCS215a	20100707.090107	20100707.090257	8	0.013328	60	10	60-180	60	82	GapPrac	1	19	2	1	1	target	1	667	667	27919	13.328	13.293	13.363
ProbeTrackDT01	12	ProbeTrack	10.4	SCS215a	20100707.090107	20100707.090302	8	0.013328	60	10	60-180	60	168	GapPrac	1	20	2	75	1	target	1	933	534	28453	13.328	13.293	13.363
ProbeTrackDT01	12	ProbeTrack	10.4	SCS215a	20100707.090335	20100707.090340	8	0.013328	60	10	60-180	60	82	GapPrac	1	1	2	75	1	target	1	653	674	29127	13.328	13.292	13.363
ProbeTrackDT01	12	ProbeTrack	10.4	SCS215a	20100707.090335	20100707.090346	8	0.013328	60	10	60-180	60	120	GapPrac	1	2	2	2	1	target	1	493	754	29881	13.328	13.292	13.365
ProbeTrackDT01	12	ProbeTrack	10.4	SCS215a	20100707.090335	20100707.090351	8	0.013328	60	10	60-180	60	74	GapPrac	1	3	2	1	1	target	1	600	700	30581	13.328	13.293	13.363
ProbeTrackDT01	12	ProbeTrack	10.4	SCS215a	20100707.090335	20100707.090356	8	0.013328	60	10	60-180	60	84	GapPrac	1	4	2	0	1	target	1	493	754	31335	13.328	13.292	13.364
ProbeTrackDT01	12	ProbeTrack	10.4	SCS215a	20100707.090335	20100707.090401	8	0.013328	60	10	60-180	60	108	GapPrac	1	5	2	2	1	target	1	454	773	32108	13.328	13.291	13.363
ProbeTrackDT01	12	ProbeTrack	10.4	SCS215a	20100707.090335	20100707.090407	8	0.013328	60	10	60-180	60	180	GapPrac	1	6	2	75	0	distractor	1	600	700	32808	13.328	13.293	13.364
ProbeTrackDT01	12	ProbeTrack	10.4	SCS215a	20100707.090335	20100707.090414	8	0.013328	60	10	60-180	60	151	GapPrac	1	7	2	0	0	distractor	1	627	687	33495	13.328	13.293	13.363
ProbeTrackDT01	12	ProbeTrack	10.4	SCS215a	20100707.090335	20100707.090420	8	0.013328	60	10	60-180	60	148	GapPrac	1	8	2	4	0	target	0	467	-1000	32495	13.328	13.293	13.363
ProbeTrackDT01	12	ProbeTrack	10.4	SCS215a	20100707.090335	20100707.090426	8	0.013328	60	10	60-180	60	116	GapPrac	1	9	2	1	0	distractor	1	840	580	33075	13.328	13.293	13.363
ProbeTrackDT01	12	ProbeTrack	10.4	SCS215a	20100707.090335	20100707.090432	8	0.013328	60	10	60-180	60	66	GapPrac	1	10	2	0	0	target	0	587	-1000	32075	13.328	13.266	13.389
ProbeTrackDT01	12	ProbeTrack	10.4	SCS215a	20100707.090335	20100707.090437	8	0.013328	60	10	60-180	60	73	GapPrac	1	11	2	75	1	distractor	0	573	-1000	31075	13.424	13.223	39.983
ProbeTrackDT01	12	ProbeTrack	10.4	SCS215a	20100707.090335	20100707.090443	8	0.013328	60	10	60-180	60	176	GapPrac	1	12	2	2	0	distractor	1	787	607	31682	13.328	13.293	13.363
ProbeTrackDT01	12	ProbeTrack	10.4	SCS215a	20100707.090335	20100707.090449	8	0.013328	60	10	60-180	60	164	GapPrac	1	13	2	2	0	distractor	1	454	773	32455	13.328	13.276	13.381
ProbeTrackDT01	12	ProbeTrack	10.4	SCS215a	20100707.090335	20100707.090455	8	0.013328	60	10	60-180	60	117	GapPrac	1	14	2	1	0	distractor	1	667	667	33122	13.328	13.291	13.363
ProbeTrackDT01	12	ProbeTrack	10.4	SCS215a	20100707.090335	20100707.090501	8	0.013328	60	10	60-180	60	144	GapPrac	1	15	2	4	1	target	1	747	627	33749	13.328	13.293	13.363
ProbeTrackDT01	12	ProbeTrack	10.4	SCS215a	20100707.090335	20100707.090507	8	0.013328	60	10	60-180	60	172	GapPrac	1	16	2	4	1	target	1	574	713	34462	13.328	13.292	13.364
ProbeTrackDT01	12	ProbeTrack	10.4	SCS215a	20100707.090335	20100707.090513	8	0.013328	60	10	60-180	60	148	GapPrac	1	17	2	75	0	distractor	1	480	760	35222	13.328	13.292	13.363
ProbeTrackDT01	12	ProbeTrack	10.4	SCS215a	20100707.090335	20100707.090520	8	0.013328	60	10	60-180	60	82	GapPrac	1	18	2	0	1	target	1	600	700	35922	13.328	13.293	13.364
ProbeTrackDT01	12	ProbeTrack	10.4	SCS215a	20100707.090335	20100707.090525	8	0.013328	60	10	60-180	60	101	GapPrac	1	19	2	4	0	distractor	1	520	740	36662	13.328	13.293	13.363
ProbeTrackDT01	12	ProbeTrack	10.4	SCS215a	20100707.090335	20100707.090531	8	0.013328	60	10	60-180	60	151	GapPrac	1	20	2	1	1	distractor	0	614	-1000	35662	13.328	13.293	13.363
ProbeTrackDT01	12	ProbeTrack	10.4	SCS215a	20100707.090645	20100707.090651	8	0.013328	60	10	60-180	60	61	GapExp	1	1	2	1	1	target	1	693	654	36316	13.328	13.081	13.608
ProbeTrackDT01	12	ProbeTrack	10.4	SCS215a	20100707.090645	20100707.090656	8	0.013328	60	10	60-180	60	148	GapExp	1	2	2	0	1	distractor	0	840	-1000	35316	13.328	13.022	13.635
ProbeTrackDT01	12	ProbeTrack	10.4	SCS215a	20100707.090645	20100707.090703	8	0.013328	60	10	60-180	60	165	GapExp	1	3	2	75	1	target	1	9490	0	35316	13.328	13.293	13.363
ProbeTrackDT01	12	ProbeTrack	10.4	SCS215a	20100707.090645	20100707.090719	8	0.013328	60	10	60-180	60	76	GapExp	1	4	2	4	0	distractor	1	160	920	36236	13.328	13.067	13.555
ProbeTrackDT01	12	ProbeTrack	10.4	SCS215a	20100707.090645	20100707.090723	8	0.013328	60	10	60-180	60	76	GapExp	1	5	2	2	0	distractor	1	587	707	36943	13.328	13.293	13.363
ProbeTrackDT01	12	ProbeTrack	10.4	SCS215a	20100707.090645	20100707.090728	8	0.013328	60	10	60-180	60	116	GapExp	1	6	2	75	0	distractor	1	827	587	37530	13.328	13.266	13.363
ProbeTrackDT01	12	ProbeTrack	10.4	SCS215a	20100707.090645	20100707.090735	8	0.013328	60	10	60-180	60	111	GapExp	1	7	2	4	1	target	1	613	694	38224	13.328	13.117	13.573
ProbeTrackDT01	12	ProbeTrack	10.4	SCS215a	20100707.090645	20100707.090741	8	0.013328	60	10	60-180	60	173	GapExp	1	8	2	1	0	distractor	1	573	714	38938	13.328	13.293	13.363
ProbeTrackDT01	12	ProbeTrack	10.4	SCS215a	20100707.090645	20100707.090747	8	0.013328	60	10	60-180	60	142	GapExp	1	9	2	2	1	distractor	0	534	-1000	37938	13.328	13.293	13.364
ProbeTrackDT01	12	ProbeTrack	10.4	SCS215a	20100707.090645	20100707.090753	8	0.013328	60	10	60-180	60	65	GapExp	1	10	2	0	0	distractor	1	520	740	38678	13.328	13.292	13.365
ProbeTrackDT01	12	ProbeTrack	10.4	SCS215a	20100707.090645	20100707.090758	8	0.013328	60	10	60-180	60	113	GapExp	0	11	2	0	1	target	1	520	740	39418	13.328	13.293	13.363
ProbeTrackDT01	12	ProbeTrack	10.4	SCS215a	20100707.090645	20100707.090803	8	0.013328	60	10	60-180	60	149	GapExp	0	12	2	0	0	distractor	1	507	747	40165	13.328	13.293	13.363
ProbeTrackDT01	12	ProbeTrack	10.4	SCS215a	20100707.090645	20100707.090809	8	0.013328	60	10	60-180	60	104	GapExp	0	13	2	0	0	distractor	1	1306	347	40512	13.328	13.014	13.640
ProbeTrackDT01	12	ProbeTrack	10.4	SCS215a	20100707.090645	20100707.090815	8	0.013328	60	10	60-180	60	161	GapExp	0	14	2	4	1	distractor	0	827	-1000	39512	13.328	12.934	13.688
ProbeTrackDT01	12	ProbeTrack	10.4	SCS215a	20100707.090645	20100707.090821	8	0.013328	60	10	60-180	60	175	GapExp	0	15	2	2	0	distractor	1	1080	460	39972	13.328	13.293	13.363
ProbeTrackDT01	12	ProbeTrack	10.4	SCS215a	20100707.090645	20100707.090828	8	0.013328	60	10	60-180	60	92	GapExp	0	16	2	4	0	distractor	1	1600	200	40172	13.328	13.293	13.363
ProbeTrackDT01	12	ProbeTrack	10.4	SCS215a	20100707.090645	20100707.090834	8	0.013328	60	10	60-180	60	174	GapExp	0	17	2	4	1	target	1	534	733	40905	13.328	13.293	13.363
ProbeTrackDT01	12	ProbeTrack	10.4	SCS215a	20100707.090645	20100707.090841	8	0.013328	60	10	60-180	60	64	GapExp	0	18	2	2	1	distractor	0	933	-1000	39905	13.328	13.293	13.362
ProbeTrackDT01	12	ProbeTrack	10.4	SCS215a	20100707.090645	20100707.090846	8	0.013328	60	10	60-180	60	102	GapExp	0	19	2	4	1	distractor	0	547	-1000	38905	13.328	13.293	13.363
ProbeTrackDT01	12	ProbeTrack	10.4	SCS215a	20100707.090645	20100707.090851	8	0.013328	60	10	60-180	60	113	GapExp	0	20	2	75	1	target	1	107	947	39852	13.328	13.183	13.474
ProbeTrackDT01	12	ProbeTrack	10.4	SCS215a	20100707.090645	20100707.090857	8	0.013328	60	10	60-180	60	155	GapExp	0	21	2	0	1	distractor	0	560	-1000	38852	13.328	13.117	13.538
ProbeTrackDT01	12	ProbeTrack	10.4	SCS215a	20100707.090645	20100707.090903	8	0.013328	60	10	60-180	60	125	GapExp	0	22	2	2	0	distractor	1	2213	0	38852	13.328	13.235	13.423
ProbeTrackDT01	12	ProbeTrack	10.4	SCS215a	20100707.090645	20100707.090911	8	0.013328	60	10	60-180	60	180	GapExp	0	23	2	4	1	target	1	494	753	39605	13.328	13.198	13.490
ProbeTrackDT01	12	ProbeTrack	10.4	SCS215a	20100707.090645	20100707.090917	8	0.013328	60	10	60-180	60	143	GapExp	0	24	2	75	0	target	0	893	-1000	38605	13.328	13.199	13.424
ProbeTrackDT01	12	ProbeTrack	10.4	SCS215a	20100707.090645	20100707.090924	8	0.013328	60	10	60-180	60	169	GapExp	0	25	2	1	1	target	1	560	720	39325	13.328	13.241	13.415
ProbeTrackDT01	12	ProbeTrack	10.4	SCS215a	20100707.090645	20100707.090930	8	0.013328	60	10	60-180	60	92	GapExp	0	26	2	4	1	distractor	0	534	-1000	38325	13.328	13.293	13.363
ProbeTrackDT01	12	ProbeTrack	10.4	SCS215a	20100707.090645	20100707.090936	8	0.013328	60	10	60-180	60	73	GapExp	0	27	2	0	1	distractor	0	840	-1000	37325	13.328	13.293	13.363
ProbeTrackDT01	12	ProbeTrack	10.4	SCS215a	20100707.090645	20100707.090941	8	0.013328	60	10	60-180	60	179	GapExp	0	28	2	4	0	target	0	547	-1000	36325	13.328	13.287	13.368
ProbeTrackDT01	12	ProbeTrack	10.4	SCS215a	20100707.090645	20100707.090947	8	0.013328	60	10	60-180	60	104	GapExp	0	29	2	0	0	target	0	640	-1000	35325	13.551	13.120	26.944
ProbeTrackDT01	12	ProbeTrack	10.4	SCS215a	20100707.090645	20100707.090953	8	0.013328	60	10	60-180	60	84	GapExp	0	30	2	4	1	distractor	0	3346	-1000	34325	13.328	13.293	13.363
ProbeTrackDT01	12	ProbeTrack	10.4	SCS215a	20100707.090645	20100707.091001	8	0.013328	60	10	60-180	60	92	GapExp	0	31	2	1	1	target	1	1440	280	34605	13.328	13.293	13.363
ProbeTrackDT01	12	ProbeTrack	10.4	SCS215a	20100707.090645	20100707.091007	8	0.013328	60	10	60-180	60	81	GapExp	0	32	2	4	1	target	1	467	767	35372	13.328	13.293	13.363
ProbeTrackDT01	12	ProbeTrack	10.4	SCS215a	20100707.090645	20100707.091012	8	0.013328	60	10	60-180	60	138	GapExp	0	33	2	1	0	target	0	893	-1000	34372	13.328	13.293	13.363
ProbeTrackDT01	12	ProbeTrack	10.4	SCS215a	20100707.090645	20100707.091018	8	0.013328	60	10	60-180	60	87	GapExp	0	34	2	2	0	distractor	1	667	667	35039	13.328	13.203	13.419
ProbeTrackDT01	12	ProbeTrack	10.4	SCS215a	20100707.090645	20100707.091023	8	0.013328	60	10	60-180	60	158	GapExp	0	35	2	75	1	distractor	0	627	-1000	34039	13.328	13.126	13.530
ProbeTrackDT01	12	ProbeTrack	10.4	SCS215a	20100707.090645	20100707.091030	8	0.013328	60	10	60-180	60	136	GapExp	0	36	2	0	1	distractor	0	680	-1000	33039	13.328	13.031	13.592
ProbeTrackDT01	12	ProbeTrack	10.4	SCS215a	20100707.090645	20100707.091036	8	0.013328	60	10	60-180	60	132	GapExp	0	37	2	1	1	distractor	0	853	-1000	32039	13.855	12.896	52.948
ProbeTrackDT01	12	ProbeTrack	10.4	SCS215a	20100707.090645	20100707.091042	8	0.013328	60	10	60-180	60	126	GapExp	0	38	2	0	0	target	0	400	-1000	31039	13.328	13.293	13.363
ProbeTrackDT01	12	ProbeTrack	10.4	SCS215a	20100707.090645	20100707.091048	8	0.013328	60	10	60-180	60	91	GapExp	0	39	2	1	0	target	0	747	-1000	30039	13.328	13.087	13.602
ProbeTrackDT01	12	ProbeTrack	10.4	SCS215a	20100707.090645	20100707.091053	8	0.013328	60	10	60-180	60	129	GapExp	0	40	2	75	0	distractor	1	827	587	30626	13.328	12.945	13.677
ProbeTrackDT01	12	ProbeTrack	10.4	SCS215a	20100707.090645	20100707.091100	8	0.013328	60	10	60-180	60	167	GapExp	0	41	2	2	1	distractor	0	587	-1000	29626	13.328	13.293	13.363
ProbeTrackDT01	12	ProbeTrack	10.4	SCS215a	20100707.090645	20100707.091106	8	0.013328	60	10	60-180	60	148	GapExp	0	42	2	2	1	distractor	0	800	-1000	28626	13.328	13.228	13.411
ProbeTrackDT01	12	ProbeTrack	10.4	SCS215a	20100707.090645	20100707.091113	8	0.013328	60	10	60-180	60	176	GapExp	0	43	2	4	1	target	1	507	747	29373	13.328	13.289	13.363
ProbeTrackDT01	12	ProbeTrack	10.4	SCS215a	20100707.090645	20100707.091119	8	0.013328	60	10	60-180	60	162	GapExp	0	44	2	1	1	target	1	547	727	30100	13.328	13.198	13.458
ProbeTrackDT01	12	ProbeTrack	10.4	SCS215a	20100707.090645	20100707.091125	8	0.013328	60	10	60-180	60	137	GapExp	0	45	2	0	1	target	1	614	693	30793	13.328	13.128	13.561
ProbeTrackDT01	12	ProbeTrack	10.4	SCS215a	20100707.090645	20100707.091131	8	0.013328	60	10	60-180	60	130	GapExp	0	46	2	1	0	distractor	1	654	673	31466	13.328	13.189	13.500
ProbeTrackDT01	12	ProbeTrack	10.4	SCS215a	20100707.090645	20100707.091137	8	0.013328	60	10	60-180	60	114	GapExp	0	47	2	1	1	distractor	0	720	-1000	30466	13.328	13.154	13.503
ProbeTrackDT01	12	ProbeTrack	10.4	SCS215a	20100707.090645	20100707.091142	8	0.013328	60	10	60-180	60	88	GapExp	0	48	2	1	0	target	0	840	-1000	29466	13.328	13.192	13.463
ProbeTrackDT01	12	ProbeTrack	10.4	SCS215a	20100707.090645	20100707.091148	8	0.013328	60	10	60-180	60	64	GapExp	0	49	2	2	0	target	0	853	-1000	28466	13.328	13.293	13.363
ProbeTrackDT01	12	ProbeTrack	10.4	SCS215a	20100707.090645	20100707.091153	8	0.013328	60	10	60-180	60	114	GapExp	0	50	2	0	0	target	0	827	-1000	27466	13.379	12.920	27.187
ProbeTrackDT01	12	ProbeTrack	10.4	SCS215a	20100707.090645	20100707.091216	8	0.013328	60	10	60-180	60	105	GapExp	0	51	2	1	1	target	1	467	767	28233	13.328	13.292	13.363
ProbeTrackDT01	12	ProbeTrack	10.4	SCS215a	20100707.090645	20100707.091221	8	0.013328	60	10	60-180	60	105	GapExp	0	52	2	4	1	distractor	0	547	-1000	27233	13.328	13.239	13.418
ProbeTrackDT01	12	ProbeTrack	10.4	SCS215a	20100707.090645	20100707.091227	8	0.013328	60	10	60-180	60	148	GapExp	0	53	2	75	1	target	1	573	714	27947	13.328	13.293	13.364
ProbeTrackDT01	12	ProbeTrack	10.4	SCS215a	20100707.090645	20100707.091234	8	0.013328	60	10	60-180	60	176	GapExp	0	54	2	0	1	target	1	1253	374	28321	13.328	13.248	13.442
ProbeTrackDT01	12	ProbeTrack	10.4	SCS215a	20100707.090645	20100707.091241	8	0.013328	60	10	60-180	60	86	GapExp	0	55	2	1	1	target	1	520	740	29061	13.328	13.293	13.363
ProbeTrackDT01	12	ProbeTrack	10.4	SCS215a	20100707.090645	20100707.091246	8	0.013328	60	10	60-180	60	65	GapExp	0	56	2	4	1	target	1	574	713	29774	13.328	13.293	13.363
ProbeTrackDT01	12	ProbeTrack	10.4	SCS215a	20100707.090645	20100707.091251	8	0.013328	60	10	60-180	60	143	GapExp	0	57	2	2	1	target	1	627	687	30461	13.328	13.293	13.363
ProbeTrackDT01	12	ProbeTrack	10.4	SCS215a	20100707.090645	20100707.091257	8	0.013328	60	10	60-180	60	178	GapExp	0	58	2	1	1	target	1	494	753	31214	13.328	13.290	13.367
ProbeTrackDT01	12	ProbeTrack	10.4	SCS215a	20100707.090645	20100707.091303	8	0.013328	60	10	60-180	60	109	GapExp	0	59	2	2	1	target	1	254	873	32087	13.328	13.106	13.517
ProbeTrackDT01	12	ProbeTrack	10.4	SCS215a	20100707.090645	20100707.091308	8	0.013328	60	10	60-180	60	77	GapExp	0	60	2	75	1	target	1	693	654	32741	13.328	13.045	13.612
ProbeTrackDT01	12	ProbeTrack	10.4	SCS215a	20100707.090645	20100707.091314	8	0.013328	60	10	60-180	60	65	GapExp	0	61	2	75	1	target	1	480	760	33501	13.328	13.087	13.603
ProbeTrackDT01	12	ProbeTrack	10.4	SCS215a	20100707.090645	20100707.091320	8	0.013328	60	10	60-180	60	133	GapExp	0	62	2	75	1	distractor	0	414	-1000	32501	13.328	13.292	13.363
ProbeTrackDT01	12	ProbeTrack	10.4	SCS215a	20100707.090645	20100707.091327	8	0.013328	60	10	60-180	60	98	GapExp	0	63	2	4	1	target	1	533	734	33235	13.328	13.293	13.363
ProbeTrackDT01	12	ProbeTrack	10.4	SCS215a	20100707.090645	20100707.091332	8	0.013328	60	10	60-180	60	70	GapExp	0	64	2	1	0	target	0	707	-1000	32235	13.391	13.268	26.461
ProbeTrackDT01	12	ProbeTrack	10.4	SCS215a	20100707.090645	20100707.091337	8	0.013328	60	10	60-180	60	136	GapExp	0	65	2	1	0	distractor	1	693	654	32889	13.328	13.281	13.401
ProbeTrackDT01	12	ProbeTrack	10.4	SCS215a	20100707.090645	20100707.091343	8	0.013328	60	10	60-180	60	167	GapExp	0	66	2	1	0	target	0	747	-1000	31889	13.328	13.202	13.421
ProbeTrackDT01	12	ProbeTrack	10.4	SCS215a	20100707.090645	20100707.091349	8	0.013328	60	10	60-180	60	144	GapExp	0	67	2	1	1	target	1	547	727	32616	13.328	13.235	13.421
ProbeTrackDT01	12	ProbeTrack	10.4	SCS215a	20100707.090645	20100707.091355	8	0.013328	60	10	60-180	60	79	GapExp	0	68	2	2	0	distractor	1	720	640	33256	13.328	13.228	13.396
ProbeTrackDT01	12	ProbeTrack	10.4	SCS215a	20100707.090645	20100707.091400	8	0.013328	60	10	60-180	60	101	GapExp	0	69	2	75	0	distractor	1	693	654	33910	13.328	13.293	13.363
ProbeTrackDT01	12	ProbeTrack	10.4	SCS215a	20100707.090645	20100707.091407	8	0.013328	60	10	60-180	60	80	GapExp	0	70	2	4	1	distractor	0	613	-1000	32910	13.328	13.293	13.364
ProbeTrackDT01	12	ProbeTrack	10.4	SCS215a	20100707.090645	20100707.091412	8	0.013328	60	10	60-180	60	106	GapExp	0	71	2	0	1	target	1	561	720	33630	13.614	12.970	39.943
ProbeTrackDT01	12	ProbeTrack	10.4	SCS215a	20100707.090645	20100707.091417	8	0.013328	60	10	60-180	60	61	GapExp	0	72	2	2	0	target	0	507	-1000	32630	13.328	13.194	13.448
ProbeTrackDT01	12	ProbeTrack	10.4	SCS215a	20100707.090645	20100707.091422	8	0.013328	60	10	60-180	60	63	GapExp	0	73	2	0	0	target	0	600	-1000	31630	13.328	13.259	13.363
ProbeTrackDT01	12	ProbeTrack	10.4	SCS215a	20100707.090645	20100707.091427	8	0.013328	60	10	60-180	60	171	GapExp	0	74	2	4	0	distractor	1	520	740	32370	13.328	13.045	13.643
ProbeTrackDT01	12	ProbeTrack	10.4	SCS215a	20100707.090645	20100707.091433	8	0.013328	60	10	60-180	60	146	GapExp	0	75	2	4	0	distractor	1	614	693	33063	13.328	13.293	13.363
ProbeTrackDT01	12	ProbeTrack	10.4	SCS215a	20100707.090645	20100707.091439	8	0.013328	60	10	60-180	60	153	GapExp	0	76	2	1	1	distractor	0	534	-1000	32063	13.328	13.195	13.462
ProbeTrackDT01	12	ProbeTrack	10.4	SCS215a	20100707.090645	20100707.091445	8	0.013328	60	10	60-180	60	120	GapExp	0	77	2	2	0	target	0	547	-1000	31063	13.328	13.252	13.373
ProbeTrackDT01	12	ProbeTrack	10.4	SCS215a	20100707.090645	20100707.091451	8	0.013328	60	10	60-180	60	151	GapExp	0	78	2	75	1	distractor	0	1426	-1000	30063	13.328	13.076	13.581
ProbeTrackDT01	12	ProbeTrack	10.4	SCS215a	20100707.090645	20100707.091458	8	0.013328	60	10	60-180	60	135	GapExp	0	79	2	75	1	distractor	0	534	-1000	29063	13.328	13.130	13.559
ProbeTrackDT01	12	ProbeTrack	10.4	SCS215a	20100707.090645	20100707.091505	8	0.013328	60	10	60-180	60	165	GapExp	0	80	2	1	1	distractor	0	800	-1000	28063	13.328	13.057	13.564
ProbeTrackDT01	12	ProbeTrack	10.4	SCS215a	20100707.090645	20100707.091512	8	0.013328	60	10	60-180	60	141	GapExp	0	81	2	2	1	target	1	720	640	28703	13.328	13.293	13.363
ProbeTrackDT01	12	ProbeTrack	10.4	SCS215a	20100707.090645	20100707.091518	8	0.013328	60	10	60-180	60	127	GapExp	0	82	2	75	0	distractor	1	600	700	29403	13.328	13.284	13.406
ProbeTrackDT01	12	ProbeTrack	10.4	SCS215a	20100707.090645	20100707.091524	8	0.013328	60	10	60-180	60	138	GapExp	0	83	2	4	1	target	1	454	773	30176	13.328	13.261	13.363
ProbeTrackDT01	12	ProbeTrack	10.4	SCS215a	20100707.090645	20100707.091530	8	0.013328	60	10	60-180	60	127	GapExp	0	84	2	0	1	target	1	747	627	30803	13.328	13.290	13.366
ProbeTrackDT01	12	ProbeTrack	10.4	SCS215a	20100707.090645	20100707.091536	8	0.013328	60	10	60-180	60	127	GapExp	0	85	2	2	0	target	0	867	-1000	29803	13.328	13.293	13.363
ProbeTrackDT01	12	ProbeTrack	10.4	SCS215a	20100707.090645	20100707.091542	8	0.013328	60	10	60-180	60	178	GapExp	0	86	2	0	0	target	0	560	-1000	28803	13.328	13.206	13.450
ProbeTrackDT01	12	ProbeTrack	10.4	SCS215a	20100707.090645	20100707.091548	8	0.013328	60	10	60-180	60	85	GapExp	0	87	2	2	1	distractor	0	1053	-1000	27803	13.328	13.293	13.368
ProbeTrackDT01	12	ProbeTrack	10.4	SCS215a	20100707.090645	20100707.091554	8	0.013328	60	10	60-180	60	76	GapExp	0	88	2	2	0	target	0	614	-1000	26803	13.328	13.293	13.363
ProbeTrackDT01	12	ProbeTrack	10.4	SCS215a	20100707.090645	20100707.091559	8	0.013328	60	10	60-180	60	178	GapExp	0	89	2	2	1	target	1	640	680	27483	13.328	13.293	13.363
ProbeTrackDT01	12	ProbeTrack	10.4	SCS215a	20100707.090645	20100707.091605	8	0.013328	60	10	60-180	60	164	GapExp	0	90	2	75	0	distractor	1	480	760	28243	13.328	13.293	13.363
ProbeTrackDT01	12	ProbeTrack	10.4	SCS215a	20100707.090645	20100707.091612	8	0.013328	60	10	60-180	60	82	GapExp	0	91	2	0	0	target	0	773	-1000	27243	13.328	13.293	13.363
ProbeTrackDT01	12	ProbeTrack	10.4	SCS215a	20100707.090645	20100707.091618	8	0.013328	60	10	60-180	60	88	GapExp	0	92	2	1	1	distractor	0	747	-1000	26243	13.328	13.293	13.382
ProbeTrackDT01	12	ProbeTrack	10.4	SCS215a	20100707.090645	20100707.091623	8	0.013328	60	10	60-180	60	98	GapExp	0	93	2	2	1	distractor	0	800	-1000	25243	13.328	13.293	13.363
ProbeTrackDT01	12	ProbeTrack	10.4	SCS215a	20100707.090645	20100707.091629	8	0.013328	60	10	60-180	60	166	GapExp	0	94	2	1	0	distractor	1	800	600	25843	13.328	13.261	13.363
ProbeTrackDT01	12	ProbeTrack	10.4	SCS215a	20100707.090645	20100707.091635	8	0.013328	60	10	60-180	60	173	GapExp	0	95	2	75	1	target	1	467	767	26610	13.328	13.293	13.363
ProbeTrackDT01	12	ProbeTrack	10.4	SCS215a	20100707.090645	20100707.091642	8	0.013328	60	10	60-180	60	109	GapExp	0	96	2	0	1	target	1	560	720	27330	13.328	13.293	13.363
ProbeTrackDT01	12	ProbeTrack	10.4	SCS215a	20100707.090645	20100707.091648	8	0.013328	60	10	60-180	60	107	GapExp	0	97	2	0	0	distractor	1	614	693	28023	13.328	13.288	13.363
ProbeTrackDT01	12	ProbeTrack	10.4	SCS215a	20100707.090645	20100707.091653	8	0.013328	60	10	60-180	60	131	GapExp	0	98	2	0	0	distractor	1	720	640	28663	13.328	13.204	13.419
ProbeTrackDT01	12	ProbeTrack	10.4	SCS215a	20100707.090645	20100707.091659	8	0.013328	60	10	60-180	60	159	GapExp	0	99	2	0	0	distractor	1	507	747	29410	13.328	13.292	13.363
ProbeTrackDT01	12	ProbeTrack	10.4	SCS215a	20100707.090645	20100707.091705	8	0.013328	60	10	60-180	60	104	GapExp	0	100	2	75	0	distractor	1	867	567	29977	13.328	13.245	13.410
ProbeTrackDT01	12	ProbeTrack	10.4	SCS215a	20100707.090645	20100707.091728	8	0.013328	60	10	60-180	60	122	GapExp	0	101	2	0	1	distractor	0	600	-1000	28977	13.328	13.293	13.388
ProbeTrackDT01	12	ProbeTrack	10.4	SCS215a	20100707.090645	20100707.091734	8	0.013328	60	10	60-180	60	98	GapExp	0	102	2	2	0	target	0	867	-1000	27977	13.328	13.180	13.510
ProbeTrackDT01	12	ProbeTrack	10.4	SCS215a	20100707.090645	20100707.091739	8	0.013328	60	10	60-180	60	151	GapExp	0	103	2	2	0	target	0	547	-1000	26977	13.328	13.032	13.592
ProbeTrackDT01	12	ProbeTrack	10.4	SCS215a	20100707.090645	20100707.091745	8	0.013328	60	10	60-180	60	133	GapExp	0	104	2	1	0	distractor	1	574	713	27690	13.328	13.293	13.363
ProbeTrackDT01	12	ProbeTrack	10.4	SCS215a	20100707.090645	20100707.091751	8	0.013328	60	10	60-180	60	77	GapExp	0	105	2	75	1	target	1	520	740	28430	13.328	13.293	13.363
ProbeTrackDT01	12	ProbeTrack	10.4	SCS215a	20100707.090645	20100707.091757	8	0.013328	60	10	60-180	60	64	GapExp	0	106	2	4	0	distractor	1	574	713	29143	13.328	13.159	13.462
ProbeTrackDT01	12	ProbeTrack	10.4	SCS215a	20100707.090645	20100707.091802	8	0.013328	60	10	60-180	60	143	GapExp	0	107	2	1	1	target	1	467	767	29910	13.328	13.125	13.530
ProbeTrackDT01	12	ProbeTrack	10.4	SCS215a	20100707.090645	20100707.091808	8	0.013328	60	10	60-180	60	119	GapExp	0	108	2	75	1	target	1	454	773	30683	13.328	13.276	13.413
ProbeTrackDT01	12	ProbeTrack	10.4	SCS215a	20100707.090645	20100707.091814	8	0.013328	60	10	60-180	60	87	GapExp	0	109	2	2	0	distractor	1	520	740	31423	13.328	13.293	13.363
ProbeTrackDT01	12	ProbeTrack	10.4	SCS215a	20100707.090645	20100707.091819	8	0.013328	60	10	60-180	60	129	GapExp	0	110	2	75	1	target	1	440	780	32203	13.328	13.171	13.518
ProbeTrackDT01	12	ProbeTrack	10.4	SCS215a	20100707.090645	20100707.091826	8	0.013328	60	10	60-180	60	147	GapExp	0	111	2	75	0	distractor	1	507	747	32950	13.328	13.293	13.363
ProbeTrackDT01	12	ProbeTrack	10.4	SCS215a	20100707.090645	20100707.091833	8	0.013328	60	10	60-180	60	152	GapExp	0	112	2	2	1	target	1	760	620	33570	13.686	12.945	40.383
ProbeTrackDT01	12	ProbeTrack	10.4	SCS215a	20100707.090645	20100707.091839	8	0.013328	60	10	60-180	60	176	GapExp	0	113	2	1	0	distractor	1	440	780	34350	13.328	13.286	13.372
ProbeTrackDT01	12	ProbeTrack	10.4	SCS215a	20100707.090645	20100707.091845	8	0.013328	60	10	60-180	60	83	GapExp	0	114	2	75	0	distractor	1	547	727	35077	13.328	13.290	13.363
ProbeTrackDT01	12	ProbeTrack	10.4	SCS215a	20100707.090645	20100707.091851	8	0.013328	60	10	60-180	60	80	GapExp	0	115	2	1	1	target	1	494	753	35830	13.328	13.076	13.614
ProbeTrackDT01	12	ProbeTrack	10.4	SCS215a	20100707.090645	20100707.091856	8	0.013328	60	10	60-180	60	73	GapExp	0	116	2	4	1	target	1	427	787	36617	13.328	13.293	13.363
ProbeTrackDT01	12	ProbeTrack	10.4	SCS215a	20100707.090645	20100707.091901	8	0.013328	60	10	60-180	60	148	GapExp	0	117	2	1	1	target	1	480	760	37377	13.328	13.280	13.433
ProbeTrackDT01	12	ProbeTrack	10.4	SCS215a	20100707.090645	20100707.091907	8	0.013328	60	10	60-180	60	132	GapExp	0	118	2	1	0	distractor	1	973	514	37891	13.328	13.200	13.432
ProbeTrackDT01	12	ProbeTrack	10.4	SCS215a	20100707.090645	20100707.091913	8	0.013328	60	10	60-180	60	61	GapExp	0	119	2	2	1	target	1	627	687	38578	13.328	13.293	13.363
ProbeTrackDT01	12	ProbeTrack	10.4	SCS215a	20100707.090645	20100707.091918	8	0.013328	60	10	60-180	60	93	GapExp	0	120	2	2	1	target	1	494	753	39331	13.328	13.289	13.366
ProbeTrackDT01	12	ProbeTrack	10.4	SCS215a	20100707.090645	20100707.091923	8	0.013328	60	10	60-180	60	157	GapExp	0	121	2	4	0	distractor	1	467	767	40098	13.516	12.794	40.335
ProbeTrackDT01	12	ProbeTrack	10.4	SCS215a	20100707.090645	20100707.091929	8	0.013328	60	10	60-180	60	116	GapExp	0	122	2	2	0	distractor	1	600	700	40798	13.328	13.201	13.439
ProbeTrackDT01	12	ProbeTrack	10.4	SCS215a	20100707.090645	20100707.091935	8	0.013328	60	10	60-180	60	123	GapExp	0	123	2	4	1	distractor	0	667	-1000	39798	13.328	13.293	13.363
ProbeTrackDT01	12	ProbeTrack	10.4	SCS215a	20100707.090645	20100707.091940	8	0.013328	60	10	60-180	60	137	GapExp	0	124	2	4	1	target	1	534	733	40531	13.328	13.101	13.520
ProbeTrackDT01	12	ProbeTrack	10.4	SCS215a	20100707.090645	20100707.091946	8	0.013328	60	10	60-180	60	94	GapExp	0	125	2	4	0	distractor	1	534	733	41264	13.328	13.292	13.363
ProbeTrackDT01	12	ProbeTrack	10.4	SCS215a	20100707.090645	20100707.091951	8	0.013328	60	10	60-180	60	168	GapExp	0	126	2	75	0	distractor	1	667	667	41931	13.328	13.116	13.506
ProbeTrackDT01	12	ProbeTrack	10.4	SCS215a	20100707.090645	20100707.091959	8	0.013328	60	10	60-180	60	131	GapExp	0	127	2	2	0	distractor	1	613	694	42625	13.328	13.060	13.597
ProbeTrackDT01	12	ProbeTrack	10.4	SCS215a	20100707.090645	20100707.092004	8	0.013328	60	10	60-180	60	66	GapExp	0	128	2	75	0	target	0	627	-1000	41625	13.328	13.293	13.363
ProbeTrackDT01	12	ProbeTrack	10.4	SCS215a	20100707.090645	20100707.092010	8	0.013328	60	10	60-180	60	167	GapExp	0	129	2	4	0	distractor	1	693	654	42279	13.328	13.293	13.363
ProbeTrackDT01	12	ProbeTrack	10.4	SCS215a	20100707.090645	20100707.092017	8	0.013328	60	10	60-180	60	118	GapExp	0	130	2	0	0	distractor	1	600	700	42979	13.328	13.289	13.366
ProbeTrackDT01	12	ProbeTrack	10.4	SCS215a	20100707.090645	20100707.092022	8	0.013328	60	10	60-180	60	105	GapExp	0	131	2	4	0	distractor	1	480	760	43739	13.328	13.293	13.363
ProbeTrackDT01	12	ProbeTrack	10.4	SCS215a	20100707.090645	20100707.092028	8	0.013328	60	10	60-180	60	77	GapExp	0	132	2	75	1	target	1	427	787	44526	13.328	13.292	13.364
ProbeTrackDT01	12	ProbeTrack	10.4	SCS215a	20100707.090645	20100707.092033	8	0.013328	60	10	60-180	60	81	GapExp	0	133	2	2	0	distractor	1	533	734	45260	13.328	13.293	13.363
ProbeTrackDT01	12	ProbeTrack	10.4	SCS215a	20100707.090645	20100707.092038	8	0.013328	60	10	60-180	60	80	GapExp	0	134	2	1	0	target	0	1160	-1000	44260	13.328	13.293	13.363
ProbeTrackDT01	12	ProbeTrack	10.4	SCS215a	20100707.090645	20100707.092044	8	0.013328	60	10	60-180	60	70	GapExp	0	135	2	4	0	distractor	1	534	733	44993	13.328	13.293	13.363
ProbeTrackDT01	12	ProbeTrack	10.4	SCS215a	20100707.090645	20100707.092049	8	0.013328	60	10	60-180	60	131	GapExp	0	136	2	75	0	distractor	1	454	773	45766	13.328	13.292	13.363
ProbeTrackDT01	12	ProbeTrack	10.4	SCS215a	20100707.090645	20100707.092056	8	0.013328	60	10	60-180	60	153	GapExp	0	137	2	2	0	distractor	1	707	647	46413	13.328	13.292	13.363
ProbeTrackDT01	12	ProbeTrack	10.4	SCS215a	20100707.090645	20100707.092102	8	0.013328	60	10	60-180	60	115	GapExp	0	138	2	4	0	distractor	1	614	693	47106	13.328	13.290	13.363
ProbeTrackDT01	12	ProbeTrack	10.4	SCS215a	20100707.090645	20100707.092107	8	0.013328	60	10	60-180	60	65	GapExp	0	139	2	1	0	target	0	507	-1000	46106	13.328	13.291	13.363
ProbeTrackDT01	12	ProbeTrack	10.4	SCS215a	20100707.090645	20100707.092112	8	0.013328	60	10	60-180	60	147	GapExp	0	140	2	1	0	distractor	1	653	674	46780	13.328	13.254	13.400
ProbeTrackDT01	12	ProbeTrack	10.4	SCS215a	20100707.090645	20100707.092118	8	0.013328	60	10	60-180	60	142	GapExp	0	141	2	2	0	target	0	520	-1000	45780	13.328	13.293	13.365
ProbeTrackDT01	12	ProbeTrack	10.4	SCS215a	20100707.090645	20100707.092124	8	0.013328	60	10	60-180	60	144	GapExp	0	142	2	75	1	target	1	494	753	46533	13.328	13.165	13.500
ProbeTrackDT01	12	ProbeTrack	10.4	SCS215a	20100707.090645	20100707.092131	8	0.013328	60	10	60-180	60	140	GapExp	0	143	2	2	1	target	1	693	654	47187	13.328	13.290	13.363
ProbeTrackDT01	12	ProbeTrack	10.4	SCS215a	20100707.090645	20100707.092137	8	0.013328	60	10	60-180	60	132	GapExp	0	144	2	0	1	target	1	574	713	47900	13.328	13.293	13.363
ProbeTrackDT01	12	ProbeTrack	10.4	SCS215a	20100707.090645	20100707.092142	8	0.013328	60	10	60-180	60	96	GapExp	0	145	2	2	1	target	1	440	780	48680	13.328	13.289	13.363
ProbeTrackDT01	12	ProbeTrack	10.4	SCS215a	20100707.090645	20100707.092148	8	0.013328	60	10	60-180	60	87	GapExp	0	146	2	0	0	distractor	1	587	707	49387	13.328	13.293	13.363
ProbeTrackDT01	12	ProbeTrack	10.4	SCS215a	20100707.090645	20100707.092153	8	0.013328	60	10	60-180	60	136	GapExp	0	147	2	75	0	distractor	1	787	607	49994	13.328	13.293	13.363
ProbeTrackDT01	12	ProbeTrack	10.4	SCS215a	20100707.090645	20100707.092200	8	0.013328	60	10	60-180	60	102	GapExp	0	148	2	1	0	distractor	1	600	700	50694	13.328	13.178	13.500
ProbeTrackDT01	12	ProbeTrack	10.4	SCS215a	20100707.090645	20100707.092205	8	0.013328	60	10	60-180	60	148	GapExp	0	149	2	4	0	target	0	680	-1000	49694	13.328	12.482	14.209
ProbeTrackDT01	12	ProbeTrack	10.4	SCS215a	20100707.090645	20100707.092211	8	0.013328	60	10	60-180	60	169	GapExp	0	150	2	2	0	distractor	1	707	647	50341	13.371	13.244	26.657
ProbeTrackDT01	12	ProbeTrack	10.4	SCS215a	20100707.090645	20100707.092236	8	0.013328	60	10	60-180	60	129	GapExp	0	151	2	1	0	distractor	1	867	567	50908	13.328	13.293	13.365
ProbeTrackDT01	12	ProbeTrack	10.4	SCS215a	20100707.090645	20100707.092242	8	0.013328	60	10	60-180	60	82	GapExp	0	152	2	2	1	target	1	680	660	51568	13.328	13.292	13.363
ProbeTrackDT01	12	ProbeTrack	10.4	SCS215a	20100707.090645	20100707.092247	8	0.013328	60	10	60-180	60	89	GapExp	0	153	2	1	1	distractor	0	1000	-1000	50568	13.668	13.034	40.344
ProbeTrackDT01	12	ProbeTrack	10.4	SCS215a	20100707.090645	20100707.092252	8	0.013328	60	10	60-180	60	154	GapExp	0	154	2	0	0	distractor	1	547	727	51295	13.328	13.292	13.363
ProbeTrackDT01	12	ProbeTrack	10.4	SCS215a	20100707.090645	20100707.092258	8	0.013328	60	10	60-180	60	162	GapExp	0	155	2	75	1	target	1	467	767	52062	13.328	13.293	13.364
ProbeTrackDT01	12	ProbeTrack	10.4	SCS215a	20100707.090645	20100707.092305	8	0.013328	60	10	60-180	60	79	GapExp	0	156	2	0	0	target	0	640	-1000	51062	13.390	13.107	26.645
ProbeTrackDT01	12	ProbeTrack	10.4	SCS215a	20100707.090645	20100707.092311	8	0.013328	60	10	60-180	60	144	GapExp	0	157	2	2	0	distractor	1	667	667	51729	13.328	13.285	13.370
ProbeTrackDT01	12	ProbeTrack	10.4	SCS215a	20100707.090645	20100707.092317	8	0.013328	60	10	60-180	60	180	GapExp	0	158	2	2	1	distractor	0	627	-1000	50729	13.328	13.291	13.365
ProbeTrackDT01	12	ProbeTrack	10.4	SCS215a	20100707.090645	20100707.092323	8	0.013328	60	10	60-180	60	121	GapExp	0	159	2	1	0	target	0	587	-1000	49729	13.328	13.291	13.366
ProbeTrackDT01	12	ProbeTrack	10.4	SCS215a	20100707.090645	20100707.092329	8	0.013328	60	10	60-180	60	124	GapExp	0	160	2	1	1	target	1	587	707	50436	13.328	13.293	13.363
ProbeTrackDT01	12	ProbeTrack	10.4	SCS215a	20100707.090645	20100707.092334	8	0.013328	60	10	60-180	60	68	GapExp	0	161	2	0	1	target	1	654	673	51109	13.328	13.292	13.363
ProbeTrackDT01	12	ProbeTrack	10.4	SCS215a	20100707.090645	20100707.092339	8	0.013328	60	10	60-180	60	129	GapExp	0	162	2	1	0	distractor	1	614	693	51802	13.328	13.293	13.363
ProbeTrackDT01	12	ProbeTrack	10.4	SCS215a	20100707.090645	20100707.092345	8	0.013328	60	10	60-180	60	69	GapExp	0	163	2	1	1	distractor	0	587	-1000	50802	13.395	12.829	27.188
ProbeTrackDT01	12	ProbeTrack	10.4	SCS215a	20100707.090645	20100707.092350	8	0.013328	60	10	60-180	60	93	GapExp	0	164	2	2	1	target	1	507	747	51549	13.328	13.293	13.363
ProbeTrackDT01	12	ProbeTrack	10.4	SCS215a	20100707.090645	20100707.092355	8	0.013328	60	10	60-180	60	96	GapExp	0	165	2	75	0	target	0	467	-1000	50549	13.328	13.111	13.546
ProbeTrackDT01	12	ProbeTrack	10.4	SCS215a	20100707.090645	20100707.092401	8	0.013328	60	10	60-180	60	158	GapExp	0	166	2	2	1	target	1	414	793	51342	13.328	13.293	13.363
ProbeTrackDT01	12	ProbeTrack	10.4	SCS215a	20100707.090645	20100707.092407	8	0.013328	60	10	60-180	60	120	GapExp	0	167	2	75	1	distractor	0	733	-1000	50342	13.328	13.292	13.363
ProbeTrackDT01	12	ProbeTrack	10.4	SCS215a	20100707.090645	20100707.092414	8	0.013328	60	10	60-180	60	138	GapExp	0	168	2	0	1	target	1	427	787	51129	13.328	13.276	13.363
ProbeTrackDT01	12	ProbeTrack	10.4	SCS215a	20100707.090645	20100707.092420	8	0.013328	60	10	60-180	60	134	GapExp	0	169	2	4	1	target	1	454	773	51902	13.328	13.221	13.412
ProbeTrackDT01	12	ProbeTrack	10.4	SCS215a	20100707.090645	20100707.092425	8	0.013328	60	10	60-180	60	68	GapExp	0	170	2	2	1	target	1	480	760	52662	13.328	13.292	13.362
ProbeTrackDT01	12	ProbeTrack	10.4	SCS215a	20100707.090645	20100707.092430	8	0.013328	60	10	60-180	60	66	GapExp	0	171	2	75	1	target	1	374	813	53475	13.328	13.293	13.363
ProbeTrackDT01	12	ProbeTrack	10.4	SCS215a	20100707.090645	20100707.092436	8	0.013328	60	10	60-180	60	147	GapExp	0	172	2	75	0	distractor	1	653	674	54149	13.328	13.293	13.363
ProbeTrackDT01	12	ProbeTrack	10.4	SCS215a	20100707.090645	20100707.092443	8	0.013328	60	10	60-180	60	69	GapExp	0	173	2	75	0	distractor	1	480	760	54909	13.328	13.215	13.441
ProbeTrackDT01	12	ProbeTrack	10.4	SCS215a	20100707.090645	20100707.092448	8	0.013328	60	10	60-180	60	74	GapExp	0	174	2	75	0	distractor	1	427	787	55696	13.328	13.226	13.465
ProbeTrackDT01	12	ProbeTrack	10.4	SCS215a	20100707.090645	20100707.092454	8	0.013328	60	10	60-180	60	104	GapExp	0	175	2	0	0	target	0	467	-1000	54696	13.328	13.237	13.441
ProbeTrackDT01	12	ProbeTrack	10.4	SCS215a	20100707.090645	20100707.092500	8	0.013328	60	10	60-180	60	148	GapExp	0	176	2	0	1	distractor	0	747	-1000	53696	13.328	13.289	13.366
ProbeTrackDT01	12	ProbeTrack	10.4	SCS215a	20100707.090645	20100707.092506	8	0.013328	60	10	60-180	60	137	GapExp	0	177	2	75	1	target	1	680	660	54356	13.328	12.841	13.815
ProbeTrackDT01	12	ProbeTrack	10.4	SCS215a	20100707.090645	20100707.092513	8	0.013328	60	10	60-180	60	139	GapExp	0	178	2	0	1	target	1	427	787	55143	13.328	13.227	13.429
ProbeTrackDT01	12	ProbeTrack	10.4	SCS215a	20100707.090645	20100707.092518	8	0.013328	60	10	60-180	60	96	GapExp	0	179	2	75	0	target	0	387	-1000	54143	13.328	12.998	13.624
ProbeTrackDT01	12	ProbeTrack	10.4	SCS215a	20100707.090645	20100707.092524	8	0.013328	60	10	60-180	60	120	GapExp	0	180	2	4	0	target	0	467	-1000	53143	13.328	13.108	13.549
ProbeTrackDT01	12	ProbeTrack	10.4	SCS215a	20100707.090645	20100707.092530	8	0.013328	60	10	60-180	60	167	GapExp	0	181	2	75	0	distractor	1	454	773	53916	13.328	13.090	13.601
ProbeTrackDT01	12	ProbeTrack	10.4	SCS215a	20100707.090645	20100707.092537	8	0.013328	60	10	60-180	60	142	GapExp	0	182	2	75	0	distractor	1	461	770	54686	13.328	13.030	13.625
ProbeTrackDT01	12	ProbeTrack	10.4	SCS215a	20100707.090645	20100707.092544	8	0.013328	60	10	60-180	60	180	GapExp	0	183	2	1	1	distractor	0	520	-1000	53686	13.328	12.957	13.671
ProbeTrackDT01	12	ProbeTrack	10.4	SCS215a	20100707.090645	20100707.092550	8	0.013328	60	10	60-180	60	69	GapExp	0	184	2	2	1	target	1	467	767	54453	13.328	13.237	13.419
ProbeTrackDT01	12	ProbeTrack	10.4	SCS215a	20100707.090645	20100707.092555	8	0.013328	60	10	60-180	60	77	GapExp	0	185	2	0	0	distractor	1	467	767	55220	13.328	12.924	13.733
ProbeTrackDT01	12	ProbeTrack	10.4	SCS215a	20100707.090645	20100707.092600	8	0.013328	60	10	60-180	60	88	GapExp	0	186	2	0	1	target	1	547	727	55947	13.328	13.293	13.363
ProbeTrackDT01	12	ProbeTrack	10.4	SCS215a	20100707.090645	20100707.092605	8	0.013328	60	10	60-180	60	90	GapExp	0	187	2	75	1	distractor	0	653	-1000	54947	13.328	13.293	13.377
ProbeTrackDT01	12	ProbeTrack	10.4	SCS215a	20100707.090645	20100707.092611	8	0.013328	60	10	60-180	60	138	GapExp	0	188	2	1	0	distractor	1	560	720	55667	13.328	13.293	13.363
ProbeTrackDT01	12	ProbeTrack	10.4	SCS215a	20100707.090645	20100707.092617	8	0.013328	60	10	60-180	60	108	GapExp	0	189	2	75	0	distractor	1	574	713	56380	13.328	13.293	13.363
ProbeTrackDT01	12	ProbeTrack	10.4	SCS215a	20100707.090645	20100707.092623	8	0.013328	60	10	60-180	60	170	GapExp	0	190	2	75	1	target	1	653	674	57054	13.328	13.289	13.367
ProbeTrackDT01	12	ProbeTrack	10.4	SCS215a	20100707.090645	20100707.092631	8	0.013328	60	10	60-180	60	79	GapExp	0	191	2	4	1	target	1	534	733	57787	13.328	13.293	13.364
ProbeTrackDT01	12	ProbeTrack	10.4	SCS215a	20100707.090645	20100707.092636	8	0.013328	60	10	60-180	60	130	GapExp	0	192	2	0	1	target	1	480	760	58547	13.328	13.293	13.365
ProbeTrackDT01	12	ProbeTrack	10.4	SCS215a	20100707.090645	20100707.092641	8	0.013328	60	10	60-180	60	152	GapExp	0	193	2	4	0	distractor	1	454	773	59320	13.328	13.291	13.363
ProbeTrackDT01	12	ProbeTrack	10.4	SCS215a	20100707.090645	20100707.092647	8	0.013328	60	10	60-180	60	94	GapExp	0	194	2	0	1	target	1	374	813	60133	13.328	13.293	13.363
ProbeTrackDT01	12	ProbeTrack	10.4	SCS215a	20100707.090645	20100707.092652	8	0.013328	60	10	60-180	60	145	GapExp	0	195	2	0	0	target	0	480	-1000	59133	13.328	13.293	13.363
ProbeTrackDT01	12	ProbeTrack	10.4	SCS215a	20100707.090645	20100707.092658	8	0.013328	60	10	60-180	60	121	GapExp	0	196	2	0	0	distractor	1	534	733	59866	13.328	13.293	13.363
ProbeTrackDT01	12	ProbeTrack	10.4	SCS215a	20100707.090645	20100707.092704	8	0.013328	60	10	60-180	60	79	GapExp	0	197	2	4	0	target	0	454	-1000	58866	13.328	13.293	13.363
ProbeTrackDT01	12	ProbeTrack	10.4	SCS215a	20100707.090645	20100707.092708	8	0.013328	60	10	60-180	60	122	GapExp	0	198	2	2	0	distractor	1	467	767	59633	13.328	13.099	13.558
ProbeTrackDT01	12	ProbeTrack	10.4	SCS215a	20100707.090645	20100707.092714	8	0.013328	60	10	60-180	60	144	GapExp	0	199	2	0	0	target	0	560	-1000	58633	13.328	13.292	13.363
ProbeTrackDT01	12	ProbeTrack	10.4	SCS215a	20100707.090645	20100707.092720	8	0.013328	60	10	60-180	60	118	GapExp	0	200	2	4	0	target	0	573	-1000	57633	13.328	13.233	13.458
ProbeTrackDT01	12	ProbeTrack	10.4	SCS215a	20100707.090645	20100707.092744	8	0.013328	60	10	60-180	60	156	GapExp	0	201	2	0	1	target	1	614	693	58326	13.328	13.293	13.363
ProbeTrackDT01	12	ProbeTrack	10.4	SCS215a	20100707.090645	20100707.092750	8	0.013328	60	10	60-180	60	119	GapExp	0	202	2	4	1	target	1	480	760	59086	13.328	13.293	13.363
ProbeTrackDT01	12	ProbeTrack	10.4	SCS215a	20100707.090645	20100707.092755	8	0.013328	60	10	60-180	60	156	GapExp	0	203	2	4	0	distractor	1	627	687	59773	13.328	13.123	13.566
ProbeTrackDT01	12	ProbeTrack	10.4	SCS215a	20100707.090645	20100707.092802	8	0.013328	60	10	60-180	60	158	GapExp	0	204	2	4	1	distractor	0	520	-1000	58773	13.328	13.062	13.595
ProbeTrackDT01	12	ProbeTrack	10.4	SCS215a	20100707.090645	20100707.092808	8	0.013328	60	10	60-180	60	96	GapExp	0	205	2	4	0	distractor	1	467	767	59540	13.328	13.293	13.363
ProbeTrackDT01	12	ProbeTrack	10.4	SCS215a	20100707.090645	20100707.092813	8	0.013328	60	10	60-180	60	115	GapExp	0	206	2	4	0	distractor	1	587	707	60247	13.328	12.993	13.697
ProbeTrackDT01	12	ProbeTrack	10.4	SCS215a	20100707.090645	20100707.092818	8	0.013328	60	10	60-180	60	177	GapExp	0	207	2	1	1	distractor	0	587	-1000	59247	13.328	13.276	13.380
ProbeTrackDT01	12	ProbeTrack	10.4	SCS215a	20100707.090645	20100707.092825	8	0.013328	60	10	60-180	60	154	GapExp	0	208	2	4	0	distractor	1	480	760	60007	13.328	13.152	13.537
ProbeTrackDT01	12	ProbeTrack	10.4	SCS215a	20100707.090645	20100707.092831	8	0.013328	60	10	60-180	60	170	GapExp	0	209	2	0	1	distractor	0	587	-1000	59007	13.372	12.829	27.186
ProbeTrackDT01	12	ProbeTrack	10.4	SCS215a	20100707.090645	20100707.092837	8	0.013328	60	10	60-180	60	110	GapExp	0	210	2	1	0	distractor	1	613	694	59701	13.328	13.174	13.481
