exp	sub	code	rev	comp	runtime	trialtime	nstim	refreshdur	cuedur	gapdur	gapOnsetRange	durPostProbe	gapOnsetTime	blocktype	prac	trial	ntargets	soa	probeTarget	resp	acc	rt	pts	tpts	meanFrameDur	minFrameDur	maxFrameDur
ProbeTrackDT01	16	ProbeTrack	10.4	SCS215a	20100708.085818	20100708.085827	8	0.013331	60	0	60-180	60	82	NoGap	1	1	2	0	0	distractor	1	13235	0	0	13.328	13.015	13.640
ProbeTrackDT01	16	ProbeTrack	10.4	SCS215a	20100708.085818	20100708.085845	8	0.013331	60	0	60-180	60	106	NoGap	1	2	2	1	0	distractor	1	2852	0	0	13.493	12.946	39.949
ProbeTrackDT01	16	ProbeTrack	10.4	SCS215a	20100708.085818	20100708.085852	8	0.013331	60	0	60-180	60	81	NoGap	1	3	2	4	1	distractor	0	2986	-1000	-1000	13.328	13.274	13.380
ProbeTrackDT01	16	ProbeTrack	10.4	SCS215a	20100708.085818	20100708.085900	8	0.013331	60	0	60-180	60	168	NoGap	1	4	2	2	0	distractor	1	1280	360	-640	13.328	12.949	13.674
ProbeTrackDT01	16	ProbeTrack	10.4	SCS215a	20100708.085818	20100708.085907	8	0.013331	60	0	60-180	60	88	NoGap	1	5	2	2	0	distractor	1	1373	314	-326	13.801	13.209	119.920
ProbeTrackDT01	16	ProbeTrack	10.4	SCS215a	20100708.085818	20100708.085912	8	0.013331	60	0	60-180	60	103	NoGap	1	6	2	4	1	target	1	1306	347	21	13.328	13.190	13.465
ProbeTrackDT01	16	ProbeTrack	10.4	SCS215a	20100708.085818	20100708.085918	8	0.013331	60	0	60-180	60	150	NoGap	1	7	2	4	1	target	1	1666	167	188	13.328	13.292	13.363
ProbeTrackDT01	16	ProbeTrack	10.4	SCS215a	20100708.085818	20100708.085925	8	0.013331	60	0	60-180	60	122	NoGap	1	8	2	2	1	target	1	1293	354	542	13.328	13.028	13.627
ProbeTrackDT01	16	ProbeTrack	10.4	SCS215a	20100708.085818	20100708.085932	8	0.013331	60	0	60-180	60	127	NoGap	1	9	2	2	1	target	1	1053	474	1016	13.479	13.177	39.968
ProbeTrackDT01	16	ProbeTrack	10.4	SCS215a	20100708.085818	20100708.085938	8	0.013331	60	0	60-180	60	86	NoGap	1	10	2	0	1	target	1	1147	427	1443	13.328	13.293	13.363
ProbeTrackDT01	16	ProbeTrack	10.4	SCS215a	20100708.085818	20100708.085943	8	0.013331	60	0	60-180	60	115	NoGap	1	11	2	1	1	target	1	1093	454	1897	13.328	13.293	13.363
ProbeTrackDT01	16	ProbeTrack	10.4	SCS215a	20100708.085818	20100708.085949	8	0.013331	60	0	60-180	60	61	NoGap	1	12	2	75	0	distractor	1	1147	427	2324	14.557	12.950	107.001
ProbeTrackDT01	16	ProbeTrack	10.4	SCS215a	20100708.085818	20100708.085956	8	0.013331	60	0	60-180	60	116	NoGap	1	13	2	2	1	target	1	1133	434	2758	13.328	13.293	13.363
ProbeTrackDT01	16	ProbeTrack	10.4	SCS215a	20100708.085818	20100708.090002	8	0.013331	60	0	60-180	60	93	NoGap	1	14	2	1	1	target	1	1013	494	3252	13.386	13.242	26.656
ProbeTrackDT01	16	ProbeTrack	10.4	SCS215a	20100708.085818	20100708.090008	8	0.013331	60	0	60-180	60	146	NoGap	1	15	2	1	0	target	0	693	-1000	2252	13.376	13.137	26.815
ProbeTrackDT01	16	ProbeTrack	10.4	SCS215a	20100708.085818	20100708.090014	8	0.013331	60	0	60-180	60	76	NoGap	1	16	2	75	0	target	0	2119	-1000	1252	13.374	12.995	26.776
ProbeTrackDT01	16	ProbeTrack	10.4	SCS215a	20100708.085818	20100708.090021	8	0.013331	60	0	60-180	60	134	NoGap	1	17	2	75	1	distractor	0	2932	-1000	252	13.366	13.268	26.655
ProbeTrackDT01	16	ProbeTrack	10.4	SCS215a	20100708.085818	20100708.090030	8	0.013331	60	0	60-180	60	179	NoGap	1	18	2	1	1	distractor	0	1573	-1000	-748	13.328	13.163	13.492
ProbeTrackDT01	16	ProbeTrack	10.4	SCS215a	20100708.085818	20100708.090037	8	0.013331	60	0	60-180	60	86	NoGap	1	19	2	4	0	distractor	1	2439	0	-748	15.697	13.081	186.589
ProbeTrackDT01	16	ProbeTrack	10.4	SCS215a	20100708.085818	20100708.090044	8	0.013331	60	0	60-180	60	147	NoGap	1	20	2	1	1	distractor	0	1707	-1000	-1748	13.328	13.293	13.363
ProbeTrackDT01	16	ProbeTrack	10.4	SCS215a	20100708.085818	20100708.090051	8	0.013331	60	0	60-180	60	136	NoGap	1	21	2	0	1	distractor	0	1053	-1000	-2748	13.328	13.292	13.363
ProbeTrackDT01	16	ProbeTrack	10.4	SCS215a	20100708.085818	20100708.090057	8	0.013331	60	0	60-180	60	179	NoGap	1	22	2	0	1	target	1	1906	47	-2701	13.328	12.937	13.685
ProbeTrackDT01	16	ProbeTrack	10.4	SCS215a	20100708.085818	20100708.090105	8	0.013331	60	0	60-180	60	81	NoGap	1	23	2	2	0	distractor	1	1133	434	-2267	13.389	12.959	26.655
ProbeTrackDT01	16	ProbeTrack	10.4	SCS215a	20100708.085818	20100708.090110	8	0.013331	60	0	60-180	60	131	NoGap	1	24	2	0	0	distractor	1	1093	454	-1813	13.328	13.241	13.379
ProbeTrackDT01	16	ProbeTrack	10.4	SCS215a	20100708.085818	20100708.090116	8	0.013331	60	0	60-180	60	71	NoGap	1	25	2	4	0	distractor	1	1506	247	-1566	13.391	13.019	26.998
ProbeTrackDT01	16	ProbeTrack	10.4	SCS215a	20100708.085818	20100708.090122	8	0.013331	60	0	60-180	60	66	NoGap	1	26	2	1	0	distractor	1	1347	327	-1239	13.328	13.293	13.363
ProbeTrackDT01	16	ProbeTrack	10.4	SCS215a	20100708.085818	20100708.090128	8	0.013331	60	0	60-180	60	62	NoGap	1	27	2	0	1	target	1	1054	473	-766	13.328	13.293	13.385
ProbeTrackDT01	16	ProbeTrack	10.4	SCS215a	20100708.085818	20100708.090133	8	0.013331	60	0	60-180	60	73	NoGap	1	28	2	0	0	distractor	1	1027	487	-279	13.328	13.211	13.444
ProbeTrackDT01	16	ProbeTrack	10.4	SCS215a	20100708.085818	20100708.090138	8	0.013331	60	0	60-180	60	173	NoGap	1	29	2	2	0	distractor	1	1093	454	175	13.328	13.177	13.446
ProbeTrackDT01	16	ProbeTrack	10.4	SCS215a	20100708.085818	20100708.090145	8	0.013331	60	0	60-180	60	92	NoGap	1	30	2	75	1	target	1	947	527	702	13.328	13.129	13.526
ProbeTrackDT01	16	ProbeTrack	10.4	SCS215a	20100708.085818	20100708.090151	8	0.013331	60	0	60-180	60	163	NoGap	1	31	2	4	0	distractor	1	680	660	1362	13.328	12.961	13.694
ProbeTrackDT01	16	ProbeTrack	10.4	SCS215a	20100708.085818	20100708.090157	8	0.013331	60	0	60-180	60	100	NoGap	1	32	2	75	0	distractor	1	1147	427	1789	13.328	13.168	13.521
ProbeTrackDT01	16	ProbeTrack	10.4	SCS215a	20100708.085818	20100708.090204	8	0.013331	60	0	60-180	60	75	NoGap	1	33	2	75	1	target	1	1013	494	2283	13.328	12.966	13.720
ProbeTrackDT01	16	ProbeTrack	10.4	SCS215a	20100708.085818	20100708.090210	8	0.013331	60	0	60-180	60	149	NoGap	1	34	2	1	0	distractor	1	1000	500	2783	13.328	13.007	13.649
ProbeTrackDT01	16	ProbeTrack	10.4	SCS215a	20100708.085818	20100708.090217	8	0.013331	60	0	60-180	60	94	NoGap	1	35	2	75	0	distractor	1	1000	500	3283	13.328	12.985	13.638
ProbeTrackDT01	16	ProbeTrack	10.4	SCS215a	20100708.085818	20100708.090223	8	0.013331	60	0	60-180	60	150	NoGap	1	36	2	0	0	distractor	1	1013	494	3777	13.328	13.096	13.525
ProbeTrackDT01	16	ProbeTrack	10.4	SCS215a	20100708.085818	20100708.090229	8	0.013331	60	0	60-180	60	162	NoGap	1	37	2	2	1	target	1	1000	500	4277	13.328	12.976	13.646
ProbeTrackDT01	16	ProbeTrack	10.4	SCS215a	20100708.085818	20100708.090236	8	0.013331	60	0	60-180	60	75	NoGap	1	38	2	4	0	distractor	1	1013	494	4771	13.328	13.293	13.363
ProbeTrackDT01	16	ProbeTrack	10.4	SCS215a	20100708.085818	20100708.090241	8	0.013331	60	0	60-180	60	138	NoGap	1	39	2	4	1	distractor	0	1000	-1000	3771	13.328	13.114	13.508
ProbeTrackDT01	16	ProbeTrack	10.4	SCS215a	20100708.085818	20100708.090247	8	0.013331	60	0	60-180	60	105	NoGap	1	40	2	75	1	target	1	1027	487	4258	13.328	13.123	13.528
ProbeTrackDT01	16	ProbeTrack	10.4	SCS215a	20100708.090335	20100708.090338	8	0.013328	60	10	60-180	60	128	GapPrac	1	1	2	2	0	distractor	1	1653	174	4432	13.328	13.293	13.363
ProbeTrackDT01	16	ProbeTrack	10.4	SCS215a	20100708.090335	20100708.090345	8	0.013328	60	10	60-180	60	177	GapPrac	1	2	2	75	1	target	1	1186	407	4839	13.328	12.923	13.698
ProbeTrackDT01	16	ProbeTrack	10.4	SCS215a	20100708.090335	20100708.090353	8	0.013328	60	10	60-180	60	147	GapPrac	1	3	2	2	1	distractor	0	1240	-1000	3839	13.328	13.055	13.568
ProbeTrackDT01	16	ProbeTrack	10.4	SCS215a	20100708.090335	20100708.090359	8	0.013328	60	10	60-180	60	135	GapPrac	1	4	2	75	0	distractor	1	1586	207	4046	13.328	13.276	13.378
ProbeTrackDT01	16	ProbeTrack	10.4	SCS215a	20100708.090335	20100708.090407	8	0.013328	60	10	60-180	60	70	GapPrac	1	5	2	2	0	target	0	1253	-1000	3046	13.328	13.072	13.617
ProbeTrackDT01	16	ProbeTrack	10.4	SCS215a	20100708.090335	20100708.090413	8	0.013328	60	10	60-180	60	112	GapPrac	1	6	2	4	1	distractor	0	1626	-1000	2046	13.328	13.132	13.524
ProbeTrackDT01	16	ProbeTrack	10.4	SCS215a	20100708.090335	20100708.090419	8	0.013328	60	10	60-180	60	120	GapPrac	1	7	2	0	0	distractor	1	1400	300	2346	13.328	13.162	13.461
ProbeTrackDT01	16	ProbeTrack	10.4	SCS215a	20100708.090335	20100708.090426	8	0.013328	60	10	60-180	60	119	GapPrac	1	8	2	1	1	target	1	1413	294	2640	13.328	13.098	13.540
ProbeTrackDT01	16	ProbeTrack	10.4	SCS215a	20100708.090335	20100708.090432	8	0.013328	60	10	60-180	60	158	GapPrac	1	9	2	4	1	target	1	2333	0	2640	13.328	13.044	13.612
ProbeTrackDT01	16	ProbeTrack	10.4	SCS215a	20100708.090335	20100708.090440	8	0.013328	60	10	60-180	60	151	GapPrac	1	10	2	1	0	distractor	1	813	594	3234	13.328	13.293	13.363
ProbeTrackDT01	16	ProbeTrack	10.4	SCS215a	20100708.090335	20100708.090446	8	0.013328	60	10	60-180	60	166	GapPrac	1	11	2	0	0	target	0	680	-1000	2234	13.328	13.292	13.363
ProbeTrackDT01	16	ProbeTrack	10.4	SCS215a	20100708.090335	20100708.090453	8	0.013328	60	10	60-180	60	117	GapPrac	1	12	2	75	0	distractor	1	1413	294	2528	13.328	13.293	13.363
ProbeTrackDT01	16	ProbeTrack	10.4	SCS215a	20100708.090335	20100708.090500	8	0.013328	60	10	60-180	60	80	GapPrac	1	13	2	2	1	target	1	1720	140	2668	13.328	13.081	13.609
ProbeTrackDT01	16	ProbeTrack	10.4	SCS215a	20100708.090335	20100708.090506	8	0.013328	60	10	60-180	60	161	GapPrac	1	14	2	4	0	distractor	1	933	534	3202	13.328	13.204	13.452
ProbeTrackDT01	16	ProbeTrack	10.4	SCS215a	20100708.090335	20100708.090513	8	0.013328	60	10	60-180	60	135	GapPrac	1	15	2	0	1	target	1	773	614	3816	13.328	13.293	13.363
ProbeTrackDT01	16	ProbeTrack	10.4	SCS215a	20100708.090335	20100708.090519	8	0.013328	60	10	60-180	60	108	GapPrac	1	16	2	1	0	target	0	1013	-1000	2816	13.328	13.170	13.520
ProbeTrackDT01	16	ProbeTrack	10.4	SCS215a	20100708.090335	20100708.090524	8	0.013328	60	10	60-180	60	180	GapPrac	1	17	2	0	1	target	1	987	507	3323	13.328	13.040	13.616
ProbeTrackDT01	16	ProbeTrack	10.4	SCS215a	20100708.090335	20100708.090531	8	0.013328	60	10	60-180	60	180	GapPrac	1	18	2	1	1	target	1	747	627	3950	13.328	13.109	13.547
ProbeTrackDT01	16	ProbeTrack	10.4	SCS215a	20100708.090335	20100708.090538	8	0.013328	60	10	60-180	60	81	GapPrac	1	19	2	4	0	target	0	880	-1000	2950	13.328	13.293	13.363
ProbeTrackDT01	16	ProbeTrack	10.4	SCS215a	20100708.090335	20100708.090543	8	0.013328	60	10	60-180	60	126	GapPrac	1	20	2	75	1	target	1	640	680	3630	13.328	13.293	13.363
ProbeTrackDT01	16	ProbeTrack	10.4	SCS215a	20100708.090652	20100708.090657	8	0.013328	60	10	60-180	60	139	GapPrac	1	1	2	2	1	distractor	0	987	-1000	2630	13.328	13.293	13.363
ProbeTrackDT01	16	ProbeTrack	10.4	SCS215a	20100708.090652	20100708.090703	8	0.013328	60	10	60-180	60	67	GapPrac	1	2	2	2	0	distractor	1	6784	0	2630	13.328	13.190	13.466
ProbeTrackDT01	16	ProbeTrack	10.4	SCS215a	20100708.090652	20100708.090714	8	0.013328	60	10	60-180	60	177	GapPrac	1	3	2	1	0	target	0	680	-1000	1630	13.328	13.211	13.477
ProbeTrackDT01	16	ProbeTrack	10.4	SCS215a	20100708.090652	20100708.090720	8	0.013328	60	10	60-180	60	140	GapPrac	1	4	2	4	0	distractor	1	120	940	2570	13.328	13.291	13.363
ProbeTrackDT01	16	ProbeTrack	10.4	SCS215a	20100708.090652	20100708.090726	8	0.013328	60	10	60-180	60	80	GapPrac	1	5	2	1	0	target	0	693	-1000	1570	13.328	13.293	13.363
ProbeTrackDT01	16	ProbeTrack	10.4	SCS215a	20100708.090652	20100708.090731	8	0.013328	60	10	60-180	60	81	GapPrac	1	6	2	0	1	distractor	0	1653	-1000	570	13.328	13.158	13.496
ProbeTrackDT01	16	ProbeTrack	10.4	SCS215a	20100708.090652	20100708.090737	8	0.013328	60	10	60-180	60	171	GapPrac	1	7	2	75	0	target	0	720	-1000	-430	13.328	13.293	13.385
ProbeTrackDT01	16	ProbeTrack	10.4	SCS215a	20100708.090652	20100708.090745	8	0.013328	60	10	60-180	60	116	GapPrac	1	8	2	75	0	distractor	1	1346	327	-103	13.328	13.213	13.442
ProbeTrackDT01	16	ProbeTrack	10.4	SCS215a	20100708.090652	20100708.090752	8	0.013328	60	10	60-180	60	132	GapPrac	1	9	2	2	0	target	0	640	-1000	-1103	13.328	13.273	13.417
ProbeTrackDT01	16	ProbeTrack	10.4	SCS215a	20100708.090652	20100708.090758	8	0.013328	60	10	60-180	60	99	GapPrac	1	10	2	4	0	distractor	1	2306	0	-1103	13.328	13.259	13.364
ProbeTrackDT01	16	ProbeTrack	10.4	SCS215a	20100708.090652	20100708.090805	8	0.013328	60	10	60-180	60	65	GapPrac	1	11	2	4	1	target	1	1453	274	-829	13.328	13.124	13.498
ProbeTrackDT01	16	ProbeTrack	10.4	SCS215a	20100708.090652	20100708.090811	8	0.013328	60	10	60-180	60	86	GapPrac	1	12	2	75	1	distractor	0	334	-1000	-1829	13.328	13.293	13.369
ProbeTrackDT01	16	ProbeTrack	10.4	SCS215a	20100708.090652	20100708.090817	8	0.013328	60	10	60-180	60	86	GapPrac	1	13	2	1	1	target	1	2319	0	-1829	13.328	12.838	13.783
ProbeTrackDT01	16	ProbeTrack	10.4	SCS215a	20100708.090652	20100708.090823	8	0.013328	60	10	60-180	60	175	GapPrac	1	14	2	0	1	distractor	0	1147	-1000	-2829	13.328	13.292	13.365
ProbeTrackDT01	16	ProbeTrack	10.4	SCS215a	20100708.090652	20100708.090830	8	0.013328	60	10	60-180	60	94	GapPrac	1	15	2	2	1	target	1	1720	140	-2689	13.328	13.175	13.513
ProbeTrackDT01	16	ProbeTrack	10.4	SCS215a	20100708.090652	20100708.090837	8	0.013328	60	10	60-180	60	117	GapPrac	1	16	2	4	1	distractor	0	1973	-1000	-3689	13.328	13.293	13.363
ProbeTrackDT01	16	ProbeTrack	10.4	SCS215a	20100708.090652	20100708.090844	8	0.013328	60	10	60-180	60	75	GapPrac	1	17	2	0	0	target	0	1533	-1000	-4689	13.328	13.032	13.658
ProbeTrackDT01	16	ProbeTrack	10.4	SCS215a	20100708.090652	20100708.090850	8	0.013328	60	10	60-180	60	155	GapPrac	1	18	2	0	0	distractor	1	1120	440	-4249	13.328	13.251	13.405
ProbeTrackDT01	16	ProbeTrack	10.4	SCS215a	20100708.090652	20100708.090856	8	0.013328	60	10	60-180	60	94	GapPrac	1	19	2	75	1	target	1	1306	347	-3902	13.328	13.293	13.363
ProbeTrackDT01	16	ProbeTrack	10.4	SCS215a	20100708.090652	20100708.090903	8	0.013328	60	10	60-180	60	142	GapPrac	1	20	2	1	1	distractor	0	3852	-1000	-4902	13.328	13.293	13.363
ProbeTrackDT01	16	ProbeTrack	10.4	SCS215a	20100708.091036	20100708.091042	8	0.013328	60	10	60-180	60	161	GapExp	1	1	2	2	0	distractor	1	987	507	-4395	13.328	13.293	13.362
ProbeTrackDT01	16	ProbeTrack	10.4	SCS215a	20100708.091036	20100708.091048	8	0.013328	60	10	60-180	60	71	GapExp	1	2	2	4	0	target	0	1146	-1000	-5395	13.570	13.293	66.159
ProbeTrackDT01	16	ProbeTrack	10.4	SCS215a	20100708.091036	20100708.091054	8	0.013328	60	10	60-180	60	78	GapExp	1	3	2	0	0	distractor	1	1640	180	-5215	13.328	13.293	13.363
ProbeTrackDT01	16	ProbeTrack	10.4	SCS215a	20100708.091036	20100708.091100	8	0.013328	60	10	60-180	60	75	GapExp	1	4	2	2	1	target	1	1280	360	-4855	13.328	13.292	13.363
ProbeTrackDT01	16	ProbeTrack	10.4	SCS215a	20100708.091036	20100708.091106	8	0.013328	60	10	60-180	60	135	GapExp	1	5	2	1	0	distractor	1	2773	0	-4855	13.328	13.292	13.363
ProbeTrackDT01	16	ProbeTrack	10.4	SCS215a	20100708.091036	20100708.091114	8	0.013328	60	10	60-180	60	172	GapExp	1	6	2	0	1	target	1	1520	240	-4615	13.328	13.159	13.529
ProbeTrackDT01	16	ProbeTrack	10.4	SCS215a	20100708.091036	20100708.091121	8	0.013328	60	10	60-180	60	81	GapExp	1	7	2	75	1	distractor	0	813	-1000	-5615	13.328	13.293	13.363
ProbeTrackDT01	16	ProbeTrack	10.4	SCS215a	20100708.091036	20100708.091127	8	0.013328	60	10	60-180	60	72	GapExp	1	8	2	1	1	distractor	0	1080	-1000	-6615	13.328	13.293	13.376
ProbeTrackDT01	16	ProbeTrack	10.4	SCS215a	20100708.091036	20100708.091133	8	0.013328	60	10	60-180	60	66	GapExp	1	9	2	75	0	target	0	5425	-1000	-7615	13.328	13.074	13.548
ProbeTrackDT01	16	ProbeTrack	10.4	SCS215a	20100708.091036	20100708.091143	8	0.013328	60	10	60-180	60	73	GapExp	1	10	2	4	1	target	1	7144	0	-7615	13.328	13.030	13.659
ProbeTrackDT01	16	ProbeTrack	10.4	SCS215a	20100708.091036	20100708.091155	8	0.013328	60	10	60-180	60	169	GapExp	0	11	2	1	1	distractor	0	1413	-1000	-8615	13.328	13.091	13.531
ProbeTrackDT01	16	ProbeTrack	10.4	SCS215a	20100708.091036	20100708.091202	8	0.013328	60	10	60-180	60	150	GapExp	0	12	2	75	0	distractor	1	880	560	-8055	13.328	13.215	13.406
ProbeTrackDT01	16	ProbeTrack	10.4	SCS215a	20100708.091036	20100708.091210	8	0.013328	60	10	60-180	60	135	GapExp	0	13	2	0	0	target	0	960	-1000	-9055	13.328	13.288	13.363
ProbeTrackDT01	16	ProbeTrack	10.4	SCS215a	20100708.091036	20100708.091216	8	0.013328	60	10	60-180	60	118	GapExp	0	14	2	2	1	distractor	0	3879	-1000	-10055	13.328	13.292	13.363
ProbeTrackDT01	16	ProbeTrack	10.4	SCS215a	20100708.091036	20100708.091225	8	0.013328	60	10	60-180	60	77	GapExp	0	15	2	2	0	distractor	1	1253	374	-9681	13.328	13.260	13.428
ProbeTrackDT01	16	ProbeTrack	10.4	SCS215a	20100708.091036	20100708.091230	8	0.013328	60	10	60-180	60	100	GapExp	0	16	2	4	0	target	0	2013	-1000	-10681	13.328	13.133	13.489
ProbeTrackDT01	16	ProbeTrack	10.4	SCS215a	20100708.091036	20100708.091237	8	0.013328	60	10	60-180	60	163	GapExp	0	17	2	2	1	distractor	0	1800	-1000	-11681	13.328	13.244	13.410
ProbeTrackDT01	16	ProbeTrack	10.4	SCS215a	20100708.091036	20100708.091245	8	0.013328	60	10	60-180	60	110	GapExp	0	18	2	1	0	target	0	4225	-1000	-12681	13.328	13.293	13.363
ProbeTrackDT01	16	ProbeTrack	10.4	SCS215a	20100708.091036	20100708.091254	8	0.013328	60	10	60-180	60	147	GapExp	0	19	2	1	1	target	1	7957	0	-12681	13.328	13.191	13.431
ProbeTrackDT01	16	ProbeTrack	10.4	SCS215a	20100708.091036	20100708.091307	8	0.013328	60	10	60-180	60	115	GapExp	0	20	2	0	0	distractor	1	5718	0	-12681	13.328	13.288	13.401
ProbeTrackDT01	16	ProbeTrack	10.4	SCS215a	20100708.091036	20100708.091318	8	0.013328	60	10	60-180	60	98	GapExp	0	21	2	75	1	target	1	2786	0	-12681	13.328	13.293	13.367
ProbeTrackDT01	16	ProbeTrack	10.4	SCS215a	20100708.091036	20100708.091327	8	0.013328	60	10	60-180	60	159	GapExp	0	22	2	2	1	target	1	1946	27	-12654	13.328	13.264	13.425
ProbeTrackDT01	16	ProbeTrack	10.4	SCS215a	20100708.091036	20100708.091334	8	0.013328	60	10	60-180	60	86	GapExp	0	23	2	75	1	distractor	0	7371	-1000	-13654	13.328	13.293	13.363
ProbeTrackDT01	16	ProbeTrack	10.4	SCS215a	20100708.091036	20100708.091347	8	0.013328	60	10	60-180	60	112	GapExp	0	24	2	2	0	distractor	1	1306	347	-13307	13.328	13.289	13.363
ProbeTrackDT01	16	ProbeTrack	10.4	SCS215a	20100708.091036	20100708.091353	8	0.013328	60	10	60-180	60	158	GapExp	0	25	2	1	1	target	1	120	940	-12367	13.328	13.185	13.487
ProbeTrackDT01	16	ProbeTrack	10.4	SCS215a	20100708.091036	20100708.091359	8	0.013328	60	10	60-180	60	164	GapExp	0	26	2	75	0	distractor	1	1080	460	-11907	13.328	13.141	13.516
ProbeTrackDT01	16	ProbeTrack	10.4	SCS215a	20100708.091036	20100708.091407	8	0.013328	60	10	60-180	60	66	GapExp	0	27	2	4	0	distractor	1	1466	267	-11640	13.328	13.229	13.460
ProbeTrackDT01	16	ProbeTrack	10.4	SCS215a	20100708.091036	20100708.091412	8	0.013328	60	10	60-180	60	104	GapExp	0	28	2	75	0	distractor	1	8317	0	-11640	13.328	13.276	13.363
ProbeTrackDT01	16	ProbeTrack	10.4	SCS215a	20100708.091036	20100708.091427	8	0.013328	60	10	60-180	60	142	GapExp	0	29	2	0	0	distractor	1	2119	0	-11640	13.328	12.880	13.741
ProbeTrackDT01	16	ProbeTrack	10.4	SCS215a	20100708.091036	20100708.091434	8	0.013328	60	10	60-180	60	78	GapExp	0	30	2	4	0	target	0	1493	-1000	-12640	13.328	13.233	13.391
ProbeTrackDT01	16	ProbeTrack	10.4	SCS215a	20100708.091036	20100708.091440	8	0.013328	60	10	60-180	60	119	GapExp	0	31	2	0	1	distractor	0	3372	-1000	-13640	13.328	13.288	13.363
ProbeTrackDT01	16	ProbeTrack	10.4	SCS215a	20100708.091036	20100708.091448	8	0.013328	60	10	60-180	60	134	GapExp	0	32	2	75	0	distractor	1	1013	494	-13146	13.328	13.232	13.550
ProbeTrackDT01	16	ProbeTrack	10.4	SCS215a	20100708.091036	20100708.091456	8	0.013328	60	10	60-180	60	87	GapExp	0	33	2	2	1	distractor	0	1200	-1000	-14146	13.328	13.284	13.405
ProbeTrackDT01	16	ProbeTrack	10.4	SCS215a	20100708.091036	20100708.091501	8	0.013328	60	10	60-180	60	99	GapExp	0	34	2	4	0	distractor	1	973	514	-13632	13.328	13.293	13.363
ProbeTrackDT01	16	ProbeTrack	10.4	SCS215a	20100708.091036	20100708.091507	8	0.013328	60	10	60-180	60	115	GapExp	0	35	2	2	1	target	1	3652	0	-13632	13.328	13.173	13.448
ProbeTrackDT01	16	ProbeTrack	10.4	SCS215a	20100708.091036	20100708.091516	8	0.013328	60	10	60-180	60	179	GapExp	0	36	2	1	1	distractor	0	1200	-1000	-14632	13.328	13.149	13.472
ProbeTrackDT01	16	ProbeTrack	10.4	SCS215a	20100708.091036	20100708.091523	8	0.013328	60	10	60-180	60	179	GapExp	0	37	2	75	0	distractor	1	1067	467	-14165	13.328	13.239	13.417
ProbeTrackDT01	16	ProbeTrack	10.4	SCS215a	20100708.091036	20100708.091531	8	0.013328	60	10	60-180	60	108	GapExp	0	38	2	1	0	distractor	1	1053	474	-13691	13.328	13.131	13.490
ProbeTrackDT01	16	ProbeTrack	10.4	SCS215a	20100708.091036	20100708.091537	8	0.013328	60	10	60-180	60	62	GapExp	0	39	2	0	1	target	1	1173	414	-13277	13.328	13.209	13.413
ProbeTrackDT01	16	ProbeTrack	10.4	SCS215a	20100708.091036	20100708.091542	8	0.013328	60	10	60-180	60	174	GapExp	0	40	2	1	0	distractor	1	1280	360	-12917	13.328	13.293	13.363
ProbeTrackDT01	16	ProbeTrack	10.4	SCS215a	20100708.091036	20100708.091549	8	0.013328	60	10	60-180	60	62	GapExp	0	41	2	0	1	distractor	0	2079	-1000	-13917	13.328	13.291	13.363
ProbeTrackDT01	16	ProbeTrack	10.4	SCS215a	20100708.091036	20100708.091555	8	0.013328	60	10	60-180	60	106	GapExp	0	42	2	0	0	target	0	7051	-1000	-14917	13.328	13.047	13.608
ProbeTrackDT01	16	ProbeTrack	10.4	SCS215a	20100708.091036	20100708.091607	8	0.013328	60	10	60-180	60	80	GapExp	0	43	2	2	0	distractor	1	1160	420	-14497	13.328	13.290	13.363
ProbeTrackDT01	16	ProbeTrack	10.4	SCS215a	20100708.091036	20100708.091613	8	0.013328	60	10	60-180	60	98	GapExp	0	44	2	2	1	distractor	0	1466	-1000	-15497	13.328	13.250	13.439
ProbeTrackDT01	16	ProbeTrack	10.4	SCS215a	20100708.091036	20100708.091619	8	0.013328	60	10	60-180	60	81	GapExp	0	45	2	0	0	target	0	5265	-1000	-16497	13.328	13.293	13.363
ProbeTrackDT01	16	ProbeTrack	10.4	SCS215a	20100708.091036	20100708.091629	8	0.013328	60	10	60-180	60	127	GapExp	0	46	2	1	1	distractor	0	1506	-1000	-17497	13.328	13.252	13.436
ProbeTrackDT01	16	ProbeTrack	10.4	SCS215a	20100708.091036	20100708.091636	8	0.013328	60	10	60-180	60	175	GapExp	0	47	2	4	1	distractor	0	1013	-1000	-18497	13.328	13.250	13.405
ProbeTrackDT01	16	ProbeTrack	10.4	SCS215a	20100708.091036	20100708.091643	8	0.013328	60	10	60-180	60	160	GapExp	0	48	2	0	1	distractor	0	1107	-1000	-19497	13.328	13.293	13.384
ProbeTrackDT01	16	ProbeTrack	10.4	SCS215a	20100708.091036	20100708.091649	8	0.013328	60	10	60-180	60	144	GapExp	0	49	2	75	0	distractor	1	4145	0	-19497	13.328	13.293	13.363
ProbeTrackDT01	16	ProbeTrack	10.4	SCS215a	20100708.091036	20100708.091700	8	0.013328	60	10	60-180	60	154	GapExp	0	50	2	4	0	target	0	3212	-1000	-20497	13.328	13.293	13.363
ProbeTrackDT01	16	ProbeTrack	10.4	SCS215a	20100708.091036	20100708.091851	8	0.013328	60	10	60-180	60	154	GapExp	0	51	2	4	0	distractor	1	1107	447	-20050	13.328	13.293	13.363
ProbeTrackDT01	16	ProbeTrack	10.4	SCS215a	20100708.091036	20100708.091858	8	0.013328	60	10	60-180	60	78	GapExp	0	52	2	1	1	target	1	1973	14	-20036	13.328	13.192	13.429
ProbeTrackDT01	16	ProbeTrack	10.4	SCS215a	20100708.091036	20100708.091904	8	0.013328	60	10	60-180	60	103	GapExp	0	53	2	4	0	distractor	1	1306	347	-19689	13.328	13.234	13.388
ProbeTrackDT01	16	ProbeTrack	10.4	SCS215a	20100708.091036	20100708.091910	8	0.013328	60	10	60-180	60	143	GapExp	0	54	2	75	0	distractor	1	1093	454	-19235	13.328	13.292	13.363
ProbeTrackDT01	16	ProbeTrack	10.4	SCS215a	20100708.091036	20100708.091918	8	0.013328	60	10	60-180	60	91	GapExp	0	55	2	4	1	distractor	0	1306	-1000	-20235	13.328	13.293	13.376
ProbeTrackDT01	16	ProbeTrack	10.4	SCS215a	20100708.091036	20100708.091924	8	0.013328	60	10	60-180	60	175	GapExp	0	56	2	75	1	target	1	1466	267	-19968	13.328	13.258	13.397
ProbeTrackDT01	16	ProbeTrack	10.4	SCS215a	20100708.091036	20100708.091932	8	0.013328	60	10	60-180	60	133	GapExp	0	57	2	4	0	distractor	1	1013	494	-19474	13.328	13.188	13.501
ProbeTrackDT01	16	ProbeTrack	10.4	SCS215a	20100708.091036	20100708.091938	8	0.013328	60	10	60-180	60	141	GapExp	0	58	2	0	1	target	1	1413	294	-19180	13.328	13.276	13.380
ProbeTrackDT01	16	ProbeTrack	10.4	SCS215a	20100708.091036	20100708.091945	8	0.013328	60	10	60-180	60	161	GapExp	0	59	2	4	1	distractor	0	1893	-1000	-20180	13.328	13.293	13.363
ProbeTrackDT01	16	ProbeTrack	10.4	SCS215a	20100708.091036	20100708.091952	8	0.013328	60	10	60-180	60	120	GapExp	0	60	2	0	0	target	0	2799	-1000	-21180	13.328	13.292	13.363
ProbeTrackDT01	16	ProbeTrack	10.4	SCS215a	20100708.091036	20100708.092000	8	0.013328	60	10	60-180	60	146	GapExp	0	61	2	75	1	target	1	1426	287	-20893	13.328	13.157	13.500
ProbeTrackDT01	16	ProbeTrack	10.4	SCS215a	20100708.091036	20100708.092008	8	0.013328	60	10	60-180	60	80	GapExp	0	62	2	75	1	distractor	0	1653	-1000	-21893	13.328	13.163	13.493
ProbeTrackDT01	16	ProbeTrack	10.4	SCS215a	20100708.091036	20100708.092015	8	0.013328	60	10	60-180	60	92	GapExp	0	63	2	2	1	distractor	0	2892	-1000	-22893	13.328	13.293	13.363
ProbeTrackDT01	16	ProbeTrack	10.4	SCS215a	20100708.091036	20100708.092023	8	0.013328	60	10	60-180	60	65	GapExp	0	64	2	0	1	distractor	0	1786	-1000	-23893	13.328	13.293	13.363
ProbeTrackDT01	16	ProbeTrack	10.4	SCS215a	20100708.091036	20100708.092029	8	0.013328	60	10	60-180	60	118	GapExp	0	65	2	75	0	distractor	1	853	574	-23319	13.328	13.263	13.426
ProbeTrackDT01	16	ProbeTrack	10.4	SCS215a	20100708.091036	20100708.092036	8	0.013328	60	10	60-180	60	83	GapExp	0	66	2	0	1	distractor	0	1360	-1000	-24319	13.328	13.287	13.402
ProbeTrackDT01	16	ProbeTrack	10.4	SCS215a	20100708.091036	20100708.092042	8	0.013328	60	10	60-180	60	162	GapExp	0	67	2	75	0	target	0	2333	-1000	-25319	13.328	13.139	13.484
ProbeTrackDT01	16	ProbeTrack	10.4	SCS215a	20100708.091036	20100708.092051	8	0.013328	60	10	60-180	60	167	GapExp	0	68	2	1	0	distractor	1	1040	480	-24839	13.328	13.126	13.565
ProbeTrackDT01	16	ProbeTrack	10.4	SCS215a	20100708.091036	20100708.092057	8	0.013328	60	10	60-180	60	77	GapExp	0	69	2	75	1	distractor	0	2253	-1000	-25839	13.328	13.097	13.526
ProbeTrackDT01	16	ProbeTrack	10.4	SCS215a	20100708.091036	20100708.092105	8	0.013328	60	10	60-180	60	139	GapExp	0	70	2	0	1	distractor	0	1107	-1000	-26839	13.328	13.160	13.463
ProbeTrackDT01	16	ProbeTrack	10.4	SCS215a	20100708.091036	20100708.092111	8	0.013328	60	10	60-180	60	69	GapExp	0	71	2	4	0	distractor	1	2479	0	-26839	13.328	13.102	13.555
ProbeTrackDT01	16	ProbeTrack	10.4	SCS215a	20100708.091036	20100708.092118	8	0.013328	60	10	60-180	60	94	GapExp	0	72	2	0	0	distractor	1	1067	467	-26372	13.328	13.290	13.363
ProbeTrackDT01	16	ProbeTrack	10.4	SCS215a	20100708.091036	20100708.092124	8	0.013328	60	10	60-180	60	165	GapExp	0	73	2	0	0	distractor	1	1053	474	-25898	13.328	13.293	13.363
ProbeTrackDT01	16	ProbeTrack	10.4	SCS215a	20100708.091036	20100708.092131	8	0.013328	60	10	60-180	60	71	GapExp	0	74	2	0	1	target	1	1626	187	-25711	13.328	13.133	13.489
ProbeTrackDT01	16	ProbeTrack	10.4	SCS215a	20100708.091036	20100708.092137	8	0.013328	60	10	60-180	60	106	GapExp	0	75	2	2	0	distractor	1	3825	0	-25711	13.328	13.231	13.424
ProbeTrackDT01	16	ProbeTrack	10.4	SCS215a	20100708.091036	20100708.092145	8	0.013328	60	10	60-180	60	159	GapExp	0	76	2	75	1	target	1	1840	80	-25631	13.328	13.128	13.527
ProbeTrackDT01	16	ProbeTrack	10.4	SCS215a	20100708.091036	20100708.092154	8	0.013328	60	10	60-180	60	116	GapExp	0	77	2	75	1	distractor	0	1027	-1000	-26631	13.328	13.182	13.473
ProbeTrackDT01	16	ProbeTrack	10.4	SCS215a	20100708.091036	20100708.092201	8	0.013328	60	10	60-180	60	179	GapExp	0	78	2	4	1	target	1	1067	467	-26164	13.368	13.293	26.333
ProbeTrackDT01	16	ProbeTrack	10.4	SCS215a	20100708.091036	20100708.092208	8	0.013328	60	10	60-180	60	164	GapExp	0	79	2	1	1	target	1	760	620	-25544	13.328	13.012	13.677
ProbeTrackDT01	16	ProbeTrack	10.4	SCS215a	20100708.091036	20100708.092214	8	0.013328	60	10	60-180	60	74	GapExp	0	80	2	75	0	distractor	1	813	594	-24950	13.328	13.217	13.406
ProbeTrackDT01	16	ProbeTrack	10.4	SCS215a	20100708.091036	20100708.092220	8	0.013328	60	10	60-180	60	148	GapExp	0	81	2	1	1	distractor	0	1293	-1000	-25950	13.328	13.231	13.423
ProbeTrackDT01	16	ProbeTrack	10.4	SCS215a	20100708.091036	20100708.092227	8	0.013328	60	10	60-180	60	177	GapExp	0	82	2	0	1	target	1	1266	367	-25583	13.328	13.293	13.363
ProbeTrackDT01	16	ProbeTrack	10.4	SCS215a	20100708.091036	20100708.092234	8	0.013328	60	10	60-180	60	177	GapExp	0	83	2	75	1	target	1	1760	120	-25463	13.328	13.159	13.530
ProbeTrackDT01	16	ProbeTrack	10.4	SCS215a	20100708.091036	20100708.092243	8	0.013328	60	10	60-180	60	153	GapExp	0	84	2	2	1	distractor	0	1293	-1000	-26463	13.328	13.055	13.601
ProbeTrackDT01	16	ProbeTrack	10.4	SCS215a	20100708.091036	20100708.092249	8	0.013328	60	10	60-180	60	113	GapExp	0	85	2	75	1	target	1	1840	80	-26383	13.328	13.108	13.549
ProbeTrackDT01	16	ProbeTrack	10.4	SCS215a	20100708.091036	20100708.092257	8	0.013328	60	10	60-180	60	143	GapExp	0	86	2	75	1	distractor	0	1186	-1000	-27383	13.328	13.089	13.532
ProbeTrackDT01	16	ProbeTrack	10.4	SCS215a	20100708.091036	20100708.092305	8	0.013328	60	10	60-180	60	154	GapExp	0	87	2	75	1	target	1	693	654	-26729	13.328	13.210	13.411
ProbeTrackDT01	16	ProbeTrack	10.4	SCS215a	20100708.091036	20100708.092312	8	0.013328	60	10	60-180	60	130	GapExp	0	88	2	4	0	target	0	2533	-1000	-27729	13.376	13.099	26.655
ProbeTrackDT01	16	ProbeTrack	10.4	SCS215a	20100708.091036	20100708.092320	8	0.013328	60	10	60-180	60	166	GapExp	0	89	2	75	0	distractor	1	1426	287	-27442	13.328	13.229	13.426
ProbeTrackDT01	16	ProbeTrack	10.4	SCS215a	20100708.091036	20100708.092328	8	0.013328	60	10	60-180	60	166	GapExp	0	90	2	4	1	target	1	1613	194	-27248	13.328	13.147	13.541
ProbeTrackDT01	16	ProbeTrack	10.4	SCS215a	20100708.091036	20100708.092335	8	0.013328	60	10	60-180	60	81	GapExp	0	91	2	4	0	distractor	1	1733	134	-27114	13.328	13.114	13.542
ProbeTrackDT01	16	ProbeTrack	10.4	SCS215a	20100708.091036	20100708.092341	8	0.013328	60	10	60-180	60	178	GapExp	0	92	2	4	0	distractor	1	933	534	-26580	13.328	13.162	13.528
ProbeTrackDT01	16	ProbeTrack	10.4	SCS215a	20100708.091036	20100708.092348	8	0.013328	60	10	60-180	60	164	GapExp	0	93	2	4	1	distractor	0	1733	-1000	-27580	13.328	13.267	13.388
ProbeTrackDT01	16	ProbeTrack	10.4	SCS215a	20100708.091036	20100708.092355	8	0.013328	60	10	60-180	60	87	GapExp	0	94	2	75	1	distractor	0	840	-1000	-28580	13.328	13.165	13.524
ProbeTrackDT01	16	ProbeTrack	10.4	SCS215a	20100708.091036	20100708.092402	8	0.013328	60	10	60-180	60	77	GapExp	0	95	2	4	0	distractor	1	1027	487	-28093	13.328	13.293	13.363
ProbeTrackDT01	16	ProbeTrack	10.4	SCS215a	20100708.091036	20100708.092407	8	0.013328	60	10	60-180	60	146	GapExp	0	96	2	2	0	target	0	2759	-1000	-29093	13.328	13.159	13.462
ProbeTrackDT01	16	ProbeTrack	10.4	SCS215a	20100708.091036	20100708.092416	8	0.013328	60	10	60-180	60	172	GapExp	0	97	2	2	0	distractor	1	2399	0	-29093	13.328	12.925	13.766
ProbeTrackDT01	16	ProbeTrack	10.4	SCS215a	20100708.091036	20100708.092424	8	0.013328	60	10	60-180	60	78	GapExp	0	98	2	2	0	distractor	1	1466	267	-28826	13.328	13.289	13.366
ProbeTrackDT01	16	ProbeTrack	10.4	SCS215a	20100708.091036	20100708.092430	8	0.013328	60	10	60-180	60	107	GapExp	0	99	2	0	1	target	1	2972	0	-28826	13.328	13.231	13.461
ProbeTrackDT01	16	ProbeTrack	10.4	SCS215a	20100708.091036	20100708.092438	8	0.013328	60	10	60-180	60	128	GapExp	0	100	2	1	1	distractor	0	800	-1000	-29826	13.328	12.976	13.680
ProbeTrackDT01	16	ProbeTrack	10.4	SCS215a	20100708.091036	20100708.092605	8	0.013328	60	10	60-180	60	75	GapExp	0	101	2	2	1	target	1	2946	0	-29826	13.328	13.293	13.363
ProbeTrackDT01	16	ProbeTrack	10.4	SCS215a	20100708.091036	20100708.092612	8	0.013328	60	10	60-180	60	154	GapExp	0	102	2	4	1	target	1	1027	487	-29339	13.328	13.186	13.469
ProbeTrackDT01	16	ProbeTrack	10.4	SCS215a	20100708.091036	20100708.092619	8	0.013328	60	10	60-180	60	157	GapExp	0	103	2	2	1	target	1	1013	494	-28845	13.328	13.178	13.445
ProbeTrackDT01	16	ProbeTrack	10.4	SCS215a	20100708.091036	20100708.092625	8	0.013328	60	10	60-180	60	140	GapExp	0	104	2	0	0	target	0	800	-1000	-29845	13.328	13.227	13.428
ProbeTrackDT01	16	ProbeTrack	10.4	SCS215a	20100708.091036	20100708.092631	8	0.013328	60	10	60-180	60	177	GapExp	0	105	2	0	0	distractor	1	947	527	-29318	13.328	13.293	13.363
ProbeTrackDT01	16	ProbeTrack	10.4	SCS215a	20100708.091036	20100708.092638	8	0.013328	60	10	60-180	60	66	GapExp	0	106	2	1	0	distractor	1	1520	240	-29078	13.328	13.290	13.363
ProbeTrackDT01	16	ProbeTrack	10.4	SCS215a	20100708.091036	20100708.092644	8	0.013328	60	10	60-180	60	137	GapExp	0	107	2	0	0	distractor	1	1853	74	-29004	13.328	13.290	13.367
ProbeTrackDT01	16	ProbeTrack	10.4	SCS215a	20100708.091036	20100708.092651	8	0.013328	60	10	60-180	60	67	GapExp	0	108	2	2	1	target	1	1533	234	-28770	13.328	13.290	13.366
ProbeTrackDT01	16	ProbeTrack	10.4	SCS215a	20100708.091036	20100708.092657	8	0.013328	60	10	60-180	60	65	GapExp	0	109	2	4	1	target	1	1600	200	-28570	13.328	13.178	13.511
ProbeTrackDT01	16	ProbeTrack	10.4	SCS215a	20100708.091036	20100708.092703	8	0.013328	60	10	60-180	60	177	GapExp	0	110	2	75	0	target	0	7864	-1000	-29570	13.328	13.293	13.363
ProbeTrackDT01	16	ProbeTrack	10.4	SCS215a	20100708.091036	20100708.092717	8	0.013328	60	10	60-180	60	104	GapExp	0	111	2	2	1	target	1	1227	387	-29183	13.328	13.293	13.363
ProbeTrackDT01	16	ProbeTrack	10.4	SCS215a	20100708.091036	20100708.092724	8	0.013328	60	10	60-180	60	105	GapExp	0	112	2	1	0	distractor	1	813	594	-28589	13.328	13.293	13.363
ProbeTrackDT01	16	ProbeTrack	10.4	SCS215a	20100708.091036	20100708.092729	8	0.013328	60	10	60-180	60	143	GapExp	0	113	2	1	1	target	1	7970	0	-28589	13.328	13.077	13.545
ProbeTrackDT01	16	ProbeTrack	10.4	SCS215a	20100708.091036	20100708.092743	8	0.013328	60	10	60-180	60	62	GapExp	0	114	2	4	1	distractor	0	5132	-1000	-29589	13.328	13.199	13.456
ProbeTrackDT01	16	ProbeTrack	10.4	SCS215a	20100708.091036	20100708.092752	8	0.013328	60	10	60-180	60	100	GapExp	0	115	2	2	1	target	1	987	507	-29082	13.328	12.870	13.784
ProbeTrackDT01	16	ProbeTrack	10.4	SCS215a	20100708.091036	20100708.092758	8	0.013328	60	10	60-180	60	178	GapExp	0	116	2	0	1	distractor	0	8277	-1000	-30082	13.328	13.105	13.549
ProbeTrackDT01	16	ProbeTrack	10.4	SCS215a	20100708.091036	20100708.092812	8	0.013328	60	10	60-180	60	62	GapExp	0	117	2	0	0	distractor	1	1360	320	-29762	13.328	13.158	13.464
ProbeTrackDT01	16	ProbeTrack	10.4	SCS215a	20100708.091036	20100708.092818	8	0.013328	60	10	60-180	60	101	GapExp	0	118	2	4	1	distractor	0	3719	-1000	-30762	13.328	13.067	13.557
ProbeTrackDT01	16	ProbeTrack	10.4	SCS215a	20100708.091036	20100708.092826	8	0.013328	60	10	60-180	60	74	GapExp	0	119	2	2	0	target	0	1360	-1000	-31762	13.328	13.293	13.363
ProbeTrackDT01	16	ProbeTrack	10.4	SCS215a	20100708.091036	20100708.092832	8	0.013328	60	10	60-180	60	62	GapExp	0	120	2	75	1	distractor	0	587	-1000	-32762	13.328	13.293	13.363
ProbeTrackDT01	16	ProbeTrack	10.4	SCS215a	20100708.091036	20100708.092838	8	0.013328	60	10	60-180	60	92	GapExp	0	121	2	0	1	target	1	840	580	-32182	13.328	13.111	13.510
ProbeTrackDT01	16	ProbeTrack	10.4	SCS215a	20100708.091036	20100708.092843	8	0.013328	60	10	60-180	60	133	GapExp	0	122	2	2	0	distractor	1	9290	0	-32182	13.328	13.220	13.469
ProbeTrackDT01	16	ProbeTrack	10.4	SCS215a	20100708.091036	20100708.092858	8	0.013328	60	10	60-180	60	146	GapExp	0	123	2	0	1	target	1	920	540	-31642	13.328	13.293	13.363
ProbeTrackDT01	16	ProbeTrack	10.4	SCS215a	20100708.091036	20100708.092904	8	0.013328	60	10	60-180	60	95	GapExp	0	124	2	2	0	target	0	17446	-1000	-32642	13.328	13.276	13.380
ProbeTrackDT01	16	ProbeTrack	10.4	SCS215a	20100708.091036	20100708.092926	8	0.013328	60	10	60-180	60	63	GapExp	0	125	2	4	1	target	1	3292	0	-32642	13.328	13.100	13.556
ProbeTrackDT01	16	ProbeTrack	10.4	SCS215a	20100708.091036	20100708.092934	8	0.013328	60	10	60-180	60	178	GapExp	0	126	2	2	1	distractor	0	4652	-1000	-33642	13.328	13.146	13.476
ProbeTrackDT01	16	ProbeTrack	10.4	SCS215a	20100708.091036	20100708.092944	8	0.013328	60	10	60-180	60	162	GapExp	0	127	2	75	1	distractor	0	2413	-1000	-34642	13.328	13.129	13.526
ProbeTrackDT01	16	ProbeTrack	10.4	SCS215a	20100708.091036	20100708.092953	8	0.013328	60	10	60-180	60	164	GapExp	0	128	2	75	0	target	0	7011	-1000	-35642	13.328	13.240	13.448
ProbeTrackDT01	16	ProbeTrack	10.4	SCS215a	20100708.091036	20100708.093007	8	0.013328	60	10	60-180	60	125	GapExp	0	129	2	2	0	distractor	1	1440	280	-35362	13.328	13.293	13.363
ProbeTrackDT01	16	ProbeTrack	10.4	SCS215a	20100708.091036	20100708.093013	8	0.013328	60	10	60-180	60	75	GapExp	0	130	2	2	0	distractor	1	1147	427	-34935	13.328	13.024	13.598
ProbeTrackDT01	16	ProbeTrack	10.4	SCS215a	20100708.091036	20100708.093019	8	0.013328	60	10	60-180	60	85	GapExp	0	131	2	2	1	target	1	1533	234	-34701	13.328	13.293	13.363
ProbeTrackDT01	16	ProbeTrack	10.4	SCS215a	20100708.091036	20100708.093025	8	0.013328	60	10	60-180	60	131	GapExp	0	132	2	1	1	distractor	0	1333	-1000	-35701	13.328	13.293	13.363
ProbeTrackDT01	16	ProbeTrack	10.4	SCS215a	20100708.091036	20100708.093032	8	0.013328	60	10	60-180	60	149	GapExp	0	133	2	4	1	distractor	0	7824	-1000	-36701	13.328	13.179	13.511
ProbeTrackDT01	16	ProbeTrack	10.4	SCS215a	20100708.091036	20100708.093045	8	0.013328	60	10	60-180	60	110	GapExp	0	134	2	0	0	target	0	13595	-1000	-37701	13.328	13.146	13.510
ProbeTrackDT01	16	ProbeTrack	10.4	SCS215a	20100708.091036	20100708.093104	8	0.013328	60	10	60-180	60	102	GapExp	0	135	2	0	1	distractor	0	5705	-1000	-38701	13.328	13.293	13.363
ProbeTrackDT01	16	ProbeTrack	10.4	SCS215a	20100708.091036	20100708.093114	8	0.013328	60	10	60-180	60	129	GapExp	0	136	2	1	0	distractor	1	1147	427	-38274	13.328	13.293	13.363
ProbeTrackDT01	16	ProbeTrack	10.4	SCS215a	20100708.091036	20100708.093120	8	0.013328	60	10	60-180	60	135	GapExp	0	137	2	0	1	target	1	1093	454	-37820	13.328	13.272	13.403
ProbeTrackDT01	16	ProbeTrack	10.4	SCS215a	20100708.091036	20100708.093127	8	0.013328	60	10	60-180	60	93	GapExp	0	138	2	0	0	distractor	1	8490	0	-37820	13.328	13.293	13.363
ProbeTrackDT01	16	ProbeTrack	10.4	SCS215a	20100708.091036	20100708.093140	8	0.013328	60	10	60-180	60	132	GapExp	0	139	2	1	0	distractor	1	2119	0	-37820	13.328	13.130	13.526
ProbeTrackDT01	16	ProbeTrack	10.4	SCS215a	20100708.091036	20100708.093147	8	0.013328	60	10	60-180	60	104	GapExp	0	140	2	4	1	distractor	0	960	-1000	-38820	13.328	13.235	13.422
ProbeTrackDT01	16	ProbeTrack	10.4	SCS215a	20100708.091036	20100708.093153	8	0.013328	60	10	60-180	60	177	GapExp	0	141	2	2	1	distractor	0	960	-1000	-39820	13.328	13.193	13.430
ProbeTrackDT01	16	ProbeTrack	10.4	SCS215a	20100708.091036	20100708.093200	8	0.013328	60	10	60-180	60	66	GapExp	0	142	2	2	0	target	0	2533	-1000	-40820	13.328	13.293	13.362
ProbeTrackDT01	16	ProbeTrack	10.4	SCS215a	20100708.091036	20100708.093207	8	0.013328	60	10	60-180	60	61	GapExp	0	143	2	4	1	distractor	0	10276	-1000	-41820	13.328	13.163	13.488
ProbeTrackDT01	16	ProbeTrack	10.4	SCS215a	20100708.091036	20100708.093222	8	0.013328	60	10	60-180	60	122	GapExp	0	144	2	2	0	distractor	1	5958	0	-41820	13.328	13.286	13.403
ProbeTrackDT01	16	ProbeTrack	10.4	SCS215a	20100708.091036	20100708.093233	8	0.013328	60	10	60-180	60	100	GapExp	0	145	2	75	0	target	0	4265	-1000	-42820	13.328	13.141	13.514
ProbeTrackDT01	16	ProbeTrack	10.4	SCS215a	20100708.091036	20100708.093243	8	0.013328	60	10	60-180	60	131	GapExp	0	146	2	1	0	distractor	1	2333	0	-42820	13.328	13.102	13.554
ProbeTrackDT01	16	ProbeTrack	10.4	SCS215a	20100708.091036	20100708.093251	8	0.013328	60	10	60-180	60	156	GapExp	0	147	2	1	0	target	0	2746	-1000	-43820	13.328	13.293	13.363
ProbeTrackDT01	16	ProbeTrack	10.4	SCS215a	20100708.091036	20100708.093259	8	0.013328	60	10	60-180	60	107	GapExp	0	148	2	2	0	distractor	1	600	700	-43120	13.328	13.188	13.467
ProbeTrackDT01	16	ProbeTrack	10.4	SCS215a	20100708.091036	20100708.093305	8	0.013328	60	10	60-180	60	86	GapExp	0	149	2	4	0	distractor	1	2639	0	-43120	13.328	13.293	13.384
ProbeTrackDT01	16	ProbeTrack	10.4	SCS215a	20100708.091036	20100708.093312	8	0.013328	60	10	60-180	60	123	GapExp	0	150	2	0	1	distractor	0	3546	-1000	-44120	13.328	13.271	13.419
ProbeTrackDT01	16	ProbeTrack	10.4	SCS215a	20100708.091036	20100708.093444	8	0.013328	60	10	60-180	60	97	GapExp	0	151	2	1	1	distractor	0	1813	-1000	-45120	13.328	13.154	13.500
ProbeTrackDT01	16	ProbeTrack	10.4	SCS215a	20100708.091036	20100708.093450	8	0.013328	60	10	60-180	60	105	GapExp	0	152	2	1	1	distractor	0	1080	-1000	-46120	13.328	13.233	13.456
ProbeTrackDT01	16	ProbeTrack	10.4	SCS215a	20100708.091036	20100708.093456	8	0.013328	60	10	60-180	60	92	GapExp	0	153	2	75	1	target	1	1973	14	-46106	13.328	13.140	13.515
ProbeTrackDT01	16	ProbeTrack	10.4	SCS215a	20100708.091036	20100708.093504	8	0.013328	60	10	60-180	60	178	GapExp	0	154	2	75	1	distractor	0	933	-1000	-47106	13.328	13.275	13.380
ProbeTrackDT01	16	ProbeTrack	10.4	SCS215a	20100708.091036	20100708.093512	8	0.013328	60	10	60-180	60	124	GapExp	0	155	2	0	0	target	0	1240	-1000	-48106	13.328	13.170	13.487
ProbeTrackDT01	16	ProbeTrack	10.4	SCS215a	20100708.091036	20100708.093518	8	0.013328	60	10	60-180	60	173	GapExp	0	156	2	2	1	distractor	0	947	-1000	-49106	13.328	13.214	13.409
ProbeTrackDT01	16	ProbeTrack	10.4	SCS215a	20100708.091036	20100708.093525	8	0.013328	60	10	60-180	60	87	GapExp	0	157	2	75	0	target	0	2466	-1000	-50106	13.328	13.286	13.369
ProbeTrackDT01	16	ProbeTrack	10.4	SCS215a	20100708.091036	20100708.093533	8	0.013328	60	10	60-180	60	77	GapExp	0	158	2	2	0	distractor	1	1560	220	-49886	13.328	13.072	13.584
ProbeTrackDT01	16	ProbeTrack	10.4	SCS215a	20100708.091036	20100708.093539	8	0.013328	60	10	60-180	60	128	GapExp	0	159	2	1	1	target	1	1240	380	-49506	13.328	13.175	13.481
ProbeTrackDT01	16	ProbeTrack	10.4	SCS215a	20100708.091036	20100708.093545	8	0.013328	60	10	60-180	60	157	GapExp	0	160	2	4	0	distractor	1	2653	0	-49506	13.328	13.293	13.363
ProbeTrackDT01	16	ProbeTrack	10.4	SCS215a	20100708.091036	20100708.093553	8	0.013328	60	10	60-180	60	164	GapExp	0	161	2	4	0	distractor	1	1373	314	-49192	13.328	13.260	13.396
ProbeTrackDT01	16	ProbeTrack	10.4	SCS215a	20100708.091036	20100708.093601	8	0.013328	60	10	60-180	60	164	GapExp	0	162	2	1	0	distractor	1	1493	254	-48938	13.328	13.195	13.493
ProbeTrackDT01	16	ProbeTrack	10.4	SCS215a	20100708.091036	20100708.093608	8	0.013328	60	10	60-180	60	121	GapExp	0	163	2	0	1	target	1	1333	334	-48604	13.328	13.293	13.363
ProbeTrackDT01	16	ProbeTrack	10.4	SCS215a	20100708.091036	20100708.093614	8	0.013328	60	10	60-180	60	148	GapExp	0	164	2	1	0	target	0	773	-1000	-49604	13.328	13.189	13.467
ProbeTrackDT01	16	ProbeTrack	10.4	SCS215a	20100708.091036	20100708.093620	8	0.013328	60	10	60-180	60	94	GapExp	0	165	2	4	0	target	0	2533	-1000	-50604	13.328	13.277	13.388
ProbeTrackDT01	16	ProbeTrack	10.4	SCS215a	20100708.091036	20100708.093628	8	0.013328	60	10	60-180	60	163	GapExp	0	166	2	1	1	target	1	1320	340	-50264	13.328	13.101	13.556
ProbeTrackDT01	16	ProbeTrack	10.4	SCS215a	20100708.091036	20100708.093634	8	0.013328	60	10	60-180	60	170	GapExp	0	167	2	4	1	target	1	1147	427	-49837	13.328	13.245	13.443
ProbeTrackDT01	16	ProbeTrack	10.4	SCS215a	20100708.091036	20100708.093641	8	0.013328	60	10	60-180	60	106	GapExp	0	168	2	0	1	target	1	1187	407	-49430	13.328	13.293	13.363
ProbeTrackDT01	16	ProbeTrack	10.4	SCS215a	20100708.091036	20100708.093647	8	0.013328	60	10	60-180	60	79	GapExp	0	169	2	75	1	target	1	840	580	-48850	13.328	12.975	13.714
ProbeTrackDT01	16	ProbeTrack	10.4	SCS215a	20100708.091036	20100708.093654	8	0.013328	60	10	60-180	60	146	GapExp	0	170	2	1	0	distractor	1	1147	427	-48423	13.328	13.023	13.633
ProbeTrackDT01	16	ProbeTrack	10.4	SCS215a	20100708.091036	20100708.093700	8	0.013328	60	10	60-180	60	168	GapExp	0	171	2	1	0	target	0	2852	-1000	-49423	13.328	13.112	13.544
ProbeTrackDT01	16	ProbeTrack	10.4	SCS215a	20100708.091036	20100708.093709	8	0.013328	60	10	60-180	60	122	GapExp	0	172	2	1	0	distractor	1	1266	367	-49056	13.328	13.095	13.594
ProbeTrackDT01	16	ProbeTrack	10.4	SCS215a	20100708.091036	20100708.093715	8	0.013328	60	10	60-180	60	62	GapExp	0	173	2	1	0	target	0	2319	-1000	-50056	13.328	13.293	13.363
ProbeTrackDT01	16	ProbeTrack	10.4	SCS215a	20100708.091036	20100708.093722	8	0.013328	60	10	60-180	60	117	GapExp	0	174	2	1	1	target	1	1533	234	-49822	13.328	13.289	13.376
ProbeTrackDT01	16	ProbeTrack	10.4	SCS215a	20100708.091036	20100708.093728	8	0.013328	60	10	60-180	60	160	GapExp	0	175	2	75	0	target	0	1293	-1000	-50822	13.328	13.126	13.564
ProbeTrackDT01	16	ProbeTrack	10.4	SCS215a	20100708.091036	20100708.093736	8	0.013328	60	10	60-180	60	160	GapExp	0	176	2	4	0	distractor	1	973	514	-50308	13.328	13.293	13.363
ProbeTrackDT01	16	ProbeTrack	10.4	SCS215a	20100708.091036	20100708.093743	8	0.013328	60	10	60-180	60	127	GapExp	0	177	2	75	1	target	1	933	534	-49774	13.328	13.142	13.548
ProbeTrackDT01	16	ProbeTrack	10.4	SCS215a	20100708.091036	20100708.093750	8	0.013328	60	10	60-180	60	141	GapExp	0	178	2	4	0	distractor	1	3799	0	-49774	13.328	13.293	13.363
ProbeTrackDT01	16	ProbeTrack	10.4	SCS215a	20100708.091036	20100708.093759	8	0.013328	60	10	60-180	60	130	GapExp	0	179	2	0	0	target	0	2373	-1000	-50774	13.328	13.122	13.534
ProbeTrackDT01	16	ProbeTrack	10.4	SCS215a	20100708.091036	20100708.093806	8	0.013328	60	10	60-180	60	72	GapExp	0	180	2	1	0	distractor	1	3559	0	-50774	13.328	13.155	13.535
ProbeTrackDT01	16	ProbeTrack	10.4	SCS215a	20100708.091036	20100708.093814	8	0.013328	60	10	60-180	60	68	GapExp	0	181	2	4	1	target	1	1586	207	-50567	13.328	13.082	13.574
ProbeTrackDT01	16	ProbeTrack	10.4	SCS215a	20100708.091036	20100708.093820	8	0.013328	60	10	60-180	60	112	GapExp	0	182	2	75	0	distractor	1	1720	140	-50427	13.328	13.197	13.492
ProbeTrackDT01	16	ProbeTrack	10.4	SCS215a	20100708.091036	20100708.093828	8	0.013328	60	10	60-180	60	144	GapExp	0	183	2	4	0	target	0	1147	-1000	-51427	13.328	13.125	13.530
ProbeTrackDT01	16	ProbeTrack	10.4	SCS215a	20100708.091036	20100708.093834	8	0.013328	60	10	60-180	60	145	GapExp	0	184	2	0	0	target	0	1053	-1000	-52427	13.328	13.135	13.488
ProbeTrackDT01	16	ProbeTrack	10.4	SCS215a	20100708.091036	20100708.093841	8	0.013328	60	10	60-180	60	75	GapExp	0	185	2	75	0	distractor	1	1067	467	-51960	13.328	13.111	13.510
ProbeTrackDT01	16	ProbeTrack	10.4	SCS215a	20100708.091036	20100708.093847	8	0.013328	60	10	60-180	60	117	GapExp	0	186	2	2	1	target	1	1573	214	-51746	13.328	13.057	13.599
ProbeTrackDT01	16	ProbeTrack	10.4	SCS215a	20100708.091036	20100708.093854	8	0.013328	60	10	60-180	60	76	GapExp	0	187	2	1	1	distractor	0	5931	-1000	-52746	13.328	13.255	13.401
ProbeTrackDT01	16	ProbeTrack	10.4	SCS215a	20100708.091036	20100708.093904	8	0.013328	60	10	60-180	60	118	GapExp	0	188	2	75	1	target	1	1266	367	-52379	13.328	13.187	13.467
ProbeTrackDT01	16	ProbeTrack	10.4	SCS215a	20100708.091036	20100708.093912	8	0.013328	60	10	60-180	60	158	GapExp	0	189	2	4	1	target	1	4185	0	-52379	13.328	13.235	13.420
ProbeTrackDT01	16	ProbeTrack	10.4	SCS215a	20100708.091036	20100708.093921	8	0.013328	60	10	60-180	60	86	GapExp	0	190	2	1	1	target	1	5078	0	-52379	13.328	13.279	13.363
ProbeTrackDT01	16	ProbeTrack	10.4	SCS215a	20100708.091036	20100708.093931	8	0.013328	60	10	60-180	60	106	GapExp	0	191	2	4	1	distractor	0	1120	-1000	-53379	13.328	13.292	13.363
ProbeTrackDT01	16	ProbeTrack	10.4	SCS215a	20100708.091036	20100708.093937	8	0.013328	60	10	60-180	60	115	GapExp	0	192	2	0	0	distractor	1	1173	414	-52965	13.328	13.089	13.568
ProbeTrackDT01	16	ProbeTrack	10.4	SCS215a	20100708.091036	20100708.093943	8	0.013328	60	10	60-180	60	96	GapExp	0	193	2	0	0	target	0	1920	-1000	-53965	13.328	13.193	13.462
ProbeTrackDT01	16	ProbeTrack	10.4	SCS215a	20100708.091036	20100708.093950	8	0.013328	60	10	60-180	60	147	GapExp	0	194	2	2	1	distractor	0	3639	-1000	-54965	13.328	13.292	13.364
ProbeTrackDT01	16	ProbeTrack	10.4	SCS215a	20100708.091036	20100708.093959	8	0.013328	60	10	60-180	60	158	GapExp	0	195	2	75	0	distractor	1	1040	480	-54485	13.328	13.238	13.419
ProbeTrackDT01	16	ProbeTrack	10.4	SCS215a	20100708.091036	20100708.094007	8	0.013328	60	10	60-180	60	124	GapExp	0	196	2	2	0	distractor	1	1000	500	-53985	13.328	13.293	13.363
ProbeTrackDT01	16	ProbeTrack	10.4	SCS215a	20100708.091036	20100708.094013	8	0.013328	60	10	60-180	60	146	GapExp	0	197	2	2	0	distractor	1	15980	0	-53985	13.328	13.293	13.363
ProbeTrackDT01	16	ProbeTrack	10.4	SCS215a	20100708.091036	20100708.094034	8	0.013328	60	10	60-180	60	178	GapExp	0	198	2	1	0	distractor	1	3252	0	-53985	13.328	13.293	13.363
ProbeTrackDT01	16	ProbeTrack	10.4	SCS215a	20100708.091036	20100708.094043	8	0.013328	60	10	60-180	60	102	GapExp	0	199	2	1	1	distractor	0	1453	-1000	-54985	13.328	13.292	13.364
ProbeTrackDT01	16	ProbeTrack	10.4	SCS215a	20100708.091036	20100708.094050	8	0.013328	60	10	60-180	60	157	GapExp	0	200	2	2	1	target	1	2892	0	-54985	13.328	13.250	13.372
ProbeTrackDT01	16	ProbeTrack	10.4	SCS215a	20100708.091036	20100708.094202	8	0.013328	60	10	60-180	60	63	GapExp	0	201	2	1	0	target	0	1999	-1000	-55985	13.328	13.071	13.584
ProbeTrackDT01	16	ProbeTrack	10.4	SCS215a	20100708.091036	20100708.094209	8	0.013328	60	10	60-180	60	149	GapExp	0	202	2	75	0	distractor	1	1533	234	-55751	13.328	13.059	13.597
ProbeTrackDT01	16	ProbeTrack	10.4	SCS215a	20100708.091036	20100708.094216	8	0.013328	60	10	60-180	60	160	GapExp	0	203	2	1	0	target	0	1680	-1000	-56751	13.328	13.286	13.363
ProbeTrackDT01	16	ProbeTrack	10.4	SCS215a	20100708.091036	20100708.094224	8	0.013328	60	10	60-180	60	137	GapExp	0	204	2	2	0	distractor	1	867	567	-56184	13.328	13.292	13.364
ProbeTrackDT01	16	ProbeTrack	10.4	SCS215a	20100708.091036	20100708.094230	8	0.013328	60	10	60-180	60	104	GapExp	0	205	2	4	1	distractor	0	853	-1000	-57184	13.328	13.152	13.469
ProbeTrackDT01	16	ProbeTrack	10.4	SCS215a	20100708.091036	20100708.094236	8	0.013328	60	10	60-180	60	172	GapExp	0	206	2	4	1	distractor	0	574	-1000	-58184	13.328	13.258	13.366
ProbeTrackDT01	16	ProbeTrack	10.4	SCS215a	20100708.091036	20100708.094242	8	0.013328	60	10	60-180	60	67	GapExp	0	207	2	2	0	target	0	1733	-1000	-59184	13.328	13.083	13.538
ProbeTrackDT01	16	ProbeTrack	10.4	SCS215a	20100708.091036	20100708.094248	8	0.013328	60	10	60-180	60	176	GapExp	0	208	2	0	1	target	1	1240	380	-58804	13.328	13.284	13.363
ProbeTrackDT01	16	ProbeTrack	10.4	SCS215a	20100708.091036	20100708.094255	8	0.013328	60	10	60-180	60	133	GapExp	0	209	2	0	0	distractor	1	1053	474	-58330	13.328	13.152	13.501
ProbeTrackDT01	16	ProbeTrack	10.4	SCS215a	20100708.091036	20100708.094301	8	0.013328	60	10	60-180	60	69	GapExp	0	210	2	1	1	target	1	2279	0	-58330	13.328	13.121	13.501
