exp	sub	code	rev	comp	runtime	trialtime	nstim	refreshdur	cuedur	gapdur	gapOnsetRange	durPostProbe	gapOnsetTime	blocktype	prac	trial	ntargets	soa	probeTarget	resp	acc	rt	pts	tpts	meanFrameDur	minFrameDur	maxFrameDur
ProbeTrackDT01	28	ProbeTrack	10.4	SCS215a	20100715.110627	20100715.110646	8	0.013327	60	0	60-180	60	149	NoGap	1	1	2	75	0	distractor	1	2013	0	0	13.328	12.981	13.675
ProbeTrackDT01	28	ProbeTrack	10.4	SCS215a	20100715.110627	20100715.110655	8	0.013327	60	0	60-180	60	149	NoGap	1	2	2	75	0	distractor	1	1253	374	374	13.328	13.085	13.537
ProbeTrackDT01	28	ProbeTrack	10.4	SCS215a	20100715.110627	20100715.110702	8	0.013327	60	0	60-180	60	144	NoGap	1	3	2	2	1	target	1	1533	234	608	13.328	13.019	13.639
ProbeTrackDT01	28	ProbeTrack	10.4	SCS215a	20100715.110627	20100715.110709	8	0.013327	60	0	60-180	60	171	NoGap	1	4	2	4	1	target	1	1640	180	788	13.328	13.055	13.634
ProbeTrackDT01	28	ProbeTrack	10.4	SCS215a	20100715.110627	20100715.110716	8	0.013327	60	0	60-180	60	155	NoGap	1	5	2	0	0	distractor	1	1173	414	1202	13.328	13.044	13.611
ProbeTrackDT01	28	ProbeTrack	10.4	SCS215a	20100715.110627	20100715.110723	8	0.013327	60	0	60-180	60	163	NoGap	1	6	2	0	0	distractor	1	1226	387	1589	13.328	13.185	13.470
ProbeTrackDT01	28	ProbeTrack	10.4	SCS215a	20100715.110627	20100715.110729	8	0.013327	60	0	60-180	60	180	NoGap	1	7	2	75	0	distractor	1	973	514	2103	13.328	12.940	13.682
ProbeTrackDT01	28	ProbeTrack	10.4	SCS215a	20100715.110627	20100715.110737	8	0.013327	60	0	60-180	60	113	NoGap	1	8	2	0	1	target	1	1253	374	2477	13.328	13.034	13.621
ProbeTrackDT01	28	ProbeTrack	10.4	SCS215a	20100715.110627	20100715.110743	8	0.013327	60	0	60-180	60	140	NoGap	1	9	2	1	1	target	1	1027	487	2964	13.328	13.085	13.587
ProbeTrackDT01	28	ProbeTrack	10.4	SCS215a	20100715.110627	20100715.110749	8	0.013327	60	0	60-180	60	92	NoGap	1	10	2	2	1	target	1	1506	247	3211	13.328	13.043	13.579
ProbeTrackDT01	28	ProbeTrack	10.4	SCS215a	20100715.110627	20100715.110755	8	0.013327	60	0	60-180	60	72	NoGap	1	11	2	1	0	distractor	1	1080	460	3671	13.328	13.081	13.608
ProbeTrackDT01	28	ProbeTrack	10.4	SCS215a	20100715.110627	20100715.110801	8	0.013327	60	0	60-180	60	132	NoGap	1	12	2	1	1	target	1	920	540	4211	13.328	13.015	13.641
ProbeTrackDT01	28	ProbeTrack	10.4	SCS215a	20100715.110627	20100715.110807	8	0.013327	60	0	60-180	60	107	NoGap	1	13	2	1	0	distractor	1	1027	487	4698	13.328	12.944	13.678
ProbeTrackDT01	28	ProbeTrack	10.4	SCS215a	20100715.110627	20100715.110813	8	0.013327	60	0	60-180	60	128	NoGap	1	14	2	4	1	target	1	880	560	5258	13.328	13.194	13.494
ProbeTrackDT01	28	ProbeTrack	10.4	SCS215a	20100715.110627	20100715.110819	8	0.013327	60	0	60-180	60	85	NoGap	1	15	2	1	0	distractor	1	1013	494	5752	13.328	12.968	13.653
ProbeTrackDT01	28	ProbeTrack	10.4	SCS215a	20100715.110627	20100715.110824	8	0.013327	60	0	60-180	60	70	NoGap	1	16	2	75	1	target	1	827	587	6339	13.328	13.080	13.575
ProbeTrackDT01	28	ProbeTrack	10.4	SCS215a	20100715.110627	20100715.110830	8	0.013327	60	0	60-180	60	155	NoGap	1	17	2	4	1	target	1	920	540	6879	13.328	13.174	13.482
ProbeTrackDT01	28	ProbeTrack	10.4	SCS215a	20100715.110627	20100715.110836	8	0.013327	60	0	60-180	60	106	NoGap	1	18	2	4	0	distractor	1	893	554	7433	13.328	13.086	13.570
ProbeTrackDT01	28	ProbeTrack	10.4	SCS215a	20100715.110627	20100715.110842	8	0.013327	60	0	60-180	60	137	NoGap	1	19	2	75	1	target	1	787	607	8040	13.328	12.984	13.670
ProbeTrackDT01	28	ProbeTrack	10.4	SCS215a	20100715.110627	20100715.110849	8	0.013327	60	0	60-180	60	133	NoGap	1	20	2	0	0	distractor	1	827	587	8627	13.328	13.293	13.363
ProbeTrackDT01	28	ProbeTrack	10.4	SCS215a	20100715.110627	20100715.110855	8	0.013327	60	0	60-180	60	152	NoGap	1	21	2	4	0	distractor	1	1093	454	9081	13.328	12.973	13.683
ProbeTrackDT01	28	ProbeTrack	10.4	SCS215a	20100715.110627	20100715.110901	8	0.013327	60	0	60-180	60	88	NoGap	1	22	2	1	0	distractor	1	893	554	9635	13.328	13.208	13.481
ProbeTrackDT01	28	ProbeTrack	10.4	SCS215a	20100715.110627	20100715.110907	8	0.013327	60	0	60-180	60	75	NoGap	1	23	2	1	1	target	1	1040	480	10115	13.328	12.990	13.664
ProbeTrackDT01	28	ProbeTrack	10.4	SCS215a	20100715.110627	20100715.110912	8	0.013327	60	0	60-180	60	148	NoGap	1	24	2	2	0	distractor	1	773	614	10729	13.328	13.094	13.528
ProbeTrackDT01	28	ProbeTrack	10.4	SCS215a	20100715.110627	20100715.110918	8	0.013327	60	0	60-180	60	71	NoGap	1	25	2	2	1	target	1	1320	340	11069	13.392	13.293	26.621
ProbeTrackDT01	28	ProbeTrack	10.4	SCS215a	20100715.110627	20100715.110924	8	0.013327	60	0	60-180	60	168	NoGap	1	26	2	4	0	distractor	1	787	607	11676	13.328	13.227	13.395
ProbeTrackDT01	28	ProbeTrack	10.4	SCS215a	20100715.110627	20100715.110930	8	0.013327	60	0	60-180	60	108	NoGap	1	27	2	75	0	distractor	1	947	527	12203	13.328	13.061	13.629
ProbeTrackDT01	28	ProbeTrack	10.4	SCS215a	20100715.110627	20100715.110937	8	0.013327	60	0	60-180	60	79	NoGap	1	28	2	0	0	distractor	1	837	582	12785	13.328	13.276	13.379
ProbeTrackDT01	28	ProbeTrack	10.4	SCS215a	20100715.110627	20100715.110942	8	0.013327	60	0	60-180	60	63	NoGap	1	29	2	2	0	distractor	1	734	633	13418	13.328	13.293	13.363
ProbeTrackDT01	28	ProbeTrack	10.4	SCS215a	20100715.110627	20100715.110947	8	0.013327	60	0	60-180	60	125	NoGap	1	30	2	2	0	distractor	1	893	554	13972	13.328	13.039	13.649
ProbeTrackDT01	28	ProbeTrack	10.4	SCS215a	20100715.110627	20100715.110953	8	0.013327	60	0	60-180	60	62	NoGap	1	31	2	75	1	target	1	880	560	14532	13.328	13.214	13.442
ProbeTrackDT01	28	ProbeTrack	10.4	SCS215a	20100715.110627	20100715.110959	8	0.013327	60	0	60-180	60	142	NoGap	1	32	2	0	1	target	1	1853	74	14606	13.328	13.153	13.502
ProbeTrackDT01	28	ProbeTrack	10.4	SCS215a	20100715.110627	20100715.111006	8	0.013327	60	0	60-180	60	170	NoGap	1	33	2	0	1	target	1	680	660	15266	13.328	13.055	13.601
ProbeTrackDT01	28	ProbeTrack	10.4	SCS215a	20100715.110627	20100715.111012	8	0.013327	60	0	60-180	60	147	NoGap	1	34	2	4	0	distractor	1	733	634	15900	13.328	12.956	13.699
ProbeTrackDT01	28	ProbeTrack	10.4	SCS215a	20100715.110627	20100715.111018	8	0.013327	60	0	60-180	60	92	NoGap	1	35	2	2	1	target	1	893	554	16454	13.328	13.293	13.363
ProbeTrackDT01	28	ProbeTrack	10.4	SCS215a	20100715.110627	20100715.111024	8	0.013327	60	0	60-180	60	72	NoGap	1	36	2	4	1	target	1	774	613	17067	13.328	13.007	13.648
ProbeTrackDT01	28	ProbeTrack	10.4	SCS215a	20100715.110627	20100715.111029	8	0.013327	60	0	60-180	60	119	NoGap	1	37	2	1	1	target	1	627	687	17754	13.328	13.249	13.440
ProbeTrackDT01	28	ProbeTrack	10.4	SCS215a	20100715.110627	20100715.111034	8	0.013327	60	0	60-180	60	153	NoGap	1	38	2	2	0	distractor	1	813	594	18348	13.328	13.293	13.363
ProbeTrackDT01	28	ProbeTrack	10.4	SCS215a	20100715.110627	20100715.111041	8	0.013327	60	0	60-180	60	91	NoGap	1	39	2	75	1	target	1	747	627	18975	13.328	13.074	13.613
ProbeTrackDT01	28	ProbeTrack	10.4	SCS215a	20100715.110627	20100715.111047	8	0.013327	60	0	60-180	60	90	NoGap	1	40	2	0	1	target	1	787	607	19582	13.328	13.106	13.533
ProbeTrackDT01	28	ProbeTrack	10.4	SCS215a	20100715.111138	20100715.111148	8	0.013328	60	10	60-180	60	145	GapPrac	1	1	2	4	0	target	0	2972	-1000	18582	13.328	13.078	13.576
ProbeTrackDT01	28	ProbeTrack	10.4	SCS215a	20100715.111138	20100715.111156	8	0.013328	60	10	60-180	60	112	GapPrac	1	2	2	0	0	target	0	960	-1000	17582	13.328	13.188	13.501
ProbeTrackDT01	28	ProbeTrack	10.4	SCS215a	20100715.111138	20100715.111202	8	0.013328	60	10	60-180	60	71	GapPrac	1	3	2	75	0	distractor	1	933	534	18116	13.328	13.068	13.587
ProbeTrackDT01	28	ProbeTrack	10.4	SCS215a	20100715.111138	20100715.111208	8	0.013328	60	10	60-180	60	145	GapPrac	1	4	2	0	1	target	1	943	529	18645	13.328	13.293	13.363
ProbeTrackDT01	28	ProbeTrack	10.4	SCS215a	20100715.111138	20100715.111215	8	0.013328	60	10	60-180	60	88	GapPrac	1	5	2	75	1	target	1	707	647	19292	13.328	12.931	13.724
ProbeTrackDT01	28	ProbeTrack	10.4	SCS215a	20100715.111138	20100715.111221	8	0.013328	60	10	60-180	60	94	GapPrac	1	6	2	1	0	distractor	1	1346	327	19619	13.328	13.293	13.366
ProbeTrackDT01	28	ProbeTrack	10.4	SCS215a	20100715.111138	20100715.111227	8	0.013328	60	10	60-180	60	174	GapPrac	1	7	2	0	0	distractor	1	1013	494	20113	13.328	13.290	13.363
ProbeTrackDT01	28	ProbeTrack	10.4	SCS215a	20100715.111138	20100715.111234	8	0.013328	60	10	60-180	60	89	GapPrac	1	8	2	1	1	target	1	867	567	20680	13.328	13.289	13.365
ProbeTrackDT01	28	ProbeTrack	10.4	SCS215a	20100715.111138	20100715.111239	8	0.013328	60	10	60-180	60	100	GapPrac	1	9	2	2	1	target	1	947	527	21207	13.328	13.293	13.363
ProbeTrackDT01	28	ProbeTrack	10.4	SCS215a	20100715.111138	20100715.111245	8	0.013328	60	10	60-180	60	124	GapPrac	1	10	2	4	0	distractor	1	907	547	21754	13.328	13.281	13.363
ProbeTrackDT01	28	ProbeTrack	10.4	SCS215a	20100715.111138	20100715.111251	8	0.013328	60	10	60-180	60	70	GapPrac	1	11	2	4	1	target	1	827	587	22341	13.328	13.293	13.362
ProbeTrackDT01	28	ProbeTrack	10.4	SCS215a	20100715.111138	20100715.111256	8	0.013328	60	10	60-180	60	95	GapPrac	1	12	2	4	1	target	1	734	633	22974	13.328	13.293	13.363
ProbeTrackDT01	28	ProbeTrack	10.4	SCS215a	20100715.111138	20100715.111302	8	0.013328	60	10	60-180	60	164	GapPrac	1	13	2	2	1	target	1	760	620	23594	13.328	13.186	13.468
ProbeTrackDT01	28	ProbeTrack	10.4	SCS215a	20100715.111138	20100715.111308	8	0.013328	60	10	60-180	60	114	GapPrac	1	14	2	2	0	target	0	1013	-1000	22594	13.328	13.226	13.463
ProbeTrackDT01	28	ProbeTrack	10.4	SCS215a	20100715.111138	20100715.111314	8	0.013328	60	10	60-180	60	82	GapPrac	1	15	2	75	1	target	1	1027	487	23081	13.328	13.262	13.427
ProbeTrackDT01	28	ProbeTrack	10.4	SCS215a	20100715.111138	20100715.111321	8	0.013328	60	10	60-180	60	102	GapPrac	1	16	2	0	1	target	1	813	594	23675	13.328	13.264	13.363
ProbeTrackDT01	28	ProbeTrack	10.4	SCS215a	20100715.111138	20100715.111326	8	0.013328	60	10	60-180	60	166	GapPrac	1	17	2	1	0	distractor	1	1013	494	24169	13.328	13.291	13.363
ProbeTrackDT01	28	ProbeTrack	10.4	SCS215a	20100715.111138	20100715.111333	8	0.013328	60	10	60-180	60	75	GapPrac	1	18	2	2	0	distractor	1	1027	487	24656	13.328	13.292	13.364
ProbeTrackDT01	28	ProbeTrack	10.4	SCS215a	20100715.111138	20100715.111338	8	0.013328	60	10	60-180	60	71	GapPrac	1	19	2	75	0	distractor	1	1173	414	25070	13.328	13.292	13.363
ProbeTrackDT01	28	ProbeTrack	10.4	SCS215a	20100715.111138	20100715.111345	8	0.013328	60	10	60-180	60	129	GapPrac	1	20	2	1	1	target	1	973	514	25584	13.328	13.293	13.363
ProbeTrackDT01	28	ProbeTrack	10.4	SCS215a	20100715.111803	20100715.111808	8	0.013327	60	10	60-180	60	104	GapPrac	1	1	2	75	0	distractor	1	880	560	26144	13.328	12.968	13.686
ProbeTrackDT01	28	ProbeTrack	10.4	SCS215a	20100715.111803	20100715.111815	8	0.013327	60	10	60-180	60	157	GapPrac	1	2	2	1	0	distractor	1	773	614	26758	13.372	13.207	26.742
ProbeTrackDT01	28	ProbeTrack	10.4	SCS215a	20100715.111803	20100715.111821	8	0.013327	60	10	60-180	60	68	GapPrac	1	3	2	4	0	distractor	1	880	560	27318	13.328	13.278	13.363
ProbeTrackDT01	28	ProbeTrack	10.4	SCS215a	20100715.111803	20100715.111827	8	0.013327	60	10	60-180	60	141	GapPrac	1	4	2	4	1	distractor	0	787	-1000	26318	13.328	13.261	13.394
ProbeTrackDT01	28	ProbeTrack	10.4	SCS215a	20100715.111803	20100715.111833	8	0.013327	60	10	60-180	60	76	GapPrac	1	5	2	0	0	distractor	1	840	580	26898	13.328	13.007	13.615
ProbeTrackDT01	28	ProbeTrack	10.4	SCS215a	20100715.111803	20100715.111838	8	0.013327	60	10	60-180	60	108	GapPrac	1	6	2	1	0	distractor	1	2733	0	26898	13.380	12.970	27.013
ProbeTrackDT01	28	ProbeTrack	10.4	SCS215a	20100715.111803	20100715.111846	8	0.013327	60	10	60-180	60	84	GapPrac	1	7	2	0	0	distractor	1	1027	487	27385	13.328	13.176	13.510
ProbeTrackDT01	28	ProbeTrack	10.4	SCS215a	20100715.111803	20100715.111851	8	0.013327	60	10	60-180	60	164	GapPrac	1	8	2	4	1	distractor	0	560	-1000	26385	13.328	13.104	13.519
ProbeTrackDT01	28	ProbeTrack	10.4	SCS215a	20100715.111803	20100715.111857	8	0.013327	60	10	60-180	60	123	GapPrac	1	9	2	4	0	distractor	1	1306	347	26732	13.328	13.292	13.364
ProbeTrackDT01	28	ProbeTrack	10.4	SCS215a	20100715.111803	20100715.111904	8	0.013327	60	10	60-180	60	84	GapPrac	1	10	2	0	1	distractor	0	1040	-1000	25732	13.328	13.157	13.498
ProbeTrackDT01	28	ProbeTrack	10.4	SCS215a	20100715.111803	20100715.111909	8	0.013327	60	10	60-180	60	118	GapPrac	1	11	2	2	0	distractor	1	947	527	26259	13.328	13.040	13.616
ProbeTrackDT01	28	ProbeTrack	10.4	SCS215a	20100715.111803	20100715.111915	8	0.013327	60	10	60-180	60	173	GapPrac	1	12	2	2	0	distractor	1	987	507	26766	13.328	13.237	13.386
ProbeTrackDT01	28	ProbeTrack	10.4	SCS215a	20100715.111803	20100715.111922	8	0.013327	60	10	60-180	60	102	GapPrac	1	13	2	1	1	target	1	813	594	27360	13.328	13.266	13.363
ProbeTrackDT01	28	ProbeTrack	10.4	SCS215a	20100715.111803	20100715.111928	8	0.013327	60	10	60-180	60	119	GapPrac	1	14	2	1	1	distractor	0	880	-1000	26360	13.328	13.177	13.512
ProbeTrackDT01	28	ProbeTrack	10.4	SCS215a	20100715.111803	20100715.111933	8	0.013327	60	10	60-180	60	102	GapPrac	1	15	2	2	1	target	1	1386	307	26667	13.328	13.121	13.534
ProbeTrackDT01	28	ProbeTrack	10.4	SCS215a	20100715.111803	20100715.111940	8	0.013327	60	10	60-180	60	139	GapPrac	1	16	2	0	1	target	1	1200	400	27067	13.328	12.949	13.740
ProbeTrackDT01	28	ProbeTrack	10.4	SCS215a	20100715.111803	20100715.111946	8	0.013327	60	10	60-180	60	152	GapPrac	1	17	2	75	1	target	1	987	507	27574	13.328	12.962	13.693
ProbeTrackDT01	28	ProbeTrack	10.4	SCS215a	20100715.111803	20100715.111954	8	0.013327	60	10	60-180	60	62	GapPrac	1	18	2	75	0	distractor	1	880	560	28134	13.328	12.989	13.700
ProbeTrackDT01	28	ProbeTrack	10.4	SCS215a	20100715.111803	20100715.112000	8	0.013327	60	10	60-180	60	138	GapPrac	1	19	2	2	1	distractor	0	1906	-1000	27134	13.328	13.293	13.363
ProbeTrackDT01	28	ProbeTrack	10.4	SCS215a	20100715.111803	20100715.112007	8	0.013327	60	10	60-180	60	86	GapPrac	1	20	2	75	1	target	1	760	620	27754	13.328	13.058	13.596
ProbeTrackDT01	28	ProbeTrack	10.4	SCS215a	20100715.112108	20100715.112121	8	0.013327	60	10	60-180	60	95	GapExp	1	1	2	75	0	distractor	1	907	547	28301	13.371	13.233	13.456
ProbeTrackDT01	28	ProbeTrack	10.4	SCS215a	20100715.112108	20100715.112128	8	0.013327	60	10	60-180	60	175	GapExp	1	2	2	1	1	distractor	0	1240	-1000	27301	13.328	13.192	13.463
ProbeTrackDT01	28	ProbeTrack	10.4	SCS215a	20100715.112108	20100715.112135	8	0.013327	60	10	60-180	60	173	GapExp	1	3	2	4	0	distractor	1	933	534	27835	13.328	13.293	13.363
ProbeTrackDT01	28	ProbeTrack	10.4	SCS215a	20100715.112108	20100715.112141	8	0.013327	60	10	60-180	60	101	GapExp	1	4	2	0	1	target	1	813	594	28429	13.328	13.290	13.363
ProbeTrackDT01	28	ProbeTrack	10.4	SCS215a	20100715.112108	20100715.112147	8	0.013327	60	10	60-180	60	98	GapExp	1	5	2	0	0	target	0	947	-1000	27429	13.328	13.178	13.478
ProbeTrackDT01	28	ProbeTrack	10.4	SCS215a	20100715.112108	20100715.112153	8	0.013327	60	10	60-180	60	157	GapExp	1	6	2	75	1	target	1	574	713	28142	13.401	12.846	27.171
ProbeTrackDT01	28	ProbeTrack	10.4	SCS215a	20100715.112108	20100715.112200	8	0.013327	60	10	60-180	60	62	GapExp	1	7	2	4	1	target	1	2226	0	28142	13.391	13.293	26.655
ProbeTrackDT01	28	ProbeTrack	10.4	SCS215a	20100715.112108	20100715.112206	8	0.013327	60	10	60-180	60	162	GapExp	1	8	2	1	0	distractor	1	1306	347	28489	13.328	13.065	13.559
ProbeTrackDT01	28	ProbeTrack	10.4	SCS215a	20100715.112108	20100715.112213	8	0.013327	60	10	60-180	60	101	GapExp	1	9	2	2	0	distractor	1	1166	417	28906	13.328	13.057	13.598
ProbeTrackDT01	28	ProbeTrack	10.4	SCS215a	20100715.112108	20100715.112219	8	0.013327	60	10	60-180	60	77	GapExp	1	10	2	2	1	target	1	1626	187	29093	13.328	12.937	13.685
ProbeTrackDT01	28	ProbeTrack	10.4	SCS215a	20100715.112108	20100715.112225	8	0.013327	60	10	60-180	60	61	GapExp	0	11	2	2	1	target	1	1093	454	29547	13.328	12.961	13.661
ProbeTrackDT01	28	ProbeTrack	10.4	SCS215a	20100715.112108	20100715.112230	8	0.013327	60	10	60-180	60	164	GapExp	0	12	2	1	1	target	1	1160	420	29967	13.328	13.148	13.507
ProbeTrackDT01	28	ProbeTrack	10.4	SCS215a	20100715.112108	20100715.112237	8	0.013327	60	10	60-180	60	108	GapExp	0	13	2	0	1	target	1	720	640	30607	13.328	13.289	13.363
ProbeTrackDT01	28	ProbeTrack	10.4	SCS215a	20100715.112108	20100715.112243	8	0.013327	60	10	60-180	60	165	GapExp	0	14	2	75	1	target	1	693	654	31261	13.328	13.288	13.363
ProbeTrackDT01	28	ProbeTrack	10.4	SCS215a	20100715.112108	20100715.112250	8	0.013327	60	10	60-180	60	109	GapExp	0	15	2	75	0	distractor	1	1013	494	31755	13.328	13.149	13.507
ProbeTrackDT01	28	ProbeTrack	10.4	SCS215a	20100715.112108	20100715.112257	8	0.013327	60	10	60-180	60	144	GapExp	0	16	2	2	0	target	0	1773	-1000	30755	13.374	12.973	26.688
ProbeTrackDT01	28	ProbeTrack	10.4	SCS215a	20100715.112108	20100715.112304	8	0.013327	60	10	60-180	60	82	GapExp	0	17	2	4	1	target	1	1013	494	31249	13.328	13.293	13.363
ProbeTrackDT01	28	ProbeTrack	10.4	SCS215a	20100715.112108	20100715.112310	8	0.013327	60	10	60-180	60	79	GapExp	0	18	2	4	0	distractor	1	1240	380	31629	13.328	13.293	13.363
ProbeTrackDT01	28	ProbeTrack	10.4	SCS215a	20100715.112108	20100715.112315	8	0.013327	60	10	60-180	60	145	GapExp	0	19	2	2	1	distractor	0	3092	-1000	30629	13.328	13.288	13.363
ProbeTrackDT01	28	ProbeTrack	10.4	SCS215a	20100715.112108	20100715.112324	8	0.013327	60	10	60-180	60	126	GapExp	0	20	2	1	1	distractor	0	973	-1000	29629	13.573	12.984	53.415
ProbeTrackDT01	28	ProbeTrack	10.4	SCS215a	20100715.112108	20100715.112330	8	0.013327	60	10	60-180	60	67	GapExp	0	21	2	1	0	target	0	880	-1000	28629	13.328	13.293	13.363
ProbeTrackDT01	28	ProbeTrack	10.4	SCS215a	20100715.112108	20100715.112335	8	0.013327	60	10	60-180	60	110	GapExp	0	22	2	1	0	target	0	1133	-1000	27629	13.328	13.293	13.363
ProbeTrackDT01	28	ProbeTrack	10.4	SCS215a	20100715.112108	20100715.112341	8	0.013327	60	10	60-180	60	96	GapExp	0	23	2	2	1	target	1	1080	460	28089	13.328	13.293	13.363
ProbeTrackDT01	28	ProbeTrack	10.4	SCS215a	20100715.112108	20100715.112347	8	0.013327	60	10	60-180	60	145	GapExp	0	24	2	0	0	distractor	1	880	560	28649	13.466	13.119	39.939
ProbeTrackDT01	28	ProbeTrack	10.4	SCS215a	20100715.112108	20100715.112353	8	0.013327	60	10	60-180	60	68	GapExp	0	25	2	1	0	target	0	1266	-1000	27649	13.328	13.293	13.363
ProbeTrackDT01	28	ProbeTrack	10.4	SCS215a	20100715.112108	20100715.112359	8	0.013327	60	10	60-180	60	176	GapExp	0	26	2	4	1	target	1	893	554	28203	13.328	13.122	13.567
ProbeTrackDT01	28	ProbeTrack	10.4	SCS215a	20100715.112108	20100715.112406	8	0.013327	60	10	60-180	60	64	GapExp	0	27	2	2	0	target	0	947	-1000	27203	13.328	13.079	13.578
ProbeTrackDT01	28	ProbeTrack	10.4	SCS215a	20100715.112108	20100715.112411	8	0.013327	60	10	60-180	60	132	GapExp	0	28	2	0	1	distractor	0	480	-1000	26203	13.328	13.291	13.382
ProbeTrackDT01	28	ProbeTrack	10.4	SCS215a	20100715.112108	20100715.112417	8	0.013327	60	10	60-180	60	130	GapExp	0	29	2	75	1	target	1	627	687	26890	13.328	13.239	13.383
ProbeTrackDT01	28	ProbeTrack	10.4	SCS215a	20100715.112108	20100715.112423	8	0.013327	60	10	60-180	60	97	GapExp	0	30	2	1	1	target	1	694	653	27543	13.384	13.278	26.739
ProbeTrackDT01	28	ProbeTrack	10.4	SCS215a	20100715.112108	20100715.112429	8	0.013327	60	10	60-180	60	150	GapExp	0	31	2	75	1	target	1	653	674	28217	13.328	13.293	13.363
ProbeTrackDT01	28	ProbeTrack	10.4	SCS215a	20100715.112108	20100715.112436	8	0.013327	60	10	60-180	60	104	GapExp	0	32	2	1	0	target	0	1640	-1000	27217	13.328	13.290	13.363
ProbeTrackDT01	28	ProbeTrack	10.4	SCS215a	20100715.112108	20100715.112442	8	0.013327	60	10	60-180	60	104	GapExp	0	33	2	0	0	target	0	1480	-1000	26217	13.328	12.956	13.667
ProbeTrackDT01	28	ProbeTrack	10.4	SCS215a	20100715.112108	20100715.112449	8	0.013327	60	10	60-180	60	119	GapExp	0	34	2	1	1	target	1	760	620	26837	13.328	13.074	13.547
ProbeTrackDT01	28	ProbeTrack	10.4	SCS215a	20100715.112108	20100715.112455	8	0.013327	60	10	60-180	60	109	GapExp	0	35	2	4	1	target	1	907	547	27384	13.328	13.292	13.363
ProbeTrackDT01	28	ProbeTrack	10.4	SCS215a	20100715.112108	20100715.112500	8	0.013327	60	10	60-180	60	157	GapExp	0	36	2	2	1	target	1	627	687	28071	13.328	13.289	13.367
ProbeTrackDT01	28	ProbeTrack	10.4	SCS215a	20100715.112108	20100715.112507	8	0.013327	60	10	60-180	60	116	GapExp	0	37	2	75	0	distractor	1	600	700	28771	13.328	13.030	13.627
ProbeTrackDT01	28	ProbeTrack	10.4	SCS215a	20100715.112108	20100715.112513	8	0.013327	60	10	60-180	60	118	GapExp	0	38	2	2	1	distractor	0	1027	-1000	27771	13.328	13.293	13.363
ProbeTrackDT01	28	ProbeTrack	10.4	SCS215a	20100715.112108	20100715.112519	8	0.013327	60	10	60-180	60	138	GapExp	0	39	2	0	0	distractor	1	1107	447	28218	13.375	13.293	26.655
ProbeTrackDT01	28	ProbeTrack	10.4	SCS215a	20100715.112108	20100715.112526	8	0.013327	60	10	60-180	60	83	GapExp	0	40	2	75	0	distractor	1	893	554	28772	13.328	13.293	13.363
ProbeTrackDT01	28	ProbeTrack	10.4	SCS215a	20100715.112108	20100715.112532	8	0.013327	60	10	60-180	60	116	GapExp	0	41	2	1	0	distractor	1	760	620	29392	13.328	13.208	13.450
ProbeTrackDT01	28	ProbeTrack	10.4	SCS215a	20100715.112108	20100715.112538	8	0.013327	60	10	60-180	60	127	GapExp	0	42	2	4	1	target	1	973	514	29906	13.328	13.284	13.370
ProbeTrackDT01	28	ProbeTrack	10.4	SCS215a	20100715.112108	20100715.112544	8	0.013327	60	10	60-180	60	95	GapExp	0	43	2	4	1	target	1	907	547	30453	13.328	13.035	13.621
ProbeTrackDT01	28	ProbeTrack	10.4	SCS215a	20100715.112108	20100715.112549	8	0.013327	60	10	60-180	60	70	GapExp	0	44	2	0	0	distractor	1	947	527	30980	13.328	13.247	13.441
ProbeTrackDT01	28	ProbeTrack	10.4	SCS215a	20100715.112108	20100715.112555	8	0.013327	60	10	60-180	60	65	GapExp	0	45	2	2	1	distractor	0	840	-1000	29980	13.328	13.279	13.377
ProbeTrackDT01	28	ProbeTrack	10.4	SCS215a	20100715.112108	20100715.112600	8	0.013327	60	10	60-180	60	123	GapExp	0	46	2	0	0	target	0	720	-1000	28980	13.328	13.072	13.550
ProbeTrackDT01	28	ProbeTrack	10.4	SCS215a	20100715.112108	20100715.112605	8	0.013327	60	10	60-180	60	95	GapExp	0	47	2	1	0	distractor	1	827	587	29567	13.328	13.119	13.536
ProbeTrackDT01	28	ProbeTrack	10.4	SCS215a	20100715.112108	20100715.112611	8	0.013327	60	10	60-180	60	78	GapExp	0	48	2	4	1	distractor	0	1480	-1000	28567	13.328	13.144	13.477
ProbeTrackDT01	28	ProbeTrack	10.4	SCS215a	20100715.112108	20100715.112617	8	0.013327	60	10	60-180	60	65	GapExp	0	49	2	2	1	target	1	907	547	29114	13.328	13.293	13.363
ProbeTrackDT01	28	ProbeTrack	10.4	SCS215a	20100715.112108	20100715.112622	8	0.013327	60	10	60-180	60	146	GapExp	0	50	2	75	1	target	1	667	667	29781	13.365	13.136	26.847
ProbeTrackDT01	28	ProbeTrack	10.4	SCS215a	20100715.112108	20100715.112646	8	0.013327	60	10	60-180	60	132	GapExp	0	51	2	2	1	target	1	3679	0	29781	13.328	13.162	13.458
ProbeTrackDT01	28	ProbeTrack	10.4	SCS215a	20100715.112108	20100715.112655	8	0.013327	60	10	60-180	60	169	GapExp	0	52	2	1	0	distractor	1	1053	474	30255	13.328	13.277	13.363
ProbeTrackDT01	28	ProbeTrack	10.4	SCS215a	20100715.112108	20100715.112701	8	0.013327	60	10	60-180	60	161	GapExp	0	53	2	4	1	target	1	760	620	30875	13.328	13.220	13.436
ProbeTrackDT01	28	ProbeTrack	10.4	SCS215a	20100715.112108	20100715.112708	8	0.013327	60	10	60-180	60	178	GapExp	0	54	2	0	0	target	0	2479	-1000	29875	13.328	13.277	13.380
ProbeTrackDT01	28	ProbeTrack	10.4	SCS215a	20100715.112108	20100715.112716	8	0.013327	60	10	60-180	60	152	GapExp	0	55	2	4	1	target	1	827	587	30462	13.328	13.080	13.558
ProbeTrackDT01	28	ProbeTrack	10.4	SCS215a	20100715.112108	20100715.112722	8	0.013327	60	10	60-180	60	78	GapExp	0	56	2	2	1	distractor	0	1147	-1000	29462	13.328	13.293	13.363
ProbeTrackDT01	28	ProbeTrack	10.4	SCS215a	20100715.112108	20100715.112728	8	0.013327	60	10	60-180	60	168	GapExp	0	57	2	75	0	distractor	1	760	620	30082	13.328	13.292	13.363
ProbeTrackDT01	28	ProbeTrack	10.4	SCS215a	20100715.112108	20100715.112735	8	0.013327	60	10	60-180	60	66	GapExp	0	58	2	1	0	distractor	1	1213	394	30476	13.328	13.291	13.363
ProbeTrackDT01	28	ProbeTrack	10.4	SCS215a	20100715.112108	20100715.112741	8	0.013327	60	10	60-180	60	152	GapExp	0	59	2	75	1	target	1	2159	0	30476	13.328	13.168	13.454
ProbeTrackDT01	28	ProbeTrack	10.4	SCS215a	20100715.112108	20100715.112750	8	0.013327	60	10	60-180	60	76	GapExp	0	60	2	75	1	target	1	1506	247	30723	13.328	13.031	13.659
ProbeTrackDT01	28	ProbeTrack	10.4	SCS215a	20100715.112108	20100715.112757	8	0.013327	60	10	60-180	60	175	GapExp	0	61	2	0	1	target	1	1253	374	31097	13.328	12.697	13.959
ProbeTrackDT01	28	ProbeTrack	10.4	SCS215a	20100715.112108	20100715.112804	8	0.013327	60	10	60-180	60	174	GapExp	0	62	2	1	1	distractor	0	733	-1000	30097	13.328	12.957	13.731
ProbeTrackDT01	28	ProbeTrack	10.4	SCS215a	20100715.112108	20100715.112810	8	0.013327	60	10	60-180	60	131	GapExp	0	63	2	75	1	target	1	613	694	30791	13.328	13.293	13.363
ProbeTrackDT01	28	ProbeTrack	10.4	SCS215a	20100715.112108	20100715.112817	8	0.013327	60	10	60-180	60	154	GapExp	0	64	2	2	0	distractor	1	1187	407	31198	13.328	13.206	13.450
ProbeTrackDT01	28	ProbeTrack	10.4	SCS215a	20100715.112108	20100715.112824	8	0.013327	60	10	60-180	60	113	GapExp	0	65	2	2	0	distractor	1	1453	274	31472	13.328	13.080	13.556
ProbeTrackDT01	28	ProbeTrack	10.4	SCS215a	20100715.112108	20100715.112830	8	0.013327	60	10	60-180	60	98	GapExp	0	66	2	2	0	distractor	1	853	574	32046	13.328	13.219	13.437
ProbeTrackDT01	28	ProbeTrack	10.4	SCS215a	20100715.112108	20100715.112836	8	0.013327	60	10	60-180	60	148	GapExp	0	67	2	4	0	distractor	1	1826	87	32133	13.328	13.082	13.606
ProbeTrackDT01	28	ProbeTrack	10.4	SCS215a	20100715.112108	20100715.112843	8	0.013327	60	10	60-180	60	118	GapExp	0	68	2	2	0	distractor	1	960	520	32653	13.328	13.218	13.437
ProbeTrackDT01	28	ProbeTrack	10.4	SCS215a	20100715.112108	20100715.112849	8	0.013327	60	10	60-180	60	159	GapExp	0	69	2	0	1	target	1	853	574	33227	13.328	13.293	13.377
ProbeTrackDT01	28	ProbeTrack	10.4	SCS215a	20100715.112108	20100715.112855	8	0.013327	60	10	60-180	60	73	GapExp	0	70	2	2	1	distractor	0	907	-1000	32227	13.328	13.293	13.366
ProbeTrackDT01	28	ProbeTrack	10.4	SCS215a	20100715.112108	20100715.112901	8	0.013327	60	10	60-180	60	74	GapExp	0	71	2	0	1	target	1	800	600	32827	13.328	13.068	13.587
ProbeTrackDT01	28	ProbeTrack	10.4	SCS215a	20100715.112108	20100715.112906	8	0.013327	60	10	60-180	60	126	GapExp	0	72	2	0	1	target	1	1093	454	33281	13.328	13.170	13.486
ProbeTrackDT01	28	ProbeTrack	10.4	SCS215a	20100715.112108	20100715.112912	8	0.013327	60	10	60-180	60	105	GapExp	0	73	2	2	0	distractor	1	853	574	33855	13.328	13.287	13.368
ProbeTrackDT01	28	ProbeTrack	10.4	SCS215a	20100715.112108	20100715.112918	8	0.013327	60	10	60-180	60	128	GapExp	0	74	2	75	0	distractor	1	947	527	34382	13.328	13.267	13.390
ProbeTrackDT01	28	ProbeTrack	10.4	SCS215a	20100715.112108	20100715.112925	8	0.013327	60	10	60-180	60	65	GapExp	0	75	2	4	1	target	1	1160	420	34802	13.328	13.293	13.363
ProbeTrackDT01	28	ProbeTrack	10.4	SCS215a	20100715.112108	20100715.112930	8	0.013327	60	10	60-180	60	98	GapExp	0	76	2	2	0	distractor	1	1080	460	35262	13.382	12.839	26.537
ProbeTrackDT01	28	ProbeTrack	10.4	SCS215a	20100715.112108	20100715.112936	8	0.013327	60	10	60-180	60	144	GapExp	0	77	2	1	1	distractor	0	1067	-1000	34262	13.328	13.293	13.363
ProbeTrackDT01	28	ProbeTrack	10.4	SCS215a	20100715.112108	20100715.112943	8	0.013327	60	10	60-180	60	107	GapExp	0	78	2	75	1	target	1	1040	480	34742	13.368	13.293	26.655
ProbeTrackDT01	28	ProbeTrack	10.4	SCS215a	20100715.112108	20100715.112949	8	0.013327	60	10	60-180	60	157	GapExp	0	79	2	2	1	distractor	0	1080	-1000	33742	13.328	13.104	13.585
ProbeTrackDT01	28	ProbeTrack	10.4	SCS215a	20100715.112108	20100715.112956	8	0.013327	60	10	60-180	60	164	GapExp	0	80	2	75	1	target	1	973	514	34256	13.328	12.911	13.712
ProbeTrackDT01	28	ProbeTrack	10.4	SCS215a	20100715.112108	20100715.113004	8	0.013327	60	10	60-180	60	101	GapExp	0	81	2	4	0	distractor	1	1160	420	34676	13.328	13.273	13.383
ProbeTrackDT01	28	ProbeTrack	10.4	SCS215a	20100715.112108	20100715.113010	8	0.013327	60	10	60-180	60	61	GapExp	0	82	2	4	0	target	0	2346	-1000	33676	13.328	13.293	13.363
ProbeTrackDT01	28	ProbeTrack	10.4	SCS215a	20100715.112108	20100715.113016	8	0.013327	60	10	60-180	60	122	GapExp	0	83	2	0	0	distractor	1	1107	447	34123	13.328	13.142	13.481
ProbeTrackDT01	28	ProbeTrack	10.4	SCS215a	20100715.112108	20100715.113022	8	0.013327	60	10	60-180	60	86	GapExp	0	84	2	0	1	distractor	0	1386	-1000	33123	13.328	13.166	13.488
ProbeTrackDT01	28	ProbeTrack	10.4	SCS215a	20100715.112108	20100715.113028	8	0.013327	60	10	60-180	60	180	GapExp	0	85	2	4	1	distractor	0	973	-1000	32123	13.409	13.293	26.727
ProbeTrackDT01	28	ProbeTrack	10.4	SCS215a	20100715.112108	20100715.113035	8	0.013327	60	10	60-180	60	100	GapExp	0	86	2	75	0	target	0	1053	-1000	31123	13.328	13.293	13.363
ProbeTrackDT01	28	ProbeTrack	10.4	SCS215a	20100715.112108	20100715.113042	8	0.013327	60	10	60-180	60	137	GapExp	0	87	2	75	0	distractor	1	920	540	31663	13.328	13.292	13.364
ProbeTrackDT01	28	ProbeTrack	10.4	SCS215a	20100715.112108	20100715.113049	8	0.013327	60	10	60-180	60	159	GapExp	0	88	2	4	1	target	1	827	587	32250	13.328	13.041	13.614
ProbeTrackDT01	28	ProbeTrack	10.4	SCS215a	20100715.112108	20100715.113056	8	0.013327	60	10	60-180	60	84	GapExp	0	89	2	1	0	distractor	1	1053	474	32724	13.328	13.261	13.363
ProbeTrackDT01	28	ProbeTrack	10.4	SCS215a	20100715.112108	20100715.113101	8	0.013327	60	10	60-180	60	93	GapExp	0	90	2	1	1	target	1	1027	487	33211	13.328	13.111	13.544
ProbeTrackDT01	28	ProbeTrack	10.4	SCS215a	20100715.112108	20100715.113107	8	0.013327	60	10	60-180	60	91	GapExp	0	91	2	0	1	target	1	1506	247	33458	13.328	13.293	13.363
ProbeTrackDT01	28	ProbeTrack	10.4	SCS215a	20100715.112108	20100715.113113	8	0.013327	60	10	60-180	60	155	GapExp	0	92	2	4	0	target	0	2106	-1000	32458	13.371	13.158	26.792
ProbeTrackDT01	28	ProbeTrack	10.4	SCS215a	20100715.112108	20100715.113121	8	0.013327	60	10	60-180	60	97	GapExp	0	93	2	1	1	target	1	1640	180	32638	13.328	13.293	13.363
ProbeTrackDT01	28	ProbeTrack	10.4	SCS215a	20100715.112108	20100715.113127	8	0.013327	60	10	60-180	60	112	GapExp	0	94	2	4	0	target	0	933	-1000	31638	13.328	12.986	13.669
ProbeTrackDT01	28	ProbeTrack	10.4	SCS215a	20100715.112108	20100715.113133	8	0.013327	60	10	60-180	60	118	GapExp	0	95	2	0	0	target	0	1080	-1000	30638	13.328	13.116	13.574
ProbeTrackDT01	28	ProbeTrack	10.4	SCS215a	20100715.112108	20100715.113139	8	0.013327	60	10	60-180	60	86	GapExp	0	96	2	0	1	distractor	0	1693	-1000	29638	13.328	13.195	13.460
ProbeTrackDT01	28	ProbeTrack	10.4	SCS215a	20100715.112108	20100715.113145	8	0.013327	60	10	60-180	60	144	GapExp	0	97	2	0	0	distractor	1	1413	294	29932	13.466	13.043	26.988
ProbeTrackDT01	28	ProbeTrack	10.4	SCS215a	20100715.112108	20100715.113152	8	0.013327	60	10	60-180	60	155	GapExp	0	98	2	1	1	target	1	880	560	30492	13.328	13.076	13.580
ProbeTrackDT01	28	ProbeTrack	10.4	SCS215a	20100715.112108	20100715.113159	8	0.013327	60	10	60-180	60	90	GapExp	0	99	2	75	0	distractor	1	773	614	31106	13.328	13.292	13.367
ProbeTrackDT01	28	ProbeTrack	10.4	SCS215a	20100715.112108	20100715.113205	8	0.013327	60	10	60-180	60	75	GapExp	0	100	2	4	1	target	1	867	567	31673	13.328	13.293	13.363
ProbeTrackDT01	28	ProbeTrack	10.4	SCS215a	20100715.112108	20100715.113229	8	0.013327	60	10	60-180	60	178	GapExp	0	101	2	4	0	distractor	1	694	653	32326	13.328	13.293	13.363
ProbeTrackDT01	28	ProbeTrack	10.4	SCS215a	20100715.112108	20100715.113236	8	0.013327	60	10	60-180	60	89	GapExp	0	102	2	0	0	distractor	1	800	600	32926	13.385	13.290	26.656
ProbeTrackDT01	28	ProbeTrack	10.4	SCS215a	20100715.112108	20100715.113241	8	0.013327	60	10	60-180	60	105	GapExp	0	103	2	4	0	distractor	1	2226	0	32926	13.328	12.884	13.738
ProbeTrackDT01	28	ProbeTrack	10.4	SCS215a	20100715.112108	20100715.113248	8	0.013327	60	10	60-180	60	102	GapExp	0	104	2	75	0	distractor	1	800	600	33526	13.328	13.212	13.444
ProbeTrackDT01	28	ProbeTrack	10.4	SCS215a	20100715.112108	20100715.113255	8	0.013327	60	10	60-180	60	104	GapExp	0	105	2	1	1	target	1	813	594	34120	13.328	13.293	13.363
ProbeTrackDT01	28	ProbeTrack	10.4	SCS215a	20100715.112108	20100715.113301	8	0.013327	60	10	60-180	60	124	GapExp	0	106	2	2	0	distractor	1	1093	454	34574	13.328	13.008	13.682
ProbeTrackDT01	28	ProbeTrack	10.4	SCS215a	20100715.112108	20100715.113307	8	0.013327	60	10	60-180	60	84	GapExp	0	107	2	4	1	target	1	627	687	35261	13.328	12.975	13.646
ProbeTrackDT01	28	ProbeTrack	10.4	SCS215a	20100715.112108	20100715.113312	8	0.013327	60	10	60-180	60	172	GapExp	0	108	2	75	0	target	0	1373	-1000	34261	13.328	13.293	13.364
ProbeTrackDT01	28	ProbeTrack	10.4	SCS215a	20100715.112108	20100715.113320	8	0.013327	60	10	60-180	60	137	GapExp	0	109	2	1	0	distractor	1	1147	427	34688	13.328	13.293	13.363
ProbeTrackDT01	28	ProbeTrack	10.4	SCS215a	20100715.112108	20100715.113327	8	0.013327	60	10	60-180	60	151	GapExp	0	110	2	2	1	target	1	800	600	35288	13.372	13.205	26.778
ProbeTrackDT01	28	ProbeTrack	10.4	SCS215a	20100715.112108	20100715.113333	8	0.013327	60	10	60-180	60	145	GapExp	0	111	2	2	1	target	1	1067	467	35755	13.328	13.286	13.368
ProbeTrackDT01	28	ProbeTrack	10.4	SCS215a	20100715.112108	20100715.113339	8	0.013327	60	10	60-180	60	147	GapExp	0	112	2	4	1	target	1	840	580	36335	13.373	13.293	26.570
ProbeTrackDT01	28	ProbeTrack	10.4	SCS215a	20100715.112108	20100715.113346	8	0.013327	60	10	60-180	60	63	GapExp	0	113	2	1	0	target	0	2439	-1000	35335	13.328	13.293	13.363
ProbeTrackDT01	28	ProbeTrack	10.4	SCS215a	20100715.112108	20100715.113352	8	0.013327	60	10	60-180	60	146	GapExp	0	114	2	4	1	target	1	800	600	35935	13.328	12.989	13.668
ProbeTrackDT01	28	ProbeTrack	10.4	SCS215a	20100715.112108	20100715.113359	8	0.013327	60	10	60-180	60	140	GapExp	0	115	2	75	1	target	1	1720	140	36075	13.328	13.289	13.363
ProbeTrackDT01	28	ProbeTrack	10.4	SCS215a	20100715.112108	20100715.113407	8	0.013327	60	10	60-180	60	148	GapExp	0	116	2	0	1	target	1	640	680	36755	13.328	13.292	13.363
ProbeTrackDT01	28	ProbeTrack	10.4	SCS215a	20100715.112108	20100715.113413	8	0.013327	60	10	60-180	60	87	GapExp	0	117	2	75	1	target	1	2466	0	36755	13.371	13.293	26.656
ProbeTrackDT01	28	ProbeTrack	10.4	SCS215a	20100715.112108	20100715.113421	8	0.013327	60	10	60-180	60	78	GapExp	0	118	2	75	1	target	1	733	634	37389	13.373	13.293	26.655
ProbeTrackDT01	28	ProbeTrack	10.4	SCS215a	20100715.112108	20100715.113427	8	0.013327	60	10	60-180	60	164	GapExp	0	119	2	75	1	target	1	600	700	38089	13.328	13.293	13.363
ProbeTrackDT01	28	ProbeTrack	10.4	SCS215a	20100715.112108	20100715.113434	8	0.013327	60	10	60-180	60	104	GapExp	0	120	2	75	1	distractor	0	654	-1000	37089	13.370	13.289	26.688
ProbeTrackDT01	28	ProbeTrack	10.4	SCS215a	20100715.112108	20100715.113441	8	0.013327	60	10	60-180	60	135	GapExp	0	121	2	75	1	target	1	1027	487	37576	13.365	13.293	26.676
ProbeTrackDT01	28	ProbeTrack	10.4	SCS215a	20100715.112108	20100715.113448	8	0.013327	60	10	60-180	60	80	GapExp	0	122	2	0	0	target	0	773	-1000	36576	13.328	13.199	13.457
ProbeTrackDT01	28	ProbeTrack	10.4	SCS215a	20100715.112108	20100715.113453	8	0.013327	60	10	60-180	60	165	GapExp	0	123	2	2	0	distractor	1	387	807	37383	13.328	13.293	13.363
ProbeTrackDT01	28	ProbeTrack	10.4	SCS215a	20100715.112108	20100715.113459	8	0.013327	60	10	60-180	60	175	GapExp	0	124	2	2	0	target	0	653	-1000	36383	13.413	13.234	40.017
ProbeTrackDT01	28	ProbeTrack	10.4	SCS215a	20100715.112108	20100715.113506	8	0.013327	60	10	60-180	60	84	GapExp	0	125	2	0	1	target	1	640	680	37063	13.450	13.293	39.983
ProbeTrackDT01	28	ProbeTrack	10.4	SCS215a	20100715.112108	20100715.113511	8	0.013327	60	10	60-180	60	172	GapExp	0	126	2	75	0	distractor	1	680	660	37723	13.397	13.023	40.305
ProbeTrackDT01	28	ProbeTrack	10.4	SCS215a	20100715.112108	20100715.113518	8	0.013327	60	10	60-180	60	90	GapExp	0	127	2	4	0	distractor	1	987	507	38230	13.328	13.231	13.392
ProbeTrackDT01	28	ProbeTrack	10.4	SCS215a	20100715.112108	20100715.113524	8	0.013327	60	10	60-180	60	128	GapExp	0	128	2	4	0	distractor	1	840	580	38810	13.328	12.977	13.679
ProbeTrackDT01	28	ProbeTrack	10.4	SCS215a	20100715.112108	20100715.113530	8	0.013327	60	10	60-180	60	124	GapExp	0	129	2	2	0	distractor	1	747	627	39437	13.580	13.119	53.159
ProbeTrackDT01	28	ProbeTrack	10.4	SCS215a	20100715.112108	20100715.113536	8	0.013327	60	10	60-180	60	168	GapExp	0	130	2	1	1	target	1	933	534	39971	13.328	13.292	13.363
ProbeTrackDT01	28	ProbeTrack	10.4	SCS215a	20100715.112108	20100715.113542	8	0.013327	60	10	60-180	60	164	GapExp	0	131	2	75	1	target	1	627	687	40658	13.328	13.115	13.540
ProbeTrackDT01	28	ProbeTrack	10.4	SCS215a	20100715.112108	20100715.113550	8	0.013327	60	10	60-180	60	152	GapExp	0	132	2	1	0	distractor	1	787	607	41265	13.328	13.117	13.572
ProbeTrackDT01	28	ProbeTrack	10.4	SCS215a	20100715.112108	20100715.113556	8	0.013327	60	10	60-180	60	65	GapExp	0	133	2	75	0	distractor	1	360	820	42085	13.328	13.247	13.410
ProbeTrackDT01	28	ProbeTrack	10.4	SCS215a	20100715.112108	20100715.113602	8	0.013327	60	10	60-180	60	122	GapExp	0	134	2	75	1	target	1	1240	380	42465	13.406	12.879	27.138
ProbeTrackDT01	28	ProbeTrack	10.4	SCS215a	20100715.112108	20100715.113609	8	0.013327	60	10	60-180	60	88	GapExp	0	135	2	4	1	target	1	1840	80	42545	13.328	12.975	13.647
ProbeTrackDT01	28	ProbeTrack	10.4	SCS215a	20100715.112108	20100715.113616	8	0.013327	60	10	60-180	60	96	GapExp	0	136	2	1	1	target	1	893	554	43099	13.328	13.196	13.460
ProbeTrackDT01	28	ProbeTrack	10.4	SCS215a	20100715.112108	20100715.113621	8	0.013327	60	10	60-180	60	73	GapExp	0	137	2	4	0	distractor	1	774	613	43712	13.328	12.984	13.638
ProbeTrackDT01	28	ProbeTrack	10.4	SCS215a	20100715.112108	20100715.113626	8	0.013327	60	10	60-180	60	145	GapExp	0	138	2	4	1	target	1	653	674	44386	13.328	12.934	13.687
ProbeTrackDT01	28	ProbeTrack	10.4	SCS215a	20100715.112108	20100715.113633	8	0.013327	60	10	60-180	60	143	GapExp	0	139	2	1	0	distractor	1	813	594	44980	13.328	13.185	13.438
ProbeTrackDT01	28	ProbeTrack	10.4	SCS215a	20100715.112108	20100715.113639	8	0.013327	60	10	60-180	60	95	GapExp	0	140	2	2	0	target	0	720	-1000	43980	13.328	13.290	13.398
ProbeTrackDT01	28	ProbeTrack	10.4	SCS215a	20100715.112108	20100715.113644	8	0.013327	60	10	60-180	60	101	GapExp	0	141	2	4	0	distractor	1	853	574	44554	13.328	13.088	13.567
ProbeTrackDT01	28	ProbeTrack	10.4	SCS215a	20100715.112108	20100715.113650	8	0.013327	60	10	60-180	60	81	GapExp	0	142	2	1	0	distractor	1	1067	467	45021	13.328	12.961	13.693
ProbeTrackDT01	28	ProbeTrack	10.4	SCS215a	20100715.112108	20100715.113655	8	0.013327	60	10	60-180	60	150	GapExp	0	143	2	0	0	distractor	1	813	594	45615	13.328	13.235	13.387
ProbeTrackDT01	28	ProbeTrack	10.4	SCS215a	20100715.112108	20100715.113702	8	0.013327	60	10	60-180	60	155	GapExp	0	144	2	0	0	target	0	2226	-1000	44615	13.328	13.244	13.378
ProbeTrackDT01	28	ProbeTrack	10.4	SCS215a	20100715.112108	20100715.113709	8	0.013327	60	10	60-180	60	158	GapExp	0	145	2	75	0	distractor	1	760	620	45235	13.363	13.293	26.689
ProbeTrackDT01	28	ProbeTrack	10.4	SCS215a	20100715.112108	20100715.113717	8	0.013327	60	10	60-180	60	147	GapExp	0	146	2	1	1	target	1	800	600	45835	13.328	13.293	13.363
ProbeTrackDT01	28	ProbeTrack	10.4	SCS215a	20100715.112108	20100715.113723	8	0.013327	60	10	60-180	60	91	GapExp	0	147	2	1	0	distractor	1	1400	300	46135	13.328	13.293	13.363
ProbeTrackDT01	28	ProbeTrack	10.4	SCS215a	20100715.112108	20100715.113729	8	0.013327	60	10	60-180	60	103	GapExp	0	148	2	2	1	target	1	840	580	46715	13.329	13.121	13.486
ProbeTrackDT01	28	ProbeTrack	10.4	SCS215a	20100715.112108	20100715.113735	8	0.013327	60	10	60-180	60	75	GapExp	0	149	2	75	0	distractor	1	1013	494	47209	13.328	13.122	13.533
ProbeTrackDT01	28	ProbeTrack	10.4	SCS215a	20100715.112108	20100715.113741	8	0.013327	60	10	60-180	60	163	GapExp	0	150	2	4	0	distractor	1	800	600	47809	13.328	13.189	13.499
ProbeTrackDT01	28	ProbeTrack	10.4	SCS215a	20100715.112108	20100715.113802	8	0.013327	60	10	60-180	60	111	GapExp	0	151	2	4	0	distractor	1	1053	474	48283	13.430	13.293	26.688
ProbeTrackDT01	28	ProbeTrack	10.4	SCS215a	20100715.112108	20100715.113809	8	0.013327	60	10	60-180	60	73	GapExp	0	152	2	2	0	distractor	1	747	627	48910	13.575	12.936	40.374
ProbeTrackDT01	28	ProbeTrack	10.4	SCS215a	20100715.112108	20100715.113814	8	0.013327	60	10	60-180	60	159	GapExp	0	153	2	2	1	target	1	853	574	49484	13.328	13.056	13.600
ProbeTrackDT01	28	ProbeTrack	10.4	SCS215a	20100715.112108	20100715.113820	8	0.013327	60	10	60-180	60	169	GapExp	0	154	2	0	0	distractor	1	987	507	49991	13.413	13.267	40.015
ProbeTrackDT01	28	ProbeTrack	10.4	SCS215a	20100715.112108	20100715.113827	8	0.013327	60	10	60-180	60	98	GapExp	0	155	2	1	0	distractor	1	973	514	50505	13.382	12.821	27.129
ProbeTrackDT01	28	ProbeTrack	10.4	SCS215a	20100715.112108	20100715.113833	8	0.013327	60	10	60-180	60	133	GapExp	0	156	2	75	1	distractor	0	773	-1000	49505	13.328	12.949	13.673
ProbeTrackDT01	28	ProbeTrack	10.4	SCS215a	20100715.112108	20100715.113840	8	0.013327	60	10	60-180	60	97	GapExp	0	157	2	1	0	target	0	947	-1000	48505	13.328	12.943	13.680
ProbeTrackDT01	28	ProbeTrack	10.4	SCS215a	20100715.112108	20100715.113845	8	0.013327	60	10	60-180	60	100	GapExp	0	158	2	0	1	target	1	1013	494	48999	13.328	13.196	13.459
ProbeTrackDT01	28	ProbeTrack	10.4	SCS215a	20100715.112108	20100715.113851	8	0.013327	60	10	60-180	60	118	GapExp	0	159	2	75	1	target	1	1733	134	49133	13.328	13.292	13.394
ProbeTrackDT01	28	ProbeTrack	10.4	SCS215a	20100715.112108	20100715.113859	8	0.013327	60	10	60-180	60	107	GapExp	0	160	2	2	0	distractor	1	2213	0	49133	13.328	13.158	13.514
ProbeTrackDT01	28	ProbeTrack	10.4	SCS215a	20100715.112108	20100715.113906	8	0.013327	60	10	60-180	60	177	GapExp	0	161	2	2	1	target	1	920	540	49673	13.410	13.292	13.373
ProbeTrackDT01	28	ProbeTrack	10.4	SCS215a	20100715.112108	20100715.113913	8	0.013327	60	10	60-180	60	90	GapExp	0	162	2	75	0	distractor	1	880	560	50233	13.328	13.026	13.595
ProbeTrackDT01	28	ProbeTrack	10.4	SCS215a	20100715.112108	20100715.113919	8	0.013327	60	10	60-180	60	80	GapExp	0	163	2	2	1	distractor	0	1306	-1000	49233	13.328	13.135	13.520
ProbeTrackDT01	28	ProbeTrack	10.4	SCS215a	20100715.112108	20100715.113925	8	0.013327	60	10	60-180	60	101	GapExp	0	164	2	0	1	target	1	680	660	49893	13.328	13.143	13.513
ProbeTrackDT01	28	ProbeTrack	10.4	SCS215a	20100715.112108	20100715.113930	8	0.013327	60	10	60-180	60	109	GapExp	0	165	2	1	1	target	1	1480	260	50153	13.328	13.230	13.425
ProbeTrackDT01	28	ProbeTrack	10.4	SCS215a	20100715.112108	20100715.113937	8	0.013327	60	10	60-180	60	97	GapExp	0	166	2	2	0	distractor	1	827	587	50740	13.328	12.962	13.659
ProbeTrackDT01	28	ProbeTrack	10.4	SCS215a	20100715.112108	20100715.113942	8	0.013327	60	10	60-180	60	109	GapExp	0	167	2	0	0	target	0	720	-1000	49740	13.328	13.090	13.566
ProbeTrackDT01	28	ProbeTrack	10.4	SCS215a	20100715.112108	20100715.113948	8	0.013327	60	10	60-180	60	123	GapExp	0	168	2	0	0	target	0	680	-1000	48740	13.328	13.261	13.394
ProbeTrackDT01	28	ProbeTrack	10.4	SCS215a	20100715.112108	20100715.113954	8	0.013327	60	10	60-180	60	155	GapExp	0	169	2	4	0	distractor	1	920	540	49280	13.328	13.061	13.629
ProbeTrackDT01	28	ProbeTrack	10.4	SCS215a	20100715.112108	20100715.114000	8	0.013327	60	10	60-180	60	147	GapExp	0	170	2	4	1	target	1	813	594	49874	13.328	13.293	13.363
ProbeTrackDT01	28	ProbeTrack	10.4	SCS215a	20100715.112108	20100715.114007	8	0.013327	60	10	60-180	60	68	GapExp	0	171	2	1	1	target	1	1120	440	50314	13.328	13.041	13.614
ProbeTrackDT01	28	ProbeTrack	10.4	SCS215a	20100715.112108	20100715.114012	8	0.013327	60	10	60-180	60	180	GapExp	0	172	2	75	1	distractor	0	640	-1000	49314	13.328	13.016	13.640
ProbeTrackDT01	28	ProbeTrack	10.4	SCS215a	20100715.112108	20100715.114019	8	0.013327	60	10	60-180	60	103	GapExp	0	173	2	0	1	target	1	1866	67	49381	13.328	13.214	13.462
ProbeTrackDT01	28	ProbeTrack	10.4	SCS215a	20100715.112108	20100715.114026	8	0.013327	60	10	60-180	60	153	GapExp	0	174	2	2	0	distractor	1	813	594	49975	13.328	13.133	13.556
ProbeTrackDT01	28	ProbeTrack	10.4	SCS215a	20100715.112108	20100715.114033	8	0.013327	60	10	60-180	60	109	GapExp	0	175	2	2	0	distractor	1	840	580	50555	13.328	13.052	13.637
ProbeTrackDT01	28	ProbeTrack	10.4	SCS215a	20100715.112108	20100715.114038	8	0.013327	60	10	60-180	60	122	GapExp	0	176	2	0	1	target	1	840	580	51135	13.328	13.048	13.607
ProbeTrackDT01	28	ProbeTrack	10.4	SCS215a	20100715.112108	20100715.114044	8	0.013327	60	10	60-180	60	75	GapExp	0	177	2	75	0	distractor	1	507	747	51882	13.328	13.076	13.580
ProbeTrackDT01	28	ProbeTrack	10.4	SCS215a	20100715.112108	20100715.114050	8	0.013327	60	10	60-180	60	98	GapExp	0	178	2	0	0	distractor	1	973	514	52396	13.383	13.293	26.655
ProbeTrackDT01	28	ProbeTrack	10.4	SCS215a	20100715.112108	20100715.114056	8	0.013327	60	10	60-180	60	86	GapExp	0	179	2	1	0	distractor	1	1067	467	52863	13.328	13.293	13.363
ProbeTrackDT01	28	ProbeTrack	10.4	SCS215a	20100715.112108	20100715.114101	8	0.013327	60	10	60-180	60	161	GapExp	0	180	2	1	0	distractor	1	1187	407	53270	13.328	13.293	13.363
ProbeTrackDT01	28	ProbeTrack	10.4	SCS215a	20100715.112108	20100715.114108	8	0.013327	60	10	60-180	60	133	GapExp	0	181	2	1	1	distractor	0	747	-1000	52270	13.424	13.293	26.656
ProbeTrackDT01	28	ProbeTrack	10.4	SCS215a	20100715.112108	20100715.114114	8	0.013327	60	10	60-180	60	81	GapExp	0	182	2	1	0	distractor	1	880	560	52830	13.328	13.068	13.553
ProbeTrackDT01	28	ProbeTrack	10.4	SCS215a	20100715.112108	20100715.114120	8	0.013327	60	10	60-180	60	106	GapExp	0	183	2	1	1	target	1	747	627	53457	13.326	12.962	13.660
ProbeTrackDT01	28	ProbeTrack	10.4	SCS215a	20100715.112108	20100715.114125	8	0.013327	60	10	60-180	60	92	GapExp	0	184	2	4	1	target	1	1893	54	53511	13.328	13.293	13.380
ProbeTrackDT01	28	ProbeTrack	10.4	SCS215a	20100715.112108	20100715.114132	8	0.013327	60	10	60-180	60	117	GapExp	0	185	2	75	0	distractor	1	987	507	54018	13.328	12.992	13.663
ProbeTrackDT01	28	ProbeTrack	10.4	SCS215a	20100715.112108	20100715.114139	8	0.013327	60	10	60-180	60	151	GapExp	0	186	2	2	1	target	1	1520	240	54258	13.328	13.114	13.541
ProbeTrackDT01	28	ProbeTrack	10.4	SCS215a	20100715.112108	20100715.114146	8	0.013327	60	10	60-180	60	117	GapExp	0	187	2	75	0	distractor	1	773	614	54872	13.328	13.178	13.478
ProbeTrackDT01	28	ProbeTrack	10.4	SCS215a	20100715.112108	20100715.114153	8	0.013327	60	10	60-180	60	123	GapExp	0	188	2	75	0	distractor	1	560	720	55592	13.409	13.202	40.142
ProbeTrackDT01	28	ProbeTrack	10.4	SCS215a	20100715.112108	20100715.114159	8	0.013327	60	10	60-180	60	172	GapExp	0	189	2	2	1	target	1	947	527	56119	13.328	13.088	13.602
ProbeTrackDT01	28	ProbeTrack	10.4	SCS215a	20100715.112108	20100715.114206	8	0.013327	60	10	60-180	60	174	GapExp	0	190	2	4	0	distractor	1	693	654	56773	13.328	13.250	13.371
ProbeTrackDT01	28	ProbeTrack	10.4	SCS215a	20100715.112108	20100715.114212	8	0.013327	60	10	60-180	60	82	GapExp	0	191	2	0	0	distractor	1	787	607	57380	13.328	13.293	13.363
ProbeTrackDT01	28	ProbeTrack	10.4	SCS215a	20100715.112108	20100715.114218	8	0.013327	60	10	60-180	60	176	GapExp	0	192	2	0	0	target	0	787	-1000	56380	13.411	12.867	27.116
ProbeTrackDT01	28	ProbeTrack	10.4	SCS215a	20100715.112108	20100715.114224	8	0.013327	60	10	60-180	60	97	GapExp	0	193	2	4	1	target	1	773	614	56994	13.328	13.292	13.364
ProbeTrackDT01	28	ProbeTrack	10.4	SCS215a	20100715.112108	20100715.114230	8	0.013327	60	10	60-180	60	144	GapExp	0	194	2	1	1	distractor	0	1027	-1000	55994	13.328	12.816	13.838
ProbeTrackDT01	28	ProbeTrack	10.4	SCS215a	20100715.112108	20100715.114236	8	0.013327	60	10	60-180	60	175	GapExp	0	195	2	2	1	target	1	693	654	56648	13.328	12.965	13.690
ProbeTrackDT01	28	ProbeTrack	10.4	SCS215a	20100715.112108	20100715.114243	8	0.013327	60	10	60-180	60	142	GapExp	0	196	2	0	0	distractor	1	853	574	57222	13.328	13.143	13.479
ProbeTrackDT01	28	ProbeTrack	10.4	SCS215a	20100715.112108	20100715.114249	8	0.013327	60	10	60-180	60	180	GapExp	0	197	2	0	1	target	1	733	634	57856	13.328	13.143	13.546
ProbeTrackDT01	28	ProbeTrack	10.4	SCS215a	20100715.112108	20100715.114256	8	0.013327	60	10	60-180	60	156	GapExp	0	198	2	2	0	target	0	880	-1000	56856	13.416	12.922	27.028
ProbeTrackDT01	28	ProbeTrack	10.4	SCS215a	20100715.112108	20100715.114302	8	0.013327	60	10	60-180	60	89	GapExp	0	199	2	0	1	distractor	0	680	-1000	55856	13.446	13.232	26.733
ProbeTrackDT01	28	ProbeTrack	10.4	SCS215a	20100715.112108	20100715.114307	8	0.013327	60	10	60-180	60	177	GapExp	0	200	2	2	0	target	0	800	-1000	54856	13.328	13.223	13.466
ProbeTrackDT01	28	ProbeTrack	10.4	SCS215a	20100715.112108	20100715.114338	8	0.013327	60	10	60-180	60	169	GapExp	0	201	2	0	1	distractor	0	1613	-1000	53856	13.328	13.050	13.639
ProbeTrackDT01	28	ProbeTrack	10.4	SCS215a	20100715.112108	20100715.114345	8	0.013327	60	10	60-180	60	175	GapExp	0	202	2	0	1	target	1	867	567	54423	13.328	13.191	13.465
ProbeTrackDT01	28	ProbeTrack	10.4	SCS215a	20100715.112108	20100715.114352	8	0.013327	60	10	60-180	60	129	GapExp	0	203	2	4	0	distractor	1	667	667	55090	13.328	13.274	13.380
ProbeTrackDT01	28	ProbeTrack	10.4	SCS215a	20100715.112108	20100715.114357	8	0.013327	60	10	60-180	60	67	GapExp	0	204	2	4	0	distractor	1	813	594	55684	13.328	13.293	13.366
ProbeTrackDT01	28	ProbeTrack	10.4	SCS215a	20100715.112108	20100715.114403	8	0.013327	60	10	60-180	60	120	GapExp	0	205	2	0	1	target	1	667	667	56351	13.328	13.292	13.363
ProbeTrackDT01	28	ProbeTrack	10.4	SCS215a	20100715.112108	20100715.114408	8	0.013327	60	10	60-180	60	64	GapExp	0	206	2	1	1	target	1	760	620	56971	13.328	13.278	13.410
ProbeTrackDT01	28	ProbeTrack	10.4	SCS215a	20100715.112108	20100715.114413	8	0.013327	60	10	60-180	60	118	GapExp	0	207	2	4	0	distractor	1	1266	367	57338	13.328	13.292	13.363
ProbeTrackDT01	28	ProbeTrack	10.4	SCS215a	20100715.112108	20100715.114420	8	0.013327	60	10	60-180	60	158	GapExp	0	208	2	4	0	distractor	1	787	607	57945	13.328	13.291	13.363
ProbeTrackDT01	28	ProbeTrack	10.4	SCS215a	20100715.112108	20100715.114426	8	0.013327	60	10	60-180	60	153	GapExp	0	209	2	75	0	distractor	1	534	733	58678	13.365	13.248	26.688
ProbeTrackDT01	28	ProbeTrack	10.4	SCS215a	20100715.112108	20100715.114433	8	0.013327	60	10	60-180	60	129	GapExp	0	210	2	1	1	target	1	1760	120	58798	13.328	13.293	13.363
