exp	sub	code	rev	comp	runtime	trialtime	nstim	refreshdur	cuedur	gapdur	gapOnsetRange	durPostProbe	gapOnsetTime	blocktype	prac	trial	ntargets	soa	probeTarget	resp	acc	rt	pts	tpts	meanFrameDur	minFrameDur	maxFrameDur
ProbeTrackDT01	9	ProbeTrackDT01	10.4	SCS215a	20100521.130149	20100521.130237	8	0.013328	60	0	60-180	60	103	NoGap	1	1	2	0	0	distractor	1	2013	0	0	13.328	13.228	13.393
ProbeTrackDT01	9	ProbeTrackDT01	10.4	SCS215a	20100521.130149	20100521.130244	8	0.013328	60	0	60-180	60	148	NoGap	1	2	2	1	0	distractor	1	1440	280	280	13.328	13.293	13.363
ProbeTrackDT01	9	ProbeTrackDT01	10.4	SCS215a	20100521.130149	20100521.130251	8	0.013328	60	0	60-180	60	137	NoGap	1	3	2	4	0	distractor	1	1253	374	654	13.328	13.263	13.392
ProbeTrackDT01	9	ProbeTrackDT01	10.4	SCS215a	20100521.130149	20100521.130257	8	0.013328	60	0	60-180	60	126	NoGap	1	4	2	4	0	distractor	1	1414	293	947	13.328	13.131	13.490
ProbeTrackDT01	9	ProbeTrackDT01	10.4	SCS215a	20100521.130149	20100521.130304	8	0.013328	60	0	60-180	60	156	NoGap	1	5	2	75	1	target	1	1280	360	1307	13.328	13.118	13.537
ProbeTrackDT01	9	ProbeTrackDT01	10.4	SCS215a	20100521.130149	20100521.130311	8	0.013328	60	0	60-180	60	149	NoGap	1	6	2	1	1	target	1	2439	0	1307	13.328	13.293	13.363
ProbeTrackDT01	9	ProbeTrackDT01	10.4	SCS215a	20100521.130149	20100521.130319	8	0.013328	60	0	60-180	60	103	NoGap	1	7	2	1	1	target	1	1733	134	1441	13.328	13.195	13.495
ProbeTrackDT01	9	ProbeTrackDT01	10.4	SCS215a	20100521.130149	20100521.130325	8	0.013328	60	0	60-180	60	130	NoGap	1	8	2	0	0	distractor	1	1613	194	1635	13.328	13.211	13.479
ProbeTrackDT01	9	ProbeTrackDT01	10.4	SCS215a	20100521.130149	20100521.130332	8	0.013328	60	0	60-180	60	139	NoGap	1	9	2	4	1	target	1	1426	287	1922	13.328	13.292	13.363
ProbeTrackDT01	9	ProbeTrackDT01	10.4	SCS215a	20100521.130149	20100521.130339	8	0.013328	60	0	60-180	60	103	NoGap	1	10	2	0	1	target	1	1400	300	2222	13.328	13.213	13.410
ProbeTrackDT01	9	ProbeTrackDT01	10.4	SCS215a	20100521.130149	20100521.130345	8	0.013328	60	0	60-180	60	121	NoGap	1	11	2	75	1	target	1	1400	300	2522	13.328	13.024	13.632
ProbeTrackDT01	9	ProbeTrackDT01	10.4	SCS215a	20100521.130149	20100521.130352	8	0.013328	60	0	60-180	60	130	NoGap	1	12	2	75	0	distractor	1	1493	254	2776	13.328	13.199	13.490
ProbeTrackDT01	9	ProbeTrackDT01	10.4	SCS215a	20100521.130149	20100521.130400	8	0.013328	60	0	60-180	60	150	NoGap	1	13	2	0	0	distractor	1	2413	0	2776	13.328	13.029	13.626
ProbeTrackDT01	9	ProbeTrackDT01	10.4	SCS215a	20100521.130149	20100521.130407	8	0.013328	60	0	60-180	60	167	NoGap	1	14	2	75	1	target	1	1613	194	2970	13.328	13.213	13.476
ProbeTrackDT01	9	ProbeTrackDT01	10.4	SCS215a	20100521.130149	20100521.130416	8	0.013328	60	0	60-180	60	119	NoGap	1	15	2	4	1	target	1	1533	234	3204	13.328	13.146	13.509
ProbeTrackDT01	9	ProbeTrackDT01	10.4	SCS215a	20100521.130149	20100521.130422	8	0.013328	60	0	60-180	60	130	NoGap	1	16	2	0	1	target	1	1093	454	3658	13.328	13.251	13.372
ProbeTrackDT01	9	ProbeTrackDT01	10.4	SCS215a	20100521.130149	20100521.130428	8	0.013328	60	0	60-180	60	139	NoGap	1	17	2	1	0	distractor	1	1800	100	3758	13.328	13.221	13.435
ProbeTrackDT01	9	ProbeTrackDT01	10.4	SCS215a	20100521.130149	20100521.130435	8	0.013328	60	0	60-180	60	84	NoGap	1	18	2	1	1	target	1	1866	67	3825	13.328	13.241	13.382
ProbeTrackDT01	9	ProbeTrackDT01	10.4	SCS215a	20100521.130149	20100521.130441	8	0.013328	60	0	60-180	60	155	NoGap	1	19	2	2	1	target	1	1506	247	4072	13.328	13.185	13.503
ProbeTrackDT01	9	ProbeTrackDT01	10.4	SCS215a	20100521.130149	20100521.130448	8	0.013328	60	0	60-180	60	154	NoGap	1	20	2	2	0	distractor	1	1560	220	4292	13.328	13.293	13.363
ProbeTrackDT01	9	ProbeTrackDT01	10.4	SCS215a	20100521.130149	20100521.130455	8	0.013328	60	0	60-180	60	167	NoGap	1	21	2	0	0	distractor	1	1333	334	4626	13.328	13.136	13.519
ProbeTrackDT01	9	ProbeTrackDT01	10.4	SCS215a	20100521.130149	20100521.130502	8	0.013328	60	0	60-180	60	113	NoGap	1	22	2	75	0	distractor	1	1160	420	5046	13.328	13.165	13.458
ProbeTrackDT01	9	ProbeTrackDT01	10.4	SCS215a	20100521.130149	20100521.130509	8	0.013328	60	0	60-180	60	86	NoGap	1	23	2	75	1	target	1	1480	260	5306	13.328	13.140	13.515
ProbeTrackDT01	9	ProbeTrackDT01	10.4	SCS215a	20100521.130149	20100521.130516	8	0.013328	60	0	60-180	60	128	NoGap	1	24	2	1	1	target	1	1880	60	5366	13.328	13.086	13.601
ProbeTrackDT01	9	ProbeTrackDT01	10.4	SCS215a	20100521.130149	20100521.130523	8	0.013328	60	0	60-180	60	124	NoGap	1	25	2	0	1	target	1	1866	67	5433	13.328	13.240	13.415
ProbeTrackDT01	9	ProbeTrackDT01	10.4	SCS215a	20100521.130149	20100521.130530	8	0.013328	60	0	60-180	60	82	NoGap	1	26	2	2	0	distractor	1	1560	220	5653	13.328	13.245	13.409
ProbeTrackDT01	9	ProbeTrackDT01	10.4	SCS215a	20100521.130149	20100521.130536	8	0.013328	60	0	60-180	60	66	NoGap	1	27	2	4	1	target	1	1906	47	5700	13.328	13.293	13.363
ProbeTrackDT01	9	ProbeTrackDT01	10.4	SCS215a	20100521.130149	20100521.130542	8	0.013328	60	0	60-180	60	73	NoGap	1	28	2	75	0	distractor	1	1440	280	5980	13.328	13.254	13.401
ProbeTrackDT01	9	ProbeTrackDT01	10.4	SCS215a	20100521.130149	20100521.130549	8	0.013328	60	0	60-180	60	161	NoGap	1	29	2	1	0	distractor	1	1320	340	6320	13.328	13.268	13.420
ProbeTrackDT01	9	ProbeTrackDT01	10.4	SCS215a	20100521.130149	20100521.130555	8	0.013328	60	0	60-180	60	178	NoGap	1	30	2	0	1	target	1	1706	147	6467	13.328	13.171	13.450
ProbeTrackDT01	9	ProbeTrackDT01	10.4	SCS215a	20100521.130149	20100521.130603	8	0.013328	60	0	60-180	60	165	NoGap	1	31	2	4	0	distractor	1	1666	167	6634	13.328	13.270	13.419
ProbeTrackDT01	9	ProbeTrackDT01	10.4	SCS215a	20100521.130149	20100521.130610	8	0.013328	60	0	60-180	60	131	NoGap	1	32	2	75	0	distractor	1	1960	20	6654	13.328	13.142	13.513
ProbeTrackDT01	9	ProbeTrackDT01	10.4	SCS215a	20100521.130149	20100521.130618	8	0.013328	60	0	60-180	60	132	NoGap	1	33	2	2	0	distractor	1	1933	34	6688	13.377	12.953	26.832
ProbeTrackDT01	9	ProbeTrackDT01	10.4	SCS215a	20100521.130149	20100521.130625	8	0.013328	60	0	60-180	60	158	NoGap	1	34	2	2	1	target	1	1333	334	7022	13.328	13.156	13.498
ProbeTrackDT01	9	ProbeTrackDT01	10.4	SCS215a	20100521.130149	20100521.130632	8	0.013328	60	0	60-180	60	101	NoGap	1	35	2	2	1	target	1	2719	0	7022	13.328	13.140	13.515
ProbeTrackDT01	9	ProbeTrackDT01	10.4	SCS215a	20100521.130149	20100521.130639	8	0.013328	60	0	60-180	60	132	NoGap	1	36	2	1	0	distractor	1	1080	460	7482	13.328	13.151	13.537
ProbeTrackDT01	9	ProbeTrackDT01	10.4	SCS215a	20100521.130149	20100521.130645	8	0.013328	60	0	60-180	60	158	NoGap	1	37	2	2	0	distractor	1	1080	460	7942	13.328	13.184	13.471
ProbeTrackDT01	9	ProbeTrackDT01	10.4	SCS215a	20100521.130149	20100521.130652	8	0.013328	60	0	60-180	60	121	NoGap	1	38	2	2	1	target	1	1333	334	8276	13.328	13.293	13.362
ProbeTrackDT01	9	ProbeTrackDT01	10.4	SCS215a	20100521.130149	20100521.130658	8	0.013328	60	0	60-180	60	112	NoGap	1	39	2	4	1	target	1	1906	47	8323	13.328	13.071	13.551
ProbeTrackDT01	9	ProbeTrackDT01	10.4	SCS215a	20100521.130149	20100521.130705	8	0.013328	60	0	60-180	60	80	NoGap	1	40	2	4	0	distractor	1	1000	500	8823	13.328	13.108	13.514
ProbeTrackDT01	9	ProbeTrackDT01	10.4	SCS215a	20100521.130748	20100521.130755	8	0.013328	60	10	60-180	60	151	GapPrac	1	1	2	0	0	distractor	1	3585	0	8823	13.328	13.293	13.363
ProbeTrackDT01	9	ProbeTrackDT01	10.4	SCS215a	20100521.130748	20100521.130804	8	0.013328	60	10	60-180	60	86	GapPrac	1	2	2	0	0	distractor	1	2799	0	8823	13.328	12.936	13.721
ProbeTrackDT01	9	ProbeTrackDT01	10.4	SCS215a	20100521.130748	20100521.130811	8	0.013328	60	10	60-180	60	175	GapPrac	1	3	2	2	0	distractor	1	1853	74	8897	13.328	13.062	13.594
ProbeTrackDT01	9	ProbeTrackDT01	10.4	SCS215a	20100521.130748	20100521.130819	8	0.013328	60	10	60-180	60	164	GapPrac	1	4	2	2	1	distractor	0	1973	-1000	7897	13.328	13.003	13.652
ProbeTrackDT01	9	ProbeTrackDT01	10.4	SCS215a	20100521.130748	20100521.130827	8	0.013328	60	10	60-180	60	150	GapPrac	1	5	2	75	0	distractor	1	1520	240	8137	13.328	13.142	13.513
ProbeTrackDT01	9	ProbeTrackDT01	10.4	SCS215a	20100521.130748	20100521.130835	8	0.013328	60	10	60-180	60	150	GapPrac	1	6	2	1	0	distractor	1	1680	160	8297	13.373	13.199	26.691
ProbeTrackDT01	9	ProbeTrackDT01	10.4	SCS215a	20100521.130748	20100521.130842	8	0.013328	60	10	60-180	60	166	GapPrac	1	7	2	0	1	target	1	1600	200	8497	13.328	13.167	13.523
ProbeTrackDT01	9	ProbeTrackDT01	10.4	SCS215a	20100521.130748	20100521.130849	8	0.013328	60	10	60-180	60	178	GapPrac	1	8	2	0	1	target	1	1693	154	8651	13.328	13.097	13.559
ProbeTrackDT01	9	ProbeTrackDT01	10.4	SCS215a	20100521.130748	20100521.130856	8	0.013328	60	10	60-180	60	97	GapPrac	1	9	2	1	1	target	1	1226	387	9038	13.328	13.113	13.577
ProbeTrackDT01	9	ProbeTrackDT01	10.4	SCS215a	20100521.130748	20100521.130902	8	0.013328	60	10	60-180	60	97	GapPrac	1	10	2	2	1	target	1	1147	427	9465	13.328	13.165	13.491
ProbeTrackDT01	9	ProbeTrackDT01	10.4	SCS215a	20100521.130748	20100521.130908	8	0.013328	60	10	60-180	60	133	GapPrac	1	11	2	75	1	target	1	933	534	9999	13.328	12.958	13.730
ProbeTrackDT01	9	ProbeTrackDT01	10.4	SCS215a	20100521.130748	20100521.130915	8	0.013328	60	10	60-180	60	63	GapPrac	1	12	2	4	1	target	1	1386	307	10306	13.391	13.220	26.192
ProbeTrackDT01	9	ProbeTrackDT01	10.4	SCS215a	20100521.130748	20100521.130921	8	0.013328	60	10	60-180	60	145	GapPrac	1	13	2	4	1	target	1	1133	434	10740	13.328	13.006	13.615
ProbeTrackDT01	9	ProbeTrackDT01	10.4	SCS215a	20100521.130748	20100521.130928	8	0.013328	60	10	60-180	60	73	GapPrac	1	14	2	4	0	target	0	1453	-1000	9740	13.448	13.124	26.897
ProbeTrackDT01	9	ProbeTrackDT01	10.4	SCS215a	20100521.130748	20100521.130933	8	0.013328	60	10	60-180	60	167	GapPrac	1	15	2	75	1	target	1	920	540	10280	13.328	13.114	13.543
ProbeTrackDT01	9	ProbeTrackDT01	10.4	SCS215a	20100521.130748	20100521.130941	8	0.013328	60	10	60-180	60	179	GapPrac	1	16	2	4	0	distractor	1	1226	387	10667	13.328	13.060	13.596
ProbeTrackDT01	9	ProbeTrackDT01	10.4	SCS215a	20100521.130748	20100521.130948	8	0.013328	60	10	60-180	60	83	GapPrac	1	17	2	2	0	distractor	1	1453	274	10941	13.328	13.231	13.457
ProbeTrackDT01	9	ProbeTrackDT01	10.4	SCS215a	20100521.130748	20100521.130954	8	0.013328	60	10	60-180	60	164	GapPrac	1	18	2	1	1	target	1	1080	460	11401	13.328	13.293	13.363
ProbeTrackDT01	9	ProbeTrackDT01	10.4	SCS215a	20100521.130748	20100521.131001	8	0.013328	60	10	60-180	60	145	GapPrac	1	19	2	75	0	distractor	1	1040	480	11881	13.401	13.063	40.238
ProbeTrackDT01	9	ProbeTrackDT01	10.4	SCS215a	20100521.130748	20100521.131008	8	0.013328	60	10	60-180	60	80	GapPrac	1	20	2	1	0	distractor	1	1386	307	12188	13.328	13.293	13.362
ProbeTrackDT01	9	ProbeTrackDT01	10.4	SCS215a	20100521.131057	20100521.131138	8	0.013328	60	10	60-180	60	101	GapPrac	1	1	2	1	1	target	1	1840	80	12268	13.328	13.293	13.363
ProbeTrackDT01	9	ProbeTrackDT01	10.4	SCS215a	20100521.131057	20100521.131145	8	0.013328	60	10	60-180	60	81	GapPrac	1	2	2	75	0	distractor	1	-13	1007	13275	13.328	12.992	13.663
ProbeTrackDT01	9	ProbeTrackDT01	10.4	SCS215a	20100521.131057	20100521.131150	8	0.013328	60	10	60-180	60	146	GapPrac	1	3	2	2	1	target	1	5265	0	13275	13.373	13.132	26.572
ProbeTrackDT01	9	ProbeTrackDT01	10.4	SCS215a	20100521.131057	20100521.131201	8	0.013328	60	10	60-180	60	114	GapPrac	1	4	2	2	0	distractor	1	1107	447	13722	13.328	12.966	13.689
ProbeTrackDT01	9	ProbeTrackDT01	10.4	SCS215a	20100521.131057	20100521.131207	8	0.013328	60	10	60-180	60	84	GapPrac	1	5	2	0	0	distractor	1	1067	467	14189	13.328	13.189	13.467
ProbeTrackDT01	9	ProbeTrackDT01	10.4	SCS215a	20100521.131057	20100521.131212	8	0.013328	60	10	60-180	60	150	GapPrac	1	6	2	4	1	target	1	1081	460	14649	13.328	13.216	13.439
ProbeTrackDT01	9	ProbeTrackDT01	10.4	SCS215a	20100521.131057	20100521.131219	8	0.013328	60	10	60-180	60	61	GapPrac	1	7	2	1	1	target	1	1240	380	15029	13.328	13.210	13.447
ProbeTrackDT01	9	ProbeTrackDT01	10.4	SCS215a	20100521.131057	20100521.131224	8	0.013328	60	10	60-180	60	77	GapPrac	1	8	2	2	0	target	0	2000	-1000	14029	13.328	13.293	13.363
ProbeTrackDT01	9	ProbeTrackDT01	10.4	SCS215a	20100521.131057	20100521.131231	8	0.013328	60	10	60-180	60	168	GapPrac	1	9	2	4	1	target	1	667	667	14696	13.328	13.148	13.509
ProbeTrackDT01	9	ProbeTrackDT01	10.4	SCS215a	20100521.131057	20100521.131237	8	0.013328	60	10	60-180	60	165	GapPrac	1	10	2	2	1	target	1	760	620	15316	13.328	13.233	13.431
ProbeTrackDT01	9	ProbeTrackDT01	10.4	SCS215a	20100521.131057	20100521.131244	8	0.013328	60	10	60-180	60	72	GapPrac	1	11	2	1	0	distractor	1	2000	0	15316	13.328	13.293	13.363
ProbeTrackDT01	9	ProbeTrackDT01	10.4	SCS215a	20100521.131057	20100521.131250	8	0.013328	60	10	60-180	60	148	GapPrac	1	12	2	75	1	distractor	0	1320	-1000	14316	13.328	13.236	13.454
ProbeTrackDT01	9	ProbeTrackDT01	10.4	SCS215a	20100521.131057	20100521.131258	8	0.013328	60	10	60-180	60	113	GapPrac	1	13	2	0	1	target	1	1786	107	14423	13.328	13.029	13.660
ProbeTrackDT01	9	ProbeTrackDT01	10.4	SCS215a	20100521.131057	20100521.131304	8	0.013328	60	10	60-180	60	111	GapPrac	1	14	2	4	0	distractor	1	3359	0	14423	13.328	13.185	13.472
ProbeTrackDT01	9	ProbeTrackDT01	10.4	SCS215a	20100521.131057	20100521.131313	8	0.013328	60	10	60-180	60	105	GapPrac	1	15	2	75	0	distractor	1	1227	387	14810	13.328	13.016	13.640
ProbeTrackDT01	9	ProbeTrackDT01	10.4	SCS215a	20100521.131057	20100521.131320	8	0.013328	60	10	60-180	60	175	GapPrac	1	16	2	4	0	distractor	1	893	554	15364	13.903	13.063	40.361
ProbeTrackDT01	9	ProbeTrackDT01	10.4	SCS215a	20100521.131057	20100521.131327	8	0.013328	60	10	60-180	60	79	GapPrac	1	17	2	75	1	distractor	0	2106	-1000	14364	13.328	13.253	13.402
ProbeTrackDT01	9	ProbeTrackDT01	10.4	SCS215a	20100521.131057	20100521.131334	8	0.013328	60	10	60-180	60	127	GapPrac	1	18	2	0	1	target	1	1080	460	14824	13.328	12.988	13.667
ProbeTrackDT01	9	ProbeTrackDT01	10.4	SCS215a	20100521.131057	20100521.131341	8	0.013328	60	10	60-180	60	142	GapPrac	1	19	2	1	0	distractor	1	1080	460	15284	13.420	13.169	26.656
ProbeTrackDT01	9	ProbeTrackDT01	10.4	SCS215a	20100521.131057	20100521.131347	8	0.013328	60	10	60-180	60	92	GapPrac	1	20	2	0	0	distractor	1	1160	420	15704	13.384	13.195	26.761
ProbeTrackDT01	9	ProbeTrackDT01	10.4	SCS215a	20100521.131412	20100521.131426	8	0.013328	60	10	60-180	60	143	GapExp	1	1	2	4	1	target	1	960	520	16224	13.328	13.216	13.441
ProbeTrackDT01	9	ProbeTrackDT01	10.4	SCS215a	20100521.131412	20100521.131432	8	0.013328	60	10	60-180	60	79	GapExp	1	2	2	1	0	distractor	1	867	567	16791	13.328	13.293	13.363
ProbeTrackDT01	9	ProbeTrackDT01	10.4	SCS215a	20100521.131412	20100521.131438	8	0.013328	60	10	60-180	60	106	GapExp	1	3	2	4	0	distractor	1	1493	254	17045	13.328	13.287	13.402
ProbeTrackDT01	9	ProbeTrackDT01	10.4	SCS215a	20100521.131412	20100521.131444	8	0.013328	60	10	60-180	60	138	GapExp	1	4	2	1	1	target	1	853	574	17619	13.328	13.292	13.363
ProbeTrackDT01	9	ProbeTrackDT01	10.4	SCS215a	20100521.131412	20100521.131450	8	0.013328	60	10	60-180	60	142	GapExp	1	5	2	75	0	distractor	1	933	534	18153	13.328	13.202	13.489
ProbeTrackDT01	9	ProbeTrackDT01	10.4	SCS215a	20100521.131412	20100521.131457	8	0.013328	60	10	60-180	60	94	GapExp	1	6	2	75	1	target	1	973	514	18667	13.328	13.234	13.421
ProbeTrackDT01	9	ProbeTrackDT01	10.4	SCS215a	20100521.131412	20100521.131504	8	0.013328	60	10	60-180	60	105	GapExp	1	7	2	2	1	target	1	1266	367	19034	13.328	13.096	13.560
ProbeTrackDT01	9	ProbeTrackDT01	10.4	SCS215a	20100521.131412	20100521.131510	8	0.013328	60	10	60-180	60	69	GapExp	1	8	2	2	0	distractor	1	1147	427	19461	13.328	12.878	13.744
ProbeTrackDT01	9	ProbeTrackDT01	10.4	SCS215a	20100521.131412	20100521.131516	8	0.013328	60	10	60-180	60	106	GapExp	1	9	2	0	1	target	1	907	547	20008	13.328	13.204	13.453
ProbeTrackDT01	9	ProbeTrackDT01	10.4	SCS215a	20100521.131412	20100521.131521	8	0.013328	60	10	60-180	60	169	GapExp	1	10	2	0	0	target	0	1533	-1000	19008	13.328	13.293	13.363
ProbeTrackDT01	9	ProbeTrackDT01	10.4	SCS215a	20100521.131412	20100521.131528	8	0.013328	60	10	60-180	60	89	GapExp	0	11	2	0	1	distractor	0	2013	-1000	18008	13.328	13.293	13.363
ProbeTrackDT01	9	ProbeTrackDT01	10.4	SCS215a	20100521.131412	20100521.131535	8	0.013328	60	10	60-180	60	141	GapExp	0	12	2	1	1	target	1	3639	0	18008	13.328	13.176	13.514
ProbeTrackDT01	9	ProbeTrackDT01	10.4	SCS215a	20100521.131412	20100521.131544	8	0.013328	60	10	60-180	60	140	GapExp	0	13	2	1	1	target	1	3692	0	18008	13.328	13.293	13.363
ProbeTrackDT01	9	ProbeTrackDT01	10.4	SCS215a	20100521.131412	20100521.131553	8	0.013328	60	10	60-180	60	67	GapExp	0	14	2	75	1	target	1	2093	0	18008	13.421	13.214	26.803
ProbeTrackDT01	9	ProbeTrackDT01	10.4	SCS215a	20100521.131412	20100521.131600	8	0.013328	60	10	60-180	60	68	GapExp	0	15	2	2	1	distractor	0	1173	-1000	17008	13.328	13.190	13.467
ProbeTrackDT01	9	ProbeTrackDT01	10.4	SCS215a	20100521.131412	20100521.131606	8	0.013328	60	10	60-180	60	92	GapExp	0	16	2	2	1	target	1	1067	467	17475	13.328	13.289	13.363
ProbeTrackDT01	9	ProbeTrackDT01	10.4	SCS215a	20100521.131412	20100521.131611	8	0.013328	60	10	60-180	60	143	GapExp	0	17	2	1	0	distractor	1	1986	7	17482	13.374	13.232	26.687
ProbeTrackDT01	9	ProbeTrackDT01	10.4	SCS215a	20100521.131412	20100521.131619	8	0.013328	60	10	60-180	60	157	GapExp	0	18	2	75	0	distractor	1	1880	60	17542	13.328	13.293	13.363
ProbeTrackDT01	9	ProbeTrackDT01	10.4	SCS215a	20100521.131412	20100521.131627	8	0.013328	60	10	60-180	60	169	GapExp	0	19	2	4	1	target	1	3466	0	17542	13.328	13.292	13.364
ProbeTrackDT01	9	ProbeTrackDT01	10.4	SCS215a	20100521.131412	20100521.131636	8	0.013328	60	10	60-180	60	74	GapExp	0	20	2	1	0	distractor	1	6291	0	17542	13.328	13.258	13.397
ProbeTrackDT01	9	ProbeTrackDT01	10.4	SCS215a	20100521.131412	20100521.131647	8	0.013328	60	10	60-180	60	89	GapExp	0	21	2	75	1	target	1	1320	340	17882	13.371	13.212	26.792
ProbeTrackDT01	9	ProbeTrackDT01	10.4	SCS215a	20100521.131412	20100521.131654	8	0.013328	60	10	60-180	60	148	GapExp	0	22	2	2	0	target	0	827	-1000	16882	13.418	13.293	26.548
ProbeTrackDT01	9	ProbeTrackDT01	10.4	SCS215a	20100521.131412	20100521.131700	8	0.013328	60	10	60-180	60	136	GapExp	0	23	2	0	0	target	0	2413	-1000	15882	13.375	13.291	26.711
ProbeTrackDT01	9	ProbeTrackDT01	10.4	SCS215a	20100521.131412	20100521.131708	8	0.013328	60	10	60-180	60	171	GapExp	0	24	2	0	0	distractor	1	960	520	16402	13.412	13.264	39.966
ProbeTrackDT01	9	ProbeTrackDT01	10.4	SCS215a	20100521.131412	20100521.131714	8	0.013328	60	10	60-180	60	106	GapExp	0	25	2	2	1	target	1	2106	0	16402	13.328	13.293	13.363
ProbeTrackDT01	9	ProbeTrackDT01	10.4	SCS215a	20100521.131412	20100521.131721	8	0.013328	60	10	60-180	60	109	GapExp	0	26	2	0	0	distractor	1	1400	300	16702	13.433	13.229	26.677
ProbeTrackDT01	9	ProbeTrackDT01	10.4	SCS215a	20100521.131412	20100521.131728	8	0.013328	60	10	60-180	60	146	GapExp	0	27	2	0	0	distractor	1	2879	0	16702	13.419	13.293	27.003
ProbeTrackDT01	9	ProbeTrackDT01	10.4	SCS215a	20100521.131412	20100521.131736	8	0.013328	60	10	60-180	60	166	GapExp	0	28	2	1	1	target	1	1786	107	16809	13.413	13.219	26.756
ProbeTrackDT01	9	ProbeTrackDT01	10.4	SCS215a	20100521.131412	20100521.131743	8	0.013328	60	10	60-180	60	83	GapExp	0	29	2	2	1	target	1	1946	27	16836	13.328	13.293	13.363
ProbeTrackDT01	9	ProbeTrackDT01	10.4	SCS215a	20100521.131412	20100521.131750	8	0.013328	60	10	60-180	60	86	GapExp	0	30	2	1	1	target	1	1546	227	17063	13.385	13.109	26.680
ProbeTrackDT01	9	ProbeTrackDT01	10.4	SCS215a	20100521.131412	20100521.131756	8	0.013328	60	10	60-180	60	118	GapExp	0	31	2	75	0	distractor	1	933	534	17597	13.446	13.202	26.770
ProbeTrackDT01	9	ProbeTrackDT01	10.4	SCS215a	20100521.131412	20100521.131803	8	0.013328	60	10	60-180	60	103	GapExp	0	32	2	4	1	target	1	1000	500	18097	13.434	13.268	26.650
ProbeTrackDT01	9	ProbeTrackDT01	10.4	SCS215a	20100521.131412	20100521.131809	8	0.013328	60	10	60-180	60	74	GapExp	0	33	2	2	0	distractor	1	1200	400	18497	13.328	13.286	13.404
ProbeTrackDT01	9	ProbeTrackDT01	10.4	SCS215a	20100521.131412	20100521.131814	8	0.013328	60	10	60-180	60	83	GapExp	0	34	2	2	1	distractor	0	1946	-1000	17497	13.328	13.281	13.365
ProbeTrackDT01	9	ProbeTrackDT01	10.4	SCS215a	20100521.131412	20100521.131821	8	0.013328	60	10	60-180	60	69	GapExp	0	35	2	1	1	target	1	1640	180	17677	13.328	13.293	13.363
ProbeTrackDT01	9	ProbeTrackDT01	10.4	SCS215a	20100521.131412	20100521.131827	8	0.013328	60	10	60-180	60	125	GapExp	0	36	2	75	1	target	1	1067	467	18144	13.328	13.293	13.364
ProbeTrackDT01	9	ProbeTrackDT01	10.4	SCS215a	20100521.131412	20100521.131834	8	0.013328	60	10	60-180	60	80	GapExp	0	37	2	1	1	target	1	1520	240	18384	13.328	13.192	13.464
ProbeTrackDT01	9	ProbeTrackDT01	10.4	SCS215a	20100521.131412	20100521.131840	8	0.013328	60	10	60-180	60	177	GapExp	0	38	2	1	0	distractor	1	907	547	18931	13.328	13.220	13.469
ProbeTrackDT01	9	ProbeTrackDT01	10.4	SCS215a	20100521.131412	20100521.131847	8	0.013328	60	10	60-180	60	180	GapExp	0	39	2	4	0	distractor	1	707	647	19578	13.328	13.195	13.460
ProbeTrackDT01	9	ProbeTrackDT01	10.4	SCS215a	20100521.131412	20100521.131853	8	0.013328	60	10	60-180	60	169	GapExp	0	40	2	4	1	distractor	0	1906	-1000	18578	13.328	13.293	13.363
ProbeTrackDT01	9	ProbeTrackDT01	10.4	SCS215a	20100521.131412	20100521.131901	8	0.013328	60	10	60-180	60	138	GapExp	0	41	2	0	0	distractor	1	1067	467	19045	13.328	13.293	13.367
ProbeTrackDT01	9	ProbeTrackDT01	10.4	SCS215a	20100521.131412	20100521.131907	8	0.013328	60	10	60-180	60	129	GapExp	0	42	2	4	0	distractor	1	1280	360	19405	13.328	13.142	13.548
ProbeTrackDT01	9	ProbeTrackDT01	10.4	SCS215a	20100521.131412	20100521.131914	8	0.013328	60	10	60-180	60	131	GapExp	0	43	2	1	1	target	1	1560	220	19625	13.328	13.245	13.410
ProbeTrackDT01	9	ProbeTrackDT01	10.4	SCS215a	20100521.131412	20100521.131920	8	0.013328	60	10	60-180	60	66	GapExp	0	44	2	2	0	distractor	1	853	574	20199	13.328	13.289	13.367
ProbeTrackDT01	9	ProbeTrackDT01	10.4	SCS215a	20100521.131412	20100521.131925	8	0.013328	60	10	60-180	60	92	GapExp	0	45	2	4	0	distractor	1	2946	0	20199	13.328	13.293	13.363
ProbeTrackDT01	9	ProbeTrackDT01	10.4	SCS215a	20100521.131412	20100521.131933	8	0.013328	60	10	60-180	60	137	GapExp	0	46	2	75	0	distractor	1	1053	474	20673	13.328	13.293	13.363
ProbeTrackDT01	9	ProbeTrackDT01	10.4	SCS215a	20100521.131412	20100521.131940	8	0.013328	60	10	60-180	60	124	GapExp	0	47	2	2	0	distractor	1	973	514	21187	13.328	13.293	13.376
ProbeTrackDT01	9	ProbeTrackDT01	10.4	SCS215a	20100521.131412	20100521.131946	8	0.013328	60	10	60-180	60	124	GapExp	0	48	2	0	1	target	1	1586	207	21394	13.328	13.183	13.438
ProbeTrackDT01	9	ProbeTrackDT01	10.4	SCS215a	20100521.131412	20100521.131953	8	0.013328	60	10	60-180	60	87	GapExp	0	49	2	75	1	target	1	893	554	21948	13.328	13.293	13.363
ProbeTrackDT01	9	ProbeTrackDT01	10.4	SCS215a	20100521.131412	20100521.131959	8	0.013328	60	10	60-180	60	77	GapExp	0	50	2	2	1	target	1	1533	234	22182	13.328	13.293	13.363
ProbeTrackDT01	9	ProbeTrackDT01	10.4	SCS215a	20100521.131412	20100521.132022	8	0.013328	60	10	60-180	60	104	GapExp	0	51	2	2	1	target	1	1346	327	22509	13.328	13.293	13.363
ProbeTrackDT01	9	ProbeTrackDT01	10.4	SCS215a	20100521.131412	20100521.132028	8	0.013328	60	10	60-180	60	151	GapExp	0	52	2	0	0	distractor	1	693	654	23163	13.328	13.293	13.363
ProbeTrackDT01	9	ProbeTrackDT01	10.4	SCS215a	20100521.131412	20100521.132034	8	0.013328	60	10	60-180	60	135	GapExp	0	53	2	0	0	distractor	1	1027	487	23650	13.328	13.293	13.363
ProbeTrackDT01	9	ProbeTrackDT01	10.4	SCS215a	20100521.131412	20100521.132040	8	0.013328	60	10	60-180	60	72	GapExp	0	54	2	4	0	distractor	1	707	647	24297	13.328	13.293	13.363
ProbeTrackDT01	9	ProbeTrackDT01	10.4	SCS215a	20100521.131412	20100521.132045	8	0.013328	60	10	60-180	60	175	GapExp	0	55	2	4	0	distractor	1	800	600	24897	13.328	13.292	13.363
ProbeTrackDT01	9	ProbeTrackDT01	10.4	SCS215a	20100521.131412	20100521.132052	8	0.013328	60	10	60-180	60	142	GapExp	0	56	2	1	1	distractor	0	2413	-1000	23897	13.328	13.274	13.384
ProbeTrackDT01	9	ProbeTrackDT01	10.4	SCS215a	20100521.131412	20100521.132059	8	0.013328	60	10	60-180	60	112	GapExp	0	57	2	4	0	target	0	1693	-1000	22897	13.328	13.293	13.363
ProbeTrackDT01	9	ProbeTrackDT01	10.4	SCS215a	20100521.131412	20100521.132106	8	0.013328	60	10	60-180	60	113	GapExp	0	58	2	0	1	target	1	2066	0	22897	13.328	13.292	13.363
ProbeTrackDT01	9	ProbeTrackDT01	10.4	SCS215a	20100521.131412	20100521.132113	8	0.013328	60	10	60-180	60	137	GapExp	0	59	2	1	1	target	1	1306	347	23244	13.375	13.111	26.870
ProbeTrackDT01	9	ProbeTrackDT01	10.4	SCS215a	20100521.131412	20100521.132120	8	0.013328	60	10	60-180	60	68	GapExp	0	60	2	0	1	target	1	1306	347	23591	13.328	13.293	13.363
ProbeTrackDT01	9	ProbeTrackDT01	10.4	SCS215a	20100521.131412	20100521.132125	8	0.013328	60	10	60-180	60	166	GapExp	0	61	2	4	0	distractor	1	1000	500	24091	13.328	13.240	13.415
ProbeTrackDT01	9	ProbeTrackDT01	10.4	SCS215a	20100521.131412	20100521.132132	8	0.013328	60	10	60-180	60	170	GapExp	0	62	2	75	0	distractor	1	867	567	24658	13.328	13.192	13.464
ProbeTrackDT01	9	ProbeTrackDT01	10.4	SCS215a	20100521.131412	20100521.132139	8	0.013328	60	10	60-180	60	146	GapExp	0	63	2	0	0	distractor	1	2293	0	24658	13.328	13.108	13.564
ProbeTrackDT01	9	ProbeTrackDT01	10.4	SCS215a	20100521.131412	20100521.132147	8	0.013328	60	10	60-180	60	138	GapExp	0	64	2	2	1	distractor	0	1733	-1000	23658	13.328	13.221	13.401
ProbeTrackDT01	9	ProbeTrackDT01	10.4	SCS215a	20100521.131412	20100521.132154	8	0.013328	60	10	60-180	60	118	GapExp	0	65	2	1	0	target	0	720	-1000	22658	13.328	13.283	13.371
ProbeTrackDT01	9	ProbeTrackDT01	10.4	SCS215a	20100521.131412	20100521.132200	8	0.013328	60	10	60-180	60	173	GapExp	0	66	2	2	1	target	1	653	674	23332	13.328	13.043	13.578
ProbeTrackDT01	9	ProbeTrackDT01	10.4	SCS215a	20100521.131412	20100521.132206	8	0.013328	60	10	60-180	60	91	GapExp	0	67	2	0	1	target	1	2932	0	23332	13.328	13.167	13.488
ProbeTrackDT01	9	ProbeTrackDT01	10.4	SCS215a	20100521.131412	20100521.132214	8	0.013328	60	10	60-180	60	100	GapExp	0	68	2	1	0	target	0	1466	-1000	22332	13.328	13.293	13.363
ProbeTrackDT01	9	ProbeTrackDT01	10.4	SCS215a	20100521.131412	20100521.132220	8	0.013328	60	10	60-180	60	62	GapExp	0	69	2	4	0	distractor	1	2000	0	22332	13.328	13.212	13.439
ProbeTrackDT01	9	ProbeTrackDT01	10.4	SCS215a	20100521.131412	20100521.132226	8	0.013328	60	10	60-180	60	155	GapExp	0	70	2	4	0	distractor	1	3132	0	22332	13.328	13.222	13.433
ProbeTrackDT01	9	ProbeTrackDT01	10.4	SCS215a	20100521.131412	20100521.132235	8	0.013328	60	10	60-180	60	107	GapExp	0	71	2	1	1	distractor	0	2626	-1000	21332	13.328	13.293	13.363
ProbeTrackDT01	9	ProbeTrackDT01	10.4	SCS215a	20100521.131412	20100521.132242	8	0.013328	60	10	60-180	60	118	GapExp	0	72	2	4	1	target	1	3012	0	21332	13.328	13.126	13.531
ProbeTrackDT01	9	ProbeTrackDT01	10.4	SCS215a	20100521.131412	20100521.132250	8	0.013328	60	10	60-180	60	134	GapExp	0	73	2	75	1	target	1	813	594	21926	13.328	13.292	13.363
ProbeTrackDT01	9	ProbeTrackDT01	10.4	SCS215a	20100521.131412	20100521.132257	8	0.013328	60	10	60-180	60	68	GapExp	0	74	2	75	1	target	1	1067	467	22393	13.328	13.270	13.363
ProbeTrackDT01	9	ProbeTrackDT01	10.4	SCS215a	20100521.131412	20100521.132304	8	0.013328	60	10	60-180	60	176	GapExp	0	75	2	1	1	target	1	1920	40	22433	13.328	13.233	13.424
ProbeTrackDT01	9	ProbeTrackDT01	10.4	SCS215a	20100521.131412	20100521.132311	8	0.013328	60	10	60-180	60	134	GapExp	0	76	2	1	0	target	0	1120	-1000	21433	13.328	13.293	13.367
ProbeTrackDT01	9	ProbeTrackDT01	10.4	SCS215a	20100521.131412	20100521.132318	8	0.013328	60	10	60-180	60	94	GapExp	0	77	2	75	1	distractor	0	1253	-1000	20433	13.328	13.124	13.705
ProbeTrackDT01	9	ProbeTrackDT01	10.4	SCS215a	20100521.131412	20100521.132325	8	0.013328	60	10	60-180	60	170	GapExp	0	78	2	75	1	distractor	0	933	-1000	19433	13.328	13.015	13.640
ProbeTrackDT01	9	ProbeTrackDT01	10.4	SCS215a	20100521.131412	20100521.132332	8	0.013328	60	10	60-180	60	142	GapExp	0	79	2	75	0	distractor	1	720	640	20073	13.328	13.289	13.363
ProbeTrackDT01	9	ProbeTrackDT01	10.4	SCS215a	20100521.131412	20100521.132339	8	0.013328	60	10	60-180	60	155	GapExp	0	80	2	0	1	target	1	947	527	20600	13.328	13.049	13.573
ProbeTrackDT01	9	ProbeTrackDT01	10.4	SCS215a	20100521.131412	20100521.132346	8	0.013328	60	10	60-180	60	143	GapExp	0	81	2	0	1	target	1	733	634	21234	13.468	13.193	40.002
ProbeTrackDT01	9	ProbeTrackDT01	10.4	SCS215a	20100521.131412	20100521.132352	8	0.013328	60	10	60-180	60	171	GapExp	0	82	2	1	0	distractor	1	960	520	21754	13.328	13.290	13.363
ProbeTrackDT01	9	ProbeTrackDT01	10.4	SCS215a	20100521.131412	20100521.132358	8	0.013328	60	10	60-180	60	153	GapExp	0	83	2	75	0	distractor	1	733	634	22388	13.328	12.979	13.643
ProbeTrackDT01	9	ProbeTrackDT01	10.4	SCS215a	20100521.131412	20100521.132406	8	0.013328	60	10	60-180	60	114	GapExp	0	84	2	75	1	distractor	0	560	-1000	21388	13.328	13.293	13.363
ProbeTrackDT01	9	ProbeTrackDT01	10.4	SCS215a	20100521.131412	20100521.132412	8	0.013328	60	10	60-180	60	180	GapExp	0	85	2	1	0	distractor	1	880	560	21948	13.328	13.290	13.363
ProbeTrackDT01	9	ProbeTrackDT01	10.4	SCS215a	20100521.131412	20100521.132419	8	0.013328	60	10	60-180	60	106	GapExp	0	86	2	4	0	distractor	1	800	600	22548	13.328	13.292	13.365
ProbeTrackDT01	9	ProbeTrackDT01	10.4	SCS215a	20100521.131412	20100521.132425	8	0.013328	60	10	60-180	60	84	GapExp	0	87	2	0	1	target	1	1453	274	22822	13.328	13.293	13.363
ProbeTrackDT01	9	ProbeTrackDT01	10.4	SCS215a	20100521.131412	20100521.132431	8	0.013328	60	10	60-180	60	138	GapExp	0	88	2	0	1	target	1	973	514	23336	13.328	13.290	13.377
ProbeTrackDT01	9	ProbeTrackDT01	10.4	SCS215a	20100521.131412	20100521.132437	8	0.013328	60	10	60-180	60	90	GapExp	0	89	2	2	1	target	1	1493	254	23590	13.328	13.054	13.600
ProbeTrackDT01	9	ProbeTrackDT01	10.4	SCS215a	20100521.131412	20100521.132443	8	0.013328	60	10	60-180	60	117	GapExp	0	90	2	4	1	target	1	614	693	24283	13.328	13.204	13.417
ProbeTrackDT01	9	ProbeTrackDT01	10.4	SCS215a	20100521.131412	20100521.132448	8	0.013328	60	10	60-180	60	71	GapExp	0	91	2	0	1	target	1	747	627	24910	13.328	13.293	13.363
ProbeTrackDT01	9	ProbeTrackDT01	10.4	SCS215a	20100521.131412	20100521.132454	8	0.013328	60	10	60-180	60	113	GapExp	0	92	2	0	0	target	0	1786	-1000	23910	13.328	13.178	13.512
ProbeTrackDT01	9	ProbeTrackDT01	10.4	SCS215a	20100521.131412	20100521.132500	8	0.013328	60	10	60-180	60	132	GapExp	0	93	2	1	0	target	0	1053	-1000	22910	13.328	13.127	13.529
ProbeTrackDT01	9	ProbeTrackDT01	10.4	SCS215a	20100521.131412	20100521.132506	8	0.013328	60	10	60-180	60	86	GapExp	0	94	2	75	0	distractor	1	747	627	23537	13.328	13.049	13.641
ProbeTrackDT01	9	ProbeTrackDT01	10.4	SCS215a	20100521.131412	20100521.132513	8	0.013328	60	10	60-180	60	134	GapExp	0	95	2	2	0	target	0	1893	-1000	22537	13.328	13.202	13.453
ProbeTrackDT01	9	ProbeTrackDT01	10.4	SCS215a	20100521.131412	20100521.132520	8	0.013328	60	10	60-180	60	112	GapExp	0	96	2	75	1	distractor	0	294	-1000	21537	13.328	13.293	13.364
ProbeTrackDT01	9	ProbeTrackDT01	10.4	SCS215a	20100521.131412	20100521.132526	8	0.013328	60	10	60-180	60	122	GapExp	0	97	2	4	1	target	1	2226	0	21537	13.328	13.093	13.563
ProbeTrackDT01	9	ProbeTrackDT01	10.4	SCS215a	20100521.131412	20100521.132533	8	0.013328	60	10	60-180	60	157	GapExp	0	98	2	2	0	distractor	1	1573	214	21751	13.328	13.292	13.363
ProbeTrackDT01	9	ProbeTrackDT01	10.4	SCS215a	20100521.131412	20100521.132540	8	0.013328	60	10	60-180	60	100	GapExp	0	99	2	1	1	target	1	2892	0	21751	13.328	13.275	13.381
ProbeTrackDT01	9	ProbeTrackDT01	10.4	SCS215a	20100521.131412	20100521.132548	8	0.013328	60	10	60-180	60	166	GapExp	0	100	2	2	0	distractor	1	1920	40	21791	13.328	13.091	13.598
ProbeTrackDT01	9	ProbeTrackDT01	10.4	SCS215a	20100521.131412	20100521.132607	8	0.013328	60	10	60-180	60	177	GapExp	0	101	2	75	1	distractor	0	1973	-1000	20791	13.328	13.293	13.363
ProbeTrackDT01	9	ProbeTrackDT01	10.4	SCS215a	20100521.131412	20100521.132615	8	0.013328	60	10	60-180	60	65	GapExp	0	102	2	2	1	target	1	1746	127	20918	13.391	13.293	26.658
ProbeTrackDT01	9	ProbeTrackDT01	10.4	SCS215a	20100521.131412	20100521.132621	8	0.013328	60	10	60-180	60	149	GapExp	0	103	2	75	1	target	1	1373	314	21232	13.328	12.975	13.681
ProbeTrackDT01	9	ProbeTrackDT01	10.4	SCS215a	20100521.131412	20100521.132629	8	0.013328	60	10	60-180	60	171	GapExp	0	104	2	2	0	distractor	1	587	707	21939	13.328	13.233	13.457
ProbeTrackDT01	9	ProbeTrackDT01	10.4	SCS215a	20100521.131412	20100521.132635	8	0.013328	60	10	60-180	60	63	GapExp	0	105	2	75	0	distractor	1	1346	327	22266	13.328	13.169	13.653
ProbeTrackDT01	9	ProbeTrackDT01	10.4	SCS215a	20100521.131412	20100521.132642	8	0.013328	60	10	60-180	60	106	GapExp	0	106	2	0	1	target	1	1706	147	22413	13.328	13.293	13.363
ProbeTrackDT01	9	ProbeTrackDT01	10.4	SCS215a	20100521.131412	20100521.132649	8	0.013328	60	10	60-180	60	156	GapExp	0	107	2	1	0	target	0	2119	-1000	21413	13.328	13.204	13.451
ProbeTrackDT01	9	ProbeTrackDT01	10.4	SCS215a	20100521.131412	20100521.132656	8	0.013328	60	10	60-180	60	174	GapExp	0	108	2	4	1	target	1	733	634	22047	13.328	13.114	13.541
ProbeTrackDT01	9	ProbeTrackDT01	10.4	SCS215a	20100521.131412	20100521.132703	8	0.013328	60	10	60-180	60	126	GapExp	0	109	2	1	0	target	0	1693	-1000	21047	13.328	13.108	13.548
ProbeTrackDT01	9	ProbeTrackDT01	10.4	SCS215a	20100521.131412	20100521.132709	8	0.013328	60	10	60-180	60	67	GapExp	0	110	2	0	1	target	1	2079	0	21047	13.328	13.095	13.527
ProbeTrackDT01	9	ProbeTrackDT01	10.4	SCS215a	20100521.131412	20100521.132716	8	0.013328	60	10	60-180	60	63	GapExp	0	111	2	75	0	distractor	1	1520	240	21287	13.328	13.040	13.616
ProbeTrackDT01	9	ProbeTrackDT01	10.4	SCS215a	20100521.131412	20100521.132723	8	0.013328	60	10	60-180	60	139	GapExp	0	112	2	75	0	distractor	1	1773	114	21401	13.328	13.002	13.647
ProbeTrackDT01	9	ProbeTrackDT01	10.4	SCS215a	20100521.131412	20100521.132731	8	0.013328	60	10	60-180	60	120	GapExp	0	113	2	2	1	target	1	1773	114	21515	13.428	13.149	26.811
ProbeTrackDT01	9	ProbeTrackDT01	10.4	SCS215a	20100521.131412	20100521.132738	8	0.013328	60	10	60-180	60	106	GapExp	0	114	2	1	1	target	1	1746	127	21642	13.328	13.147	13.509
ProbeTrackDT01	9	ProbeTrackDT01	10.4	SCS215a	20100521.131412	20100521.132744	8	0.013328	60	10	60-180	60	79	GapExp	0	115	2	4	0	distractor	1	1853	74	21716	13.328	13.093	13.563
ProbeTrackDT01	9	ProbeTrackDT01	10.4	SCS215a	20100521.131412	20100521.132750	8	0.013328	60	10	60-180	60	106	GapExp	0	116	2	75	0	distractor	1	880	560	22276	13.328	13.203	13.454
ProbeTrackDT01	9	ProbeTrackDT01	10.4	SCS215a	20100521.131412	20100521.132757	8	0.013328	60	10	60-180	60	120	GapExp	0	117	2	4	0	target	0	1693	-1000	21276	13.328	13.147	13.542
ProbeTrackDT01	9	ProbeTrackDT01	10.4	SCS215a	20100521.131412	20100521.132804	8	0.013328	60	10	60-180	60	88	GapExp	0	118	2	2	1	target	1	1813	94	21370	13.328	13.293	13.363
ProbeTrackDT01	9	ProbeTrackDT01	10.4	SCS215a	20100521.131412	20100521.132810	8	0.013328	60	10	60-180	60	137	GapExp	0	119	2	2	1	target	1	1000	500	21870	13.328	13.293	13.363
ProbeTrackDT01	9	ProbeTrackDT01	10.4	SCS215a	20100521.131412	20100521.132817	8	0.013328	60	10	60-180	60	89	GapExp	0	120	2	1	0	distractor	1	1333	334	22204	13.328	13.217	13.438
ProbeTrackDT01	9	ProbeTrackDT01	10.4	SCS215a	20100521.131412	20100521.132823	8	0.013328	60	10	60-180	60	83	GapExp	0	121	2	2	0	distractor	1	947	527	22731	13.328	13.293	13.363
ProbeTrackDT01	9	ProbeTrackDT01	10.4	SCS215a	20100521.131412	20100521.132828	8	0.013328	60	10	60-180	60	153	GapExp	0	122	2	2	0	distractor	1	627	687	23418	13.328	12.882	13.773
ProbeTrackDT01	9	ProbeTrackDT01	10.4	SCS215a	20100521.131412	20100521.132834	8	0.013328	60	10	60-180	60	88	GapExp	0	123	2	2	1	target	1	947	527	23945	13.328	13.171	13.518
ProbeTrackDT01	9	ProbeTrackDT01	10.4	SCS215a	20100521.131412	20100521.132840	8	0.013328	60	10	60-180	60	128	GapExp	0	124	2	2	0	distractor	1	587	707	24652	13.328	13.293	13.363
ProbeTrackDT01	9	ProbeTrackDT01	10.4	SCS215a	20100521.131412	20100521.132845	8	0.013328	60	10	60-180	60	166	GapExp	0	125	2	4	1	target	1	1573	214	24866	13.328	13.245	13.377
ProbeTrackDT01	9	ProbeTrackDT01	10.4	SCS215a	20100521.131412	20100521.132853	8	0.013328	60	10	60-180	60	129	GapExp	0	126	2	1	1	target	1	1346	327	25193	13.328	13.114	13.575
ProbeTrackDT01	9	ProbeTrackDT01	10.4	SCS215a	20100521.131412	20100521.132859	8	0.013328	60	10	60-180	60	138	GapExp	0	127	2	1	1	target	1	840	580	25773	13.328	13.120	13.536
ProbeTrackDT01	9	ProbeTrackDT01	10.4	SCS215a	20100521.131412	20100521.132905	8	0.013328	60	10	60-180	60	99	GapExp	0	128	2	75	1	target	1	560	720	26493	13.328	13.127	13.528
ProbeTrackDT01	9	ProbeTrackDT01	10.4	SCS215a	20100521.131412	20100521.132911	8	0.013328	60	10	60-180	60	138	GapExp	0	129	2	4	0	distractor	1	613	694	27187	13.328	13.293	13.362
ProbeTrackDT01	9	ProbeTrackDT01	10.4	SCS215a	20100521.131412	20100521.132917	8	0.013328	60	10	60-180	60	69	GapExp	0	130	2	4	1	target	1	760	620	27807	13.328	13.047	13.575
ProbeTrackDT01	9	ProbeTrackDT01	10.4	SCS215a	20100521.131412	20100521.132923	8	0.013328	60	10	60-180	60	145	GapExp	0	131	2	4	1	target	1	707	647	28454	13.328	13.293	13.363
ProbeTrackDT01	9	ProbeTrackDT01	10.4	SCS215a	20100521.131412	20100521.132929	8	0.013328	60	10	60-180	60	110	GapExp	0	132	2	2	0	distractor	1	827	587	29041	13.328	13.293	13.363
ProbeTrackDT01	9	ProbeTrackDT01	10.4	SCS215a	20100521.131412	20100521.132934	8	0.013328	60	10	60-180	60	149	GapExp	0	133	2	4	1	distractor	0	813	-1000	28041	13.328	13.293	13.363
ProbeTrackDT01	9	ProbeTrackDT01	10.4	SCS215a	20100521.131412	20100521.132941	8	0.013328	60	10	60-180	60	168	GapExp	0	134	2	0	0	target	0	1107	-1000	27041	13.328	13.293	13.363
ProbeTrackDT01	9	ProbeTrackDT01	10.4	SCS215a	20100521.131412	20100521.132947	8	0.013328	60	10	60-180	60	85	GapExp	0	135	2	0	0	distractor	1	707	647	27688	13.328	13.254	13.402
ProbeTrackDT01	9	ProbeTrackDT01	10.4	SCS215a	20100521.131412	20100521.132953	8	0.013328	60	10	60-180	60	125	GapExp	0	136	2	2	0	distractor	1	853	574	28262	13.328	13.293	13.363
ProbeTrackDT01	9	ProbeTrackDT01	10.4	SCS215a	20100521.131412	20100521.132959	8	0.013328	60	10	60-180	60	99	GapExp	0	137	2	0	0	distractor	1	1027	487	28749	13.328	13.293	13.363
ProbeTrackDT01	9	ProbeTrackDT01	10.4	SCS215a	20100521.131412	20100521.133004	8	0.013328	60	10	60-180	60	172	GapExp	0	138	2	2	1	target	1	987	507	29256	13.328	13.176	13.479
ProbeTrackDT01	9	ProbeTrackDT01	10.4	SCS215a	20100521.131412	20100521.133011	8	0.013328	60	10	60-180	60	143	GapExp	0	139	2	4	1	target	1	2599	0	29256	13.328	13.288	13.400
ProbeTrackDT01	9	ProbeTrackDT01	10.4	SCS215a	20100521.131412	20100521.133019	8	0.013328	60	10	60-180	60	88	GapExp	0	140	2	2	0	distractor	1	1266	367	29623	13.328	13.293	13.362
ProbeTrackDT01	9	ProbeTrackDT01	10.4	SCS215a	20100521.131412	20100521.133025	8	0.013328	60	10	60-180	60	114	GapExp	0	141	2	75	0	distractor	1	760	620	30243	13.328	13.256	13.399
ProbeTrackDT01	9	ProbeTrackDT01	10.4	SCS215a	20100521.131412	20100521.133032	8	0.013328	60	10	60-180	60	173	GapExp	0	142	2	1	0	distractor	1	707	647	30890	13.328	13.215	13.440
ProbeTrackDT01	9	ProbeTrackDT01	10.4	SCS215a	20100521.131412	20100521.133038	8	0.013328	60	10	60-180	60	144	GapExp	0	143	2	4	1	target	1	614	693	31583	13.328	13.293	13.363
ProbeTrackDT01	9	ProbeTrackDT01	10.4	SCS215a	20100521.131412	20100521.133044	8	0.013328	60	10	60-180	60	90	GapExp	0	144	2	4	1	target	1	587	707	32290	13.328	12.906	13.715
ProbeTrackDT01	9	ProbeTrackDT01	10.4	SCS215a	20100521.131412	20100521.133049	8	0.013328	60	10	60-180	60	138	GapExp	0	145	2	4	0	distractor	1	1800	100	32390	13.328	13.090	13.532
ProbeTrackDT01	9	ProbeTrackDT01	10.4	SCS215a	20100521.131412	20100521.133056	8	0.013328	60	10	60-180	60	123	GapExp	0	146	2	4	0	distractor	1	1480	260	32650	13.328	13.188	13.468
ProbeTrackDT01	9	ProbeTrackDT01	10.4	SCS215a	20100521.131412	20100521.133103	8	0.013328	60	10	60-180	60	79	GapExp	0	147	2	75	1	target	1	827	587	33237	13.328	13.293	13.363
ProbeTrackDT01	9	ProbeTrackDT01	10.4	SCS215a	20100521.131412	20100521.133109	8	0.013328	60	10	60-180	60	115	GapExp	0	148	2	2	0	distractor	1	1666	167	33404	13.328	13.292	13.363
ProbeTrackDT01	9	ProbeTrackDT01	10.4	SCS215a	20100521.131412	20100521.133116	8	0.013328	60	10	60-180	60	178	GapExp	0	149	2	1	1	target	1	1386	307	33711	13.328	13.172	13.450
ProbeTrackDT01	9	ProbeTrackDT01	10.4	SCS215a	20100521.131412	20100521.133123	8	0.013328	60	10	60-180	60	177	GapExp	0	150	2	2	0	target	0	1200	-1000	32711	13.328	13.072	13.550
ProbeTrackDT01	9	ProbeTrackDT01	10.4	SCS215a	20100521.131412	20100521.133140	8	0.013328	60	10	60-180	60	115	GapExp	0	151	2	0	0	distractor	1	2013	0	32711	13.328	13.293	13.363
ProbeTrackDT01	9	ProbeTrackDT01	10.4	SCS215a	20100521.131412	20100521.133146	8	0.013328	60	10	60-180	60	97	GapExp	0	152	2	75	1	target	1	1146	427	33138	13.328	13.293	13.364
ProbeTrackDT01	9	ProbeTrackDT01	10.4	SCS215a	20100521.131412	20100521.133153	8	0.013328	60	10	60-180	60	106	GapExp	0	153	2	1	1	target	1	1586	207	33345	13.328	13.169	13.519
ProbeTrackDT01	9	ProbeTrackDT01	10.4	SCS215a	20100521.131412	20100521.133200	8	0.013328	60	10	60-180	60	114	GapExp	0	154	2	75	1	distractor	0	1266	-1000	32345	13.328	13.230	13.424
ProbeTrackDT01	9	ProbeTrackDT01	10.4	SCS215a	20100521.131412	20100521.133207	8	0.013328	60	10	60-180	60	157	GapExp	0	155	2	0	1	target	1	773	614	32959	13.328	13.235	13.390
ProbeTrackDT01	9	ProbeTrackDT01	10.4	SCS215a	20100521.131412	20100521.133213	8	0.013328	60	10	60-180	60	168	GapExp	0	156	2	2	0	target	0	867	-1000	31959	13.328	13.033	13.622
ProbeTrackDT01	9	ProbeTrackDT01	10.4	SCS215a	20100521.131412	20100521.133220	8	0.013328	60	10	60-180	60	116	GapExp	0	157	2	4	0	distractor	1	667	667	32626	13.328	13.293	13.363
ProbeTrackDT01	9	ProbeTrackDT01	10.4	SCS215a	20100521.131412	20100521.133225	8	0.013328	60	10	60-180	60	134	GapExp	0	158	2	2	1	target	1	653	674	33300	13.328	13.293	13.363
ProbeTrackDT01	9	ProbeTrackDT01	10.4	SCS215a	20100521.131412	20100521.133231	8	0.013328	60	10	60-180	60	80	GapExp	0	159	2	4	1	target	1	773	614	33914	13.328	13.293	13.363
ProbeTrackDT01	9	ProbeTrackDT01	10.4	SCS215a	20100521.131412	20100521.133237	8	0.013328	60	10	60-180	60	79	GapExp	0	160	2	0	0	distractor	1	2879	0	33914	13.328	13.293	13.363
ProbeTrackDT01	9	ProbeTrackDT01	10.4	SCS215a	20100521.131412	20100521.133244	8	0.013328	60	10	60-180	60	159	GapExp	0	161	2	2	0	distractor	1	840	580	34494	13.328	13.293	13.363
ProbeTrackDT01	9	ProbeTrackDT01	10.4	SCS215a	20100521.131412	20100521.133250	8	0.013328	60	10	60-180	60	65	GapExp	0	162	2	1	0	distractor	1	867	567	35061	13.328	13.292	13.374
ProbeTrackDT01	9	ProbeTrackDT01	10.4	SCS215a	20100521.131412	20100521.133255	8	0.013328	60	10	60-180	60	102	GapExp	0	163	2	1	0	distractor	1	947	527	35588	13.328	13.199	13.424
ProbeTrackDT01	9	ProbeTrackDT01	10.4	SCS215a	20100521.131412	20100521.133301	8	0.013328	60	10	60-180	60	91	GapExp	0	164	2	1	1	target	1	1840	80	35668	13.328	13.292	13.364
ProbeTrackDT01	9	ProbeTrackDT01	10.4	SCS215a	20100521.131412	20100521.133308	8	0.013328	60	10	60-180	60	84	GapExp	0	165	2	75	1	distractor	0	1015	-1000	34668	13.328	13.292	13.363
ProbeTrackDT01	9	ProbeTrackDT01	10.4	SCS215a	20100521.131412	20100521.133314	8	0.013328	60	10	60-180	60	155	GapExp	0	166	2	0	1	target	1	1266	367	35035	13.328	13.253	13.436
ProbeTrackDT01	9	ProbeTrackDT01	10.4	SCS215a	20100521.131412	20100521.133321	8	0.013328	60	10	60-180	60	63	GapExp	0	167	2	0	1	target	1	1280	360	35395	13.328	13.230	13.409
ProbeTrackDT01	9	ProbeTrackDT01	10.4	SCS215a	20100521.131412	20100521.133326	8	0.013328	60	10	60-180	60	169	GapExp	0	168	2	1	1	target	1	800	600	35995	13.328	13.292	13.363
ProbeTrackDT01	9	ProbeTrackDT01	10.4	SCS215a	20100521.131412	20100521.133333	8	0.013328	60	10	60-180	60	141	GapExp	0	169	2	0	1	target	1	693	654	36649	13.328	13.163	13.491
ProbeTrackDT01	9	ProbeTrackDT01	10.4	SCS215a	20100521.131412	20100521.133339	8	0.013328	60	10	60-180	60	151	GapExp	0	170	2	2	0	distractor	1	1000	500	37149	13.328	13.187	13.503
ProbeTrackDT01	9	ProbeTrackDT01	10.4	SCS215a	20100521.131412	20100521.133345	8	0.013328	60	10	60-180	60	107	GapExp	0	171	2	75	0	target	0	693	-1000	36149	13.328	13.293	13.363
ProbeTrackDT01	9	ProbeTrackDT01	10.4	SCS215a	20100521.131412	20100521.133352	8	0.013328	60	10	60-180	60	173	GapExp	0	172	2	4	0	distractor	1	507	747	36896	13.328	13.292	13.363
ProbeTrackDT01	9	ProbeTrackDT01	10.4	SCS215a	20100521.131412	20100521.133358	8	0.013328	60	10	60-180	60	166	GapExp	0	173	2	0	0	target	0	1147	-1000	35896	13.328	13.258	13.397
ProbeTrackDT01	9	ProbeTrackDT01	10.4	SCS215a	20100521.131412	20100521.133405	8	0.013328	60	10	60-180	60	146	GapExp	0	174	2	2	0	distractor	1	813	594	36490	13.328	13.093	13.563
ProbeTrackDT01	9	ProbeTrackDT01	10.4	SCS215a	20100521.131412	20100521.133411	8	0.013328	60	10	60-180	60	121	GapExp	0	175	2	75	0	distractor	1	2173	0	36490	13.328	13.135	13.487
ProbeTrackDT01	9	ProbeTrackDT01	10.4	SCS215a	20100521.131412	20100521.133419	8	0.013328	60	10	60-180	60	109	GapExp	0	176	2	1	0	distractor	1	2186	0	36490	13.328	13.064	13.591
ProbeTrackDT01	9	ProbeTrackDT01	10.4	SCS215a	20100521.131412	20100521.133426	8	0.013328	60	10	60-180	60	130	GapExp	0	177	2	1	0	distractor	1	1147	427	36917	13.328	13.132	13.556
ProbeTrackDT01	9	ProbeTrackDT01	10.4	SCS215a	20100521.131412	20100521.133432	8	0.013328	60	10	60-180	60	90	GapExp	0	178	2	1	0	distractor	1	2479	0	36917	13.328	13.187	13.503
ProbeTrackDT01	9	ProbeTrackDT01	10.4	SCS215a	20100521.131412	20100521.133440	8	0.013328	60	10	60-180	60	117	GapExp	0	179	2	4	1	target	1	1053	474	37391	13.328	13.293	13.363
ProbeTrackDT01	9	ProbeTrackDT01	10.4	SCS215a	20100521.131412	20100521.133446	8	0.013328	60	10	60-180	60	124	GapExp	0	180	2	0	1	target	1	3132	0	37391	13.328	13.289	13.363
ProbeTrackDT01	9	ProbeTrackDT01	10.4	SCS215a	20100521.131412	20100521.133454	8	0.013328	60	10	60-180	60	174	GapExp	0	181	2	75	1	target	1	733	634	38025	13.328	13.104	13.549
ProbeTrackDT01	9	ProbeTrackDT01	10.4	SCS215a	20100521.131412	20100521.133501	8	0.013328	60	10	60-180	60	84	GapExp	0	182	2	75	0	distractor	1	667	667	38692	13.328	13.292	13.363
ProbeTrackDT01	9	ProbeTrackDT01	10.4	SCS215a	20100521.131412	20100521.133507	8	0.013328	60	10	60-180	60	162	GapExp	0	183	2	2	1	target	1	800	600	39292	13.414	13.269	26.516
ProbeTrackDT01	9	ProbeTrackDT01	10.4	SCS215a	20100521.131412	20100521.133514	8	0.013328	60	10	60-180	60	104	GapExp	0	184	2	4	1	target	1	640	680	39972	13.437	13.184	26.694
ProbeTrackDT01	9	ProbeTrackDT01	10.4	SCS215a	20100521.131412	20100521.133519	8	0.013328	60	10	60-180	60	145	GapExp	0	185	2	0	0	distractor	1	1666	167	40139	13.374	13.073	26.893
ProbeTrackDT01	9	ProbeTrackDT01	10.4	SCS215a	20100521.131412	20100521.133526	8	0.013328	60	10	60-180	60	104	GapExp	0	186	2	75	1	target	1	533	734	40873	13.328	12.923	13.733
ProbeTrackDT01	9	ProbeTrackDT01	10.4	SCS215a	20100521.131412	20100521.133533	8	0.013328	60	10	60-180	60	140	GapExp	0	187	2	75	0	target	0	1866	-1000	39873	13.328	13.150	13.471
ProbeTrackDT01	9	ProbeTrackDT01	10.4	SCS215a	20100521.131412	20100521.133541	8	0.013328	60	10	60-180	60	131	GapExp	0	188	2	1	1	target	1	1013	494	40367	13.328	13.052	13.569
ProbeTrackDT01	9	ProbeTrackDT01	10.4	SCS215a	20100521.131412	20100521.133547	8	0.013328	60	10	60-180	60	78	GapExp	0	189	2	75	0	distractor	1	893	554	40921	13.328	13.293	13.363
ProbeTrackDT01	9	ProbeTrackDT01	10.4	SCS215a	20100521.131412	20100521.133553	8	0.013328	60	10	60-180	60	142	GapExp	0	190	2	1	0	distractor	1	907	547	41468	13.328	13.292	13.364
ProbeTrackDT01	9	ProbeTrackDT01	10.4	SCS215a	20100521.131412	20100521.133600	8	0.013328	60	10	60-180	60	89	GapExp	0	191	2	2	1	distractor	0	1440	-1000	40468	13.328	13.293	13.363
ProbeTrackDT01	9	ProbeTrackDT01	10.4	SCS215a	20100521.131412	20100521.133606	8	0.013328	60	10	60-180	60	146	GapExp	0	192	2	2	1	target	1	667	667	41135	13.328	13.176	13.479
ProbeTrackDT01	9	ProbeTrackDT01	10.4	SCS215a	20100521.131412	20100521.133612	8	0.013328	60	10	60-180	60	154	GapExp	0	193	2	0	0	distractor	1	534	733	41868	13.328	13.180	13.508
ProbeTrackDT01	9	ProbeTrackDT01	10.4	SCS215a	20100521.131412	20100521.133618	8	0.013328	60	10	60-180	60	124	GapExp	0	194	2	4	1	target	1	1973	14	41882	13.328	12.996	13.626
ProbeTrackDT01	9	ProbeTrackDT01	10.4	SCS215a	20100521.131412	20100521.133625	8	0.013328	60	10	60-180	60	102	GapExp	0	195	2	0	0	target	0	1186	-1000	40882	13.328	13.234	13.424
ProbeTrackDT01	9	ProbeTrackDT01	10.4	SCS215a	20100521.131412	20100521.133631	8	0.013328	60	10	60-180	60	81	GapExp	0	196	2	4	1	target	1	2066	0	40882	13.328	13.119	13.538
ProbeTrackDT01	9	ProbeTrackDT01	10.4	SCS215a	20100521.131412	20100521.133637	8	0.013328	60	10	60-180	60	104	GapExp	0	197	2	75	0	distractor	1	867	567	41449	13.328	13.126	13.529
ProbeTrackDT01	9	ProbeTrackDT01	10.4	SCS215a	20100521.131412	20100521.133644	8	0.013328	60	10	60-180	60	125	GapExp	0	198	2	75	1	distractor	0	747	-1000	40449	13.328	13.293	13.363
ProbeTrackDT01	9	ProbeTrackDT01	10.4	SCS215a	20100521.131412	20100521.133651	8	0.013328	60	10	60-180	60	172	GapExp	0	199	2	0	0	target	0	1160	-1000	39449	13.328	13.293	13.363
ProbeTrackDT01	9	ProbeTrackDT01	10.4	SCS215a	20100521.131412	20100521.133658	8	0.013328	60	10	60-180	60	125	GapExp	0	200	2	75	0	distractor	1	640	680	40129	13.328	13.249	13.407
ProbeTrackDT01	9	ProbeTrackDT01	10.4	SCS215a	20100521.131412	20100521.133713	8	0.013328	60	10	60-180	60	173	GapExp	0	201	2	4	0	distractor	1	987	507	40636	13.328	13.119	13.502
ProbeTrackDT01	9	ProbeTrackDT01	10.4	SCS215a	20100521.131412	20100521.133719	8	0.013328	60	10	60-180	60	137	GapExp	0	202	2	4	0	distractor	1	614	693	41329	13.328	13.149	13.508
ProbeTrackDT01	9	ProbeTrackDT01	10.4	SCS215a	20100521.131412	20100521.133725	8	0.013328	60	10	60-180	60	170	GapExp	0	203	2	4	1	target	1	960	520	41849	13.328	13.122	13.533
ProbeTrackDT01	9	ProbeTrackDT01	10.4	SCS215a	20100521.131412	20100521.133732	8	0.013328	60	10	60-180	60	89	GapExp	0	204	2	0	1	target	1	1586	207	42056	13.328	12.974	13.681
ProbeTrackDT01	9	ProbeTrackDT01	10.4	SCS215a	20100521.131412	20100521.133738	8	0.013328	60	10	60-180	60	162	GapExp	0	205	2	0	0	distractor	1	787	607	42663	13.328	13.044	13.645
ProbeTrackDT01	9	ProbeTrackDT01	10.4	SCS215a	20100521.131412	20100521.133744	8	0.013328	60	10	60-180	60	123	GapExp	0	206	2	75	0	distractor	1	1107	447	43110	13.328	13.293	13.363
ProbeTrackDT01	9	ProbeTrackDT01	10.4	SCS215a	20100521.131412	20100521.133752	8	0.013328	60	10	60-180	60	123	GapExp	0	207	2	0	1	target	1	973	514	43624	13.328	12.975	13.680
ProbeTrackDT01	9	ProbeTrackDT01	10.4	SCS215a	20100521.131412	20100521.133758	8	0.013328	60	10	60-180	60	129	GapExp	0	208	2	4	0	distractor	1	840	580	44204	13.328	12.983	13.635
ProbeTrackDT01	9	ProbeTrackDT01	10.4	SCS215a	20100521.131412	20100521.133804	8	0.013328	60	10	60-180	60	119	GapExp	0	209	2	1	0	distractor	1	840	580	44784	13.328	12.975	13.679
ProbeTrackDT01	9	ProbeTrackDT01	10.4	SCS215a	20100521.131412	20100521.133810	8	0.013328	60	10	60-180	60	153	GapExp	0	210	2	0	1	distractor	0	987	-1000	43784	13.328	13.255	13.376
