exp	sub	code	rev	comp	runtime	trialtime	nstim	refreshdur	cuedur	gapdur	gapOnsetRange	durPostProbe	gapOnsetTime	blocktype	prac	trial	ntargets	soa	probeTarget	resp	acc	rt	pts	tpts	meanFrameDur	minFrameDur	maxFrameDur
ProbeTrackDT01	22	ProbeTrack	10.4	SCS215a	20100714.090604	20100714.090616	8	0.013328	60	0	60-180	60	94	NoGap	1	1	2	0	1	32	-3	7131	-1000	-1000	15.190	12.998	173.236
ProbeTrackDT01	22	ProbeTrack	10.4	SCS215a	20100714.090604	20100714.090628	8	0.013328	60	0	60-180	60	176	NoGap	1	2	2	2	0	distractor	1	1640	180	-820	13.328	13.279	13.364
ProbeTrackDT01	22	ProbeTrack	10.4	SCS215a	20100714.090604	20100714.090636	8	0.013328	60	0	60-180	60	72	NoGap	1	3	2	4	0	distractor	1	1413	294	-526	13.328	13.105	13.516
ProbeTrackDT01	22	ProbeTrack	10.4	SCS215a	20100714.090604	20100714.090641	8	0.013328	60	0	60-180	60	81	NoGap	1	4	2	0	1	target	1	1200	400	-126	13.328	13.148	13.507
ProbeTrackDT01	22	ProbeTrack	10.4	SCS215a	20100714.090604	20100714.090647	8	0.013328	60	0	60-180	60	163	NoGap	1	5	2	0	1	target	1	973	514	388	13.328	13.159	13.522
ProbeTrackDT01	22	ProbeTrack	10.4	SCS215a	20100714.090604	20100714.090654	8	0.013328	60	0	60-180	60	129	NoGap	1	6	2	75	1	distractor	0	840	-1000	-612	13.328	13.249	13.375
ProbeTrackDT01	22	ProbeTrack	10.4	SCS215a	20100714.090604	20100714.090701	8	0.013328	60	0	60-180	60	145	NoGap	1	7	2	75	0	distractor	1	880	560	-52	13.328	13.193	13.461
ProbeTrackDT01	22	ProbeTrack	10.4	SCS215a	20100714.090604	20100714.090708	8	0.013328	60	0	60-180	60	63	NoGap	1	8	2	0	0	distractor	1	965	518	466	15.181	13.064	159.899
ProbeTrackDT01	22	ProbeTrack	10.4	SCS215a	20100714.090604	20100714.090713	8	0.013328	60	0	60-180	60	77	NoGap	1	9	2	75	1	target	1	853	574	1040	13.328	13.004	13.619
ProbeTrackDT01	22	ProbeTrack	10.4	SCS215a	20100714.090604	20100714.090719	8	0.013328	60	0	60-180	60	84	NoGap	1	10	2	1	1	target	1	640	680	1720	13.328	12.996	13.732
ProbeTrackDT01	22	ProbeTrack	10.4	SCS215a	20100714.090604	20100714.090724	8	0.013328	60	0	60-180	60	165	NoGap	1	11	2	0	0	distractor	1	587	707	2427	13.328	13.151	13.504
ProbeTrackDT01	22	ProbeTrack	10.4	SCS215a	20100714.090604	20100714.090730	8	0.013328	60	0	60-180	60	77	NoGap	1	12	2	2	0	distractor	1	693	654	3081	13.392	13.082	26.866
ProbeTrackDT01	22	ProbeTrack	10.4	SCS215a	20100714.090604	20100714.090735	8	0.013328	60	0	60-180	60	75	NoGap	1	13	2	2	1	target	1	787	607	3688	13.328	13.261	13.394
ProbeTrackDT01	22	ProbeTrack	10.4	SCS215a	20100714.090604	20100714.090741	8	0.013328	60	0	60-180	60	76	NoGap	1	14	2	1	0	distractor	1	760	620	4308	13.328	13.293	13.366
ProbeTrackDT01	22	ProbeTrack	10.4	SCS215a	20100714.090604	20100714.090746	8	0.013328	60	0	60-180	60	104	NoGap	1	15	2	0	0	distractor	1	587	707	5015	13.328	13.289	13.367
ProbeTrackDT01	22	ProbeTrack	10.4	SCS215a	20100714.090604	20100714.090751	8	0.013328	60	0	60-180	60	93	NoGap	1	16	2	75	0	distractor	1	653	674	5689	13.328	13.269	13.363
ProbeTrackDT01	22	ProbeTrack	10.4	SCS215a	20100714.090604	20100714.090757	8	0.013328	60	0	60-180	60	65	NoGap	1	17	2	1	0	distractor	1	614	693	6382	13.328	13.017	13.638
ProbeTrackDT01	22	ProbeTrack	10.4	SCS215a	20100714.090604	20100714.090802	8	0.013328	60	0	60-180	60	117	NoGap	1	18	2	1	0	distractor	1	494	753	7135	13.328	13.225	13.441
ProbeTrackDT01	22	ProbeTrack	10.4	SCS215a	20100714.090604	20100714.090807	8	0.013328	60	0	60-180	60	136	NoGap	1	19	2	4	0	distractor	1	614	693	7828	13.328	13.225	13.430
ProbeTrackDT01	22	ProbeTrack	10.4	SCS215a	20100714.090604	20100714.090813	8	0.013328	60	0	60-180	60	162	NoGap	1	20	2	4	1	target	1	680	660	8488	13.328	9.768	16.921
ProbeTrackDT01	22	ProbeTrack	10.4	SCS215a	20100714.090604	20100714.090819	8	0.013328	60	0	60-180	60	169	NoGap	1	21	2	2	1	target	1	680	660	9148	13.328	13.293	13.364
ProbeTrackDT01	22	ProbeTrack	10.4	SCS215a	20100714.090604	20100714.090826	8	0.013328	60	0	60-180	60	137	NoGap	1	22	2	2	1	target	1	547	727	9875	13.328	13.293	13.363
ProbeTrackDT01	22	ProbeTrack	10.4	SCS215a	20100714.090604	20100714.090831	8	0.013328	60	0	60-180	60	152	NoGap	1	23	2	4	1	target	1	600	700	10575	13.424	13.035	26.868
ProbeTrackDT01	22	ProbeTrack	10.4	SCS215a	20100714.090604	20100714.090837	8	0.013328	60	0	60-180	60	121	NoGap	1	24	2	1	1	target	1	520	740	11315	13.384	13.071	26.644
ProbeTrackDT01	22	ProbeTrack	10.4	SCS215a	20100714.090604	20100714.090843	8	0.013328	60	0	60-180	60	120	NoGap	1	25	2	4	1	target	1	627	687	12002	13.328	13.292	13.363
ProbeTrackDT01	22	ProbeTrack	10.4	SCS215a	20100714.090604	20100714.090848	8	0.013328	60	0	60-180	60	157	NoGap	1	26	2	0	1	target	1	560	720	12722	13.328	13.206	13.450
ProbeTrackDT01	22	ProbeTrack	10.4	SCS215a	20100714.090604	20100714.090854	8	0.013328	60	0	60-180	60	78	NoGap	1	27	2	4	0	distractor	1	787	607	13329	13.328	13.099	13.521
ProbeTrackDT01	22	ProbeTrack	10.4	SCS215a	20100714.090604	20100714.090900	8	0.013328	60	0	60-180	60	69	NoGap	1	28	2	2	0	distractor	1	627	687	14016	13.328	13.293	13.363
ProbeTrackDT01	22	ProbeTrack	10.4	SCS215a	20100714.090604	20100714.090904	8	0.013328	60	0	60-180	60	77	NoGap	1	29	2	2	1	target	1	574	713	14729	13.328	13.293	13.363
ProbeTrackDT01	22	ProbeTrack	10.4	SCS215a	20100714.090604	20100714.090909	8	0.013328	60	0	60-180	60	174	NoGap	1	30	2	4	1	target	1	587	707	15436	13.328	13.205	13.485
ProbeTrackDT01	22	ProbeTrack	10.4	SCS215a	20100714.090604	20100714.090916	8	0.013328	60	0	60-180	60	116	NoGap	1	31	2	75	0	distractor	1	614	693	16129	13.328	12.972	13.684
ProbeTrackDT01	22	ProbeTrack	10.4	SCS215a	20100714.090604	20100714.090922	8	0.013328	60	0	60-180	60	161	NoGap	1	32	2	4	0	distractor	1	614	693	16822	13.328	13.292	13.363
ProbeTrackDT01	22	ProbeTrack	10.4	SCS215a	20100714.090604	20100714.090928	8	0.013328	60	0	60-180	60	162	NoGap	1	33	2	75	1	target	1	587	707	17529	13.328	13.254	13.393
ProbeTrackDT01	22	ProbeTrack	10.4	SCS215a	20100714.090604	20100714.090935	8	0.013328	60	0	60-180	60	109	NoGap	1	34	2	1	0	distractor	1	547	727	18256	13.328	13.139	13.515
ProbeTrackDT01	22	ProbeTrack	10.4	SCS215a	20100714.090604	20100714.090941	8	0.013328	60	0	60-180	60	86	NoGap	1	35	2	2	0	target	0	627	-1000	17256	13.328	13.012	13.644
ProbeTrackDT01	22	ProbeTrack	10.4	SCS215a	20100714.090604	20100714.090946	8	0.013328	60	0	60-180	60	127	NoGap	1	36	2	75	0	distractor	1	600	700	17956	13.328	12.990	13.632
ProbeTrackDT01	22	ProbeTrack	10.4	SCS215a	20100714.090604	20100714.090952	8	0.013328	60	0	60-180	60	154	NoGap	1	37	2	0	0	distractor	1	707	647	18603	13.328	13.185	13.446
ProbeTrackDT01	22	ProbeTrack	10.4	SCS215a	20100714.090604	20100714.090959	8	0.013328	60	0	60-180	60	77	NoGap	1	38	2	1	1	target	1	733	634	19237	13.391	12.841	27.108
ProbeTrackDT01	22	ProbeTrack	10.4	SCS215a	20100714.090604	20100714.091004	8	0.013328	60	0	60-180	60	170	NoGap	1	39	2	1	1	target	1	574	713	19950	13.328	13.006	13.617
ProbeTrackDT01	22	ProbeTrack	10.4	SCS215a	20100714.090604	20100714.091010	8	0.013328	60	0	60-180	60	156	NoGap	1	40	2	75	1	target	1	680	660	20610	13.513	12.999	79.931
ProbeTrackDT01	22	ProbeTrack	10.4	SCS215a	20100714.091058	20100714.091102	8	0.013327	60	10	60-180	60	136	GapPrac	1	1	2	4	1	target	1	933	534	21144	13.328	13.251	13.406
ProbeTrackDT01	22	ProbeTrack	10.4	SCS215a	20100714.091058	20100714.091108	8	0.013327	60	10	60-180	60	66	GapPrac	1	2	2	1	1	target	1	667	667	21811	13.328	13.080	13.576
ProbeTrackDT01	22	ProbeTrack	10.4	SCS215a	20100714.091058	20100714.091113	8	0.013327	60	10	60-180	60	64	GapPrac	1	3	2	4	0	distractor	1	600	700	22511	13.328	12.994	13.627
ProbeTrackDT01	22	ProbeTrack	10.4	SCS215a	20100714.091058	20100714.091118	8	0.013327	60	10	60-180	60	102	GapPrac	1	4	2	1	0	distractor	1	888	556	23067	15.796	13.292	186.553
ProbeTrackDT01	22	ProbeTrack	10.4	SCS215a	20100714.091058	20100714.091123	8	0.013327	60	10	60-180	60	142	GapPrac	1	5	2	2	1	target	1	520	740	23807	13.328	13.252	13.403
ProbeTrackDT01	22	ProbeTrack	10.4	SCS215a	20100714.091058	20100714.091129	8	0.013327	60	10	60-180	60	137	GapPrac	1	6	2	75	1	target	1	680	660	24467	13.328	13.032	13.657
ProbeTrackDT01	22	ProbeTrack	10.4	SCS215a	20100714.091058	20100714.091136	8	0.013327	60	10	60-180	60	122	GapPrac	1	7	2	4	0	distractor	1	640	680	25147	13.328	12.995	13.633
ProbeTrackDT01	22	ProbeTrack	10.4	SCS215a	20100714.091058	20100714.091142	8	0.013327	60	10	60-180	60	131	GapPrac	1	8	2	1	0	distractor	1	760	620	25767	13.329	13.023	13.599
ProbeTrackDT01	22	ProbeTrack	10.4	SCS215a	20100714.091058	20100714.091148	8	0.013327	60	10	60-180	60	87	GapPrac	1	9	2	0	0	distractor	1	707	647	26414	13.328	12.859	13.797
ProbeTrackDT01	22	ProbeTrack	10.4	SCS215a	20100714.091058	20100714.091153	8	0.013327	60	10	60-180	60	88	GapPrac	1	10	2	2	0	target	0	547	-1000	25414	13.328	12.978	13.710
ProbeTrackDT01	22	ProbeTrack	10.4	SCS215a	20100714.091058	20100714.091158	8	0.013327	60	10	60-180	60	125	GapPrac	1	11	2	1	1	target	1	653	674	26088	13.328	13.207	13.448
ProbeTrackDT01	22	ProbeTrack	10.4	SCS215a	20100714.091058	20100714.091204	8	0.013327	60	10	60-180	60	143	GapPrac	1	12	2	0	1	target	1	770	615	26703	13.328	13.285	13.363
ProbeTrackDT01	22	ProbeTrack	10.4	SCS215a	20100714.091058	20100714.091210	8	0.013327	60	10	60-180	60	154	GapPrac	1	13	2	2	1	target	1	760	620	27323	13.328	13.057	13.577
ProbeTrackDT01	22	ProbeTrack	10.4	SCS215a	20100714.091058	20100714.091217	8	0.013327	60	10	60-180	60	132	GapPrac	1	14	2	75	0	distractor	1	694	653	27976	13.328	13.125	13.564
ProbeTrackDT01	22	ProbeTrack	10.4	SCS215a	20100714.091058	20100714.091224	8	0.013327	60	10	60-180	60	175	GapPrac	1	15	2	0	0	distractor	1	733	634	28610	13.328	13.023	13.633
ProbeTrackDT01	22	ProbeTrack	10.4	SCS215a	20100714.091058	20100714.091230	8	0.013327	60	10	60-180	60	65	GapPrac	1	16	2	0	1	target	1	773	614	29224	13.456	13.048	26.945
ProbeTrackDT01	22	ProbeTrack	10.4	SCS215a	20100714.091058	20100714.091235	8	0.013327	60	10	60-180	60	80	GapPrac	1	17	2	2	0	target	0	734	-1000	28224	13.387	13.120	26.686
ProbeTrackDT01	22	ProbeTrack	10.4	SCS215a	20100714.091058	20100714.091241	8	0.013327	60	10	60-180	60	96	GapPrac	1	18	2	4	1	target	1	733	634	28858	13.328	13.281	13.407
ProbeTrackDT01	22	ProbeTrack	10.4	SCS215a	20100714.091058	20100714.091246	8	0.013327	60	10	60-180	60	121	GapPrac	1	19	2	75	1	target	1	574	713	29571	13.328	13.171	13.517
ProbeTrackDT01	22	ProbeTrack	10.4	SCS215a	20100714.091058	20100714.091253	8	0.013327	60	10	60-180	60	61	GapPrac	1	20	2	75	0	target	0	640	-1000	28571	13.328	13.274	13.382
ProbeTrackDT01	22	ProbeTrack	10.4	SCS215a	20100714.091829	20100714.091834	8	0.013327	60	10	60-180	60	112	GapPrac	1	1	2	2	0	distractor	1	880	560	29131	13.328	13.012	13.643
ProbeTrackDT01	22	ProbeTrack	10.4	SCS215a	20100714.091829	20100714.091840	8	0.013327	60	10	60-180	60	138	GapPrac	1	2	2	2	1	target	1	387	807	29938	13.328	13.038	13.651
ProbeTrackDT01	22	ProbeTrack	10.4	SCS215a	20100714.091829	20100714.091846	8	0.013327	60	10	60-180	60	157	GapPrac	1	3	2	2	1	target	1	120	940	30878	13.328	13.127	13.528
ProbeTrackDT01	22	ProbeTrack	10.4	SCS215a	20100714.091829	20100714.091851	8	0.013327	60	10	60-180	60	180	GapPrac	1	4	2	0	1	target	1	454	773	31651	13.328	13.031	13.648
ProbeTrackDT01	22	ProbeTrack	10.4	SCS215a	20100714.091829	20100714.091858	8	0.013327	60	10	60-180	60	104	GapPrac	1	5	2	0	0	target	0	1080	-1000	30651	13.328	13.292	13.366
ProbeTrackDT01	22	ProbeTrack	10.4	SCS215a	20100714.091829	20100714.091904	8	0.013327	60	10	60-180	60	102	GapPrac	1	6	2	1	1	target	1	454	773	31424	13.328	13.292	13.363
ProbeTrackDT01	22	ProbeTrack	10.4	SCS215a	20100714.091829	20100714.091909	8	0.013327	60	10	60-180	60	97	GapPrac	1	7	2	75	1	target	1	1027	487	31911	13.328	12.949	13.671
ProbeTrackDT01	22	ProbeTrack	10.4	SCS215a	20100714.091829	20100714.091916	8	0.013327	60	10	60-180	60	111	GapPrac	1	8	2	0	1	target	1	600	700	32611	13.328	13.293	13.363
ProbeTrackDT01	22	ProbeTrack	10.4	SCS215a	20100714.091829	20100714.091921	8	0.013327	60	10	60-180	60	110	GapPrac	1	9	2	1	1	target	1	440	780	33391	13.386	13.189	26.754
ProbeTrackDT01	22	ProbeTrack	10.4	SCS215a	20100714.091829	20100714.091927	8	0.013327	60	10	60-180	60	100	GapPrac	1	10	2	0	0	target	0	640	-1000	32391	13.328	12.994	13.626
ProbeTrackDT01	22	ProbeTrack	10.4	SCS215a	20100714.091829	20100714.091932	8	0.013327	60	10	60-180	60	109	GapPrac	1	11	2	4	1	distractor	0	654	-1000	31391	13.328	13.120	13.537
ProbeTrackDT01	22	ProbeTrack	10.4	SCS215a	20100714.091829	20100714.091938	8	0.013327	60	10	60-180	60	108	GapPrac	1	12	2	2	0	target	0	707	-1000	30391	13.328	12.996	13.659
ProbeTrackDT01	22	ProbeTrack	10.4	SCS215a	20100714.091829	20100714.091943	8	0.013327	60	10	60-180	60	130	GapPrac	1	13	2	75	0	distractor	1	667	667	31058	13.328	13.211	13.412
ProbeTrackDT01	22	ProbeTrack	10.4	SCS215a	20100714.091829	20100714.091950	8	0.013327	60	10	60-180	60	139	GapPrac	1	14	2	1	0	target	0	560	-1000	30058	13.328	13.286	13.363
ProbeTrackDT01	22	ProbeTrack	10.4	SCS215a	20100714.091829	20100714.091956	8	0.013327	60	10	60-180	60	118	GapPrac	1	15	2	4	1	target	1	787	607	30665	13.328	13.293	13.363
ProbeTrackDT01	22	ProbeTrack	10.4	SCS215a	20100714.091829	20100714.092002	8	0.013327	60	10	60-180	60	62	GapPrac	1	16	2	4	0	distractor	1	773	614	31279	13.328	13.293	13.363
ProbeTrackDT01	22	ProbeTrack	10.4	SCS215a	20100714.091829	20100714.092007	8	0.013327	60	10	60-180	60	105	GapPrac	1	17	2	1	0	distractor	1	813	594	31873	13.328	13.292	13.363
ProbeTrackDT01	22	ProbeTrack	10.4	SCS215a	20100714.091829	20100714.092013	8	0.013327	60	10	60-180	60	77	GapPrac	1	18	2	4	0	distractor	1	734	633	32506	13.328	13.266	13.423
ProbeTrackDT01	22	ProbeTrack	10.4	SCS215a	20100714.091829	20100714.092018	8	0.013327	60	10	60-180	60	83	GapPrac	1	19	2	75	1	distractor	0	693	-1000	31506	13.328	13.141	13.544
ProbeTrackDT01	22	ProbeTrack	10.4	SCS215a	20100714.091829	20100714.092024	8	0.013327	60	10	60-180	60	74	GapPrac	1	20	2	75	0	distractor	1	747	627	32133	13.328	13.188	13.502
ProbeTrackDT01	22	ProbeTrack	10.4	SCS215a	20100714.092131	20100714.092138	8	0.013327	60	10	60-180	60	135	GapExp	1	1	2	75	0	distractor	1	573	714	32847	13.328	13.293	13.363
ProbeTrackDT01	22	ProbeTrack	10.4	SCS215a	20100714.092131	20100714.092145	8	0.013327	60	10	60-180	60	122	GapExp	1	2	2	2	0	distractor	1	933	534	33381	13.328	13.293	13.367
ProbeTrackDT01	22	ProbeTrack	10.4	SCS215a	20100714.092131	20100714.092151	8	0.013327	60	10	60-180	60	87	GapExp	1	3	2	2	1	distractor	0	653	-1000	32381	13.387	13.034	26.655
ProbeTrackDT01	22	ProbeTrack	10.4	SCS215a	20100714.092131	20100714.092156	8	0.013327	60	10	60-180	60	120	GapExp	1	4	2	1	1	distractor	0	613	-1000	31381	13.328	13.293	13.363
ProbeTrackDT01	22	ProbeTrack	10.4	SCS215a	20100714.092131	20100714.092202	8	0.013327	60	10	60-180	60	141	GapExp	1	5	2	0	1	target	1	840	580	31961	13.328	13.289	13.367
ProbeTrackDT01	22	ProbeTrack	10.4	SCS215a	20100714.092131	20100714.092208	8	0.013327	60	10	60-180	60	170	GapExp	1	6	2	4	0	distractor	1	747	627	32588	13.328	13.293	13.363
ProbeTrackDT01	22	ProbeTrack	10.4	SCS215a	20100714.092131	20100714.092214	8	0.013327	60	10	60-180	60	134	GapExp	1	7	2	4	1	target	1	973	514	33102	13.328	13.293	13.363
ProbeTrackDT01	22	ProbeTrack	10.4	SCS215a	20100714.092131	20100714.092221	8	0.013327	60	10	60-180	60	88	GapExp	1	8	2	1	0	target	0	3719	-1000	32102	13.328	13.293	13.364
ProbeTrackDT01	22	ProbeTrack	10.4	SCS215a	20100714.092131	20100714.092229	8	0.013327	60	10	60-180	60	141	GapExp	1	9	2	0	0	target	0	680	-1000	31102	13.328	13.293	13.363
ProbeTrackDT01	22	ProbeTrack	10.4	SCS215a	20100714.092131	20100714.092235	8	0.013327	60	10	60-180	60	158	GapExp	1	10	2	75	1	target	1	560	720	31822	13.365	13.112	26.653
ProbeTrackDT01	22	ProbeTrack	10.4	SCS215a	20100714.092131	20100714.092242	8	0.013327	60	10	60-180	60	112	GapExp	0	11	2	4	0	distractor	1	707	647	32469	13.328	13.161	13.461
ProbeTrackDT01	22	ProbeTrack	10.4	SCS215a	20100714.092131	20100714.092248	8	0.013327	60	10	60-180	60	144	GapExp	0	12	2	4	0	distractor	1	760	620	33089	13.373	13.080	26.790
ProbeTrackDT01	22	ProbeTrack	10.4	SCS215a	20100714.092131	20100714.092254	8	0.013327	60	10	60-180	60	65	GapExp	0	13	2	1	0	target	0	534	-1000	32089	13.328	13.186	13.434
ProbeTrackDT01	22	ProbeTrack	10.4	SCS215a	20100714.092131	20100714.092259	8	0.013327	60	10	60-180	60	153	GapExp	0	14	2	0	0	target	0	574	-1000	31089	13.328	13.241	13.381
ProbeTrackDT01	22	ProbeTrack	10.4	SCS215a	20100714.092131	20100714.092305	8	0.013327	60	10	60-180	60	124	GapExp	0	15	2	4	1	target	1	773	614	31703	13.328	13.181	13.441
ProbeTrackDT01	22	ProbeTrack	10.4	SCS215a	20100714.092131	20100714.092311	8	0.013327	60	10	60-180	60	160	GapExp	0	16	2	1	1	target	1	1360	320	32023	13.981	13.014	160.146
ProbeTrackDT01	22	ProbeTrack	10.4	SCS215a	20100714.092131	20100714.092318	8	0.013327	60	10	60-180	60	165	GapExp	0	17	2	75	0	distractor	1	560	720	32743	13.328	13.232	13.424
ProbeTrackDT01	22	ProbeTrack	10.4	SCS215a	20100714.092131	20100714.092325	8	0.013327	60	10	60-180	60	137	GapExp	0	18	2	4	1	target	1	907	547	33290	13.374	13.291	26.323
ProbeTrackDT01	22	ProbeTrack	10.4	SCS215a	20100714.092131	20100714.092331	8	0.013327	60	10	60-180	60	61	GapExp	0	19	2	2	0	target	0	1746	-1000	32290	13.328	12.837	13.784
ProbeTrackDT01	22	ProbeTrack	10.4	SCS215a	20100714.092131	20100714.092337	8	0.013327	60	10	60-180	60	65	GapExp	0	20	2	0	1	distractor	0	1293	-1000	31290	13.328	13.015	13.641
ProbeTrackDT01	22	ProbeTrack	10.4	SCS215a	20100714.092131	20100714.092343	8	0.013327	60	10	60-180	60	125	GapExp	0	21	2	2	1	distractor	0	1333	-1000	30290	13.328	13.238	13.420
ProbeTrackDT01	22	ProbeTrack	10.4	SCS215a	20100714.092131	20100714.092349	8	0.013327	60	10	60-180	60	164	GapExp	0	22	2	75	1	target	1	1640	180	30470	13.328	13.158	13.464
ProbeTrackDT01	22	ProbeTrack	10.4	SCS215a	20100714.092131	20100714.092357	8	0.013327	60	10	60-180	60	114	GapExp	0	23	2	1	1	target	1	3426	0	30470	13.328	13.061	13.629
ProbeTrackDT01	22	ProbeTrack	10.4	SCS215a	20100714.092131	20100714.092406	8	0.013327	60	10	60-180	60	153	GapExp	0	24	2	75	0	distractor	1	707	647	31117	13.328	12.867	13.822
ProbeTrackDT01	22	ProbeTrack	10.4	SCS215a	20100714.092131	20100714.092413	8	0.013327	60	10	60-180	60	139	GapExp	0	25	2	4	1	distractor	0	1080	-1000	30117	13.374	13.293	26.688
ProbeTrackDT01	22	ProbeTrack	10.4	SCS215a	20100714.092131	20100714.092419	8	0.013327	60	10	60-180	60	88	GapExp	0	26	2	2	1	distractor	0	1187	-1000	29117	14.235	13.050	159.931
ProbeTrackDT01	22	ProbeTrack	10.4	SCS215a	20100714.092131	20100714.092426	8	0.013327	60	10	60-180	60	99	GapExp	0	27	2	4	0	target	0	867	-1000	28117	13.328	13.292	13.363
ProbeTrackDT01	22	ProbeTrack	10.4	SCS215a	20100714.092131	20100714.092431	8	0.013327	60	10	60-180	60	110	GapExp	0	28	2	75	1	distractor	0	667	-1000	27117	13.369	13.283	26.530
ProbeTrackDT01	22	ProbeTrack	10.4	SCS215a	20100714.092131	20100714.092438	8	0.013327	60	10	60-180	60	76	GapExp	0	29	2	75	0	target	0	1147	-1000	26117	13.328	13.113	13.575
ProbeTrackDT01	22	ProbeTrack	10.4	SCS215a	20100714.092131	20100714.092444	8	0.013327	60	10	60-180	60	164	GapExp	0	30	2	1	1	target	1	947	527	26644	13.328	13.084	13.573
ProbeTrackDT01	22	ProbeTrack	10.4	SCS215a	20100714.092131	20100714.092451	8	0.013327	60	10	60-180	60	116	GapExp	0	31	2	75	1	distractor	0	800	-1000	25644	13.328	13.161	13.495
ProbeTrackDT01	22	ProbeTrack	10.4	SCS215a	20100714.092131	20100714.092458	8	0.013327	60	10	60-180	60	138	GapExp	0	32	2	75	0	distractor	1	733	634	26278	13.328	12.880	13.776
ProbeTrackDT01	22	ProbeTrack	10.4	SCS215a	20100714.092131	20100714.092505	8	0.013327	60	10	60-180	60	139	GapExp	0	33	2	75	1	target	1	3959	0	26278	13.328	12.857	13.799
ProbeTrackDT01	22	ProbeTrack	10.4	SCS215a	20100714.092131	20100714.092515	8	0.013327	60	10	60-180	60	129	GapExp	0	34	2	4	0	target	0	3665	-1000	25278	13.328	13.290	13.366
ProbeTrackDT01	22	ProbeTrack	10.4	SCS215a	20100714.092131	20100714.092524	8	0.013327	60	10	60-180	60	99	GapExp	0	35	2	4	1	target	1	640	680	25958	13.328	13.177	13.480
ProbeTrackDT01	22	ProbeTrack	10.4	SCS215a	20100714.092131	20100714.092530	8	0.013327	60	10	60-180	60	145	GapExp	0	36	2	4	1	distractor	0	920	-1000	24958	13.373	13.127	26.681
ProbeTrackDT01	22	ProbeTrack	10.4	SCS215a	20100714.092131	20100714.092536	8	0.013327	60	10	60-180	60	176	GapExp	0	37	2	4	0	target	0	787	-1000	23958	13.451	13.034	53.604
ProbeTrackDT01	22	ProbeTrack	10.4	SCS215a	20100714.092131	20100714.092543	8	0.013327	60	10	60-180	60	162	GapExp	0	38	2	75	0	distractor	1	574	713	24671	13.546	13.155	53.484
ProbeTrackDT01	22	ProbeTrack	10.4	SCS215a	20100714.092131	20100714.092550	8	0.013327	60	10	60-180	60	104	GapExp	0	39	2	75	0	distractor	1	707	647	25318	13.411	12.856	40.421
ProbeTrackDT01	22	ProbeTrack	10.4	SCS215a	20100714.092131	20100714.092557	8	0.013327	60	10	60-180	60	177	GapExp	0	40	2	2	1	target	1	1080	460	25778	13.451	13.293	40.369
ProbeTrackDT01	22	ProbeTrack	10.4	SCS215a	20100714.092131	20100714.092604	8	0.013327	60	10	60-180	60	123	GapExp	0	41	2	75	0	distractor	1	1693	154	25932	13.522	13.130	53.508
ProbeTrackDT01	22	ProbeTrack	10.4	SCS215a	20100714.092131	20100714.092611	8	0.013327	60	10	60-180	60	103	GapExp	0	42	2	1	0	distractor	1	534	733	26665	13.443	13.292	39.980
ProbeTrackDT01	22	ProbeTrack	10.4	SCS215a	20100714.092131	20100714.092617	8	0.013327	60	10	60-180	60	172	GapExp	0	43	2	4	0	distractor	1	560	720	27385	13.328	13.073	13.548
ProbeTrackDT01	22	ProbeTrack	10.4	SCS215a	20100714.092131	20100714.092623	8	0.013327	60	10	60-180	60	63	GapExp	0	44	2	75	1	target	1	880	560	27945	13.610	13.208	53.400
ProbeTrackDT01	22	ProbeTrack	10.4	SCS215a	20100714.092131	20100714.092629	8	0.013327	60	10	60-180	60	113	GapExp	0	45	2	1	0	distractor	1	574	713	28658	13.437	12.903	40.373
ProbeTrackDT01	22	ProbeTrack	10.4	SCS215a	20100714.092131	20100714.092635	8	0.013327	60	10	60-180	60	63	GapExp	0	46	2	2	1	target	1	907	547	29205	13.518	13.293	53.347
ProbeTrackDT01	22	ProbeTrack	10.4	SCS215a	20100714.092131	20100714.092640	8	0.013327	60	10	60-180	60	75	GapExp	0	47	2	0	1	target	1	1546	227	29432	13.328	13.025	13.629
ProbeTrackDT01	22	ProbeTrack	10.4	SCS215a	20100714.092131	20100714.092646	8	0.013327	60	10	60-180	60	114	GapExp	0	48	2	75	1	target	1	733	634	30066	13.328	13.293	13.363
ProbeTrackDT01	22	ProbeTrack	10.4	SCS215a	20100714.092131	20100714.092653	8	0.013327	60	10	60-180	60	65	GapExp	0	49	2	1	0	distractor	1	1147	427	30493	13.328	13.088	13.567
ProbeTrackDT01	22	ProbeTrack	10.4	SCS215a	20100714.092131	20100714.092658	8	0.013327	60	10	60-180	60	61	GapExp	0	50	2	1	1	target	1	1480	260	30753	13.392	12.916	26.896
ProbeTrackDT01	22	ProbeTrack	10.4	SCS215a	20100714.092131	20100714.092741	8	0.013327	60	10	60-180	60	66	GapExp	0	51	2	1	1	target	1	1160	420	31173	13.328	13.289	13.364
ProbeTrackDT01	22	ProbeTrack	10.4	SCS215a	20100714.092131	20100714.092747	8	0.013327	60	10	60-180	60	76	GapExp	0	52	2	2	1	target	1	733	634	31807	13.328	13.109	13.547
ProbeTrackDT01	22	ProbeTrack	10.4	SCS215a	20100714.092131	20100714.092752	8	0.013327	60	10	60-180	60	180	GapExp	0	53	2	0	0	target	0	1133	-1000	30807	13.328	13.145	13.502
ProbeTrackDT01	22	ProbeTrack	10.4	SCS215a	20100714.092131	20100714.092759	8	0.013327	60	10	60-180	60	172	GapExp	0	54	2	0	1	target	1	1173	414	31221	13.328	13.292	13.363
ProbeTrackDT01	22	ProbeTrack	10.4	SCS215a	20100714.092131	20100714.092806	8	0.013327	60	10	60-180	60	154	GapExp	0	55	2	75	0	target	0	733	-1000	30221	13.328	12.907	13.750
ProbeTrackDT01	22	ProbeTrack	10.4	SCS215a	20100714.092131	20100714.092813	8	0.013327	60	10	60-180	60	145	GapExp	0	56	2	2	1	target	1	867	567	30788	13.328	13.292	13.363
ProbeTrackDT01	22	ProbeTrack	10.4	SCS215a	20100714.092131	20100714.092820	8	0.013327	60	10	60-180	60	136	GapExp	0	57	2	2	1	target	1	1813	94	30882	13.328	13.248	13.407
ProbeTrackDT01	22	ProbeTrack	10.4	SCS215a	20100714.092131	20100714.092827	8	0.013327	60	10	60-180	60	159	GapExp	0	58	2	75	1	distractor	0	987	-1000	29882	13.328	13.055	13.568
ProbeTrackDT01	22	ProbeTrack	10.4	SCS215a	20100714.092131	20100714.092834	8	0.013327	60	10	60-180	60	158	GapExp	0	59	2	0	1	target	1	1040	480	30362	13.328	13.293	13.363
ProbeTrackDT01	22	ProbeTrack	10.4	SCS215a	20100714.092131	20100714.092841	8	0.013327	60	10	60-180	60	89	GapExp	0	60	2	75	0	distractor	1	827	587	30949	13.328	13.131	13.524
ProbeTrackDT01	22	ProbeTrack	10.4	SCS215a	20100714.092131	20100714.092847	8	0.013327	60	10	60-180	60	97	GapExp	0	61	2	2	1	distractor	0	1027	-1000	29949	13.328	13.207	13.449
ProbeTrackDT01	22	ProbeTrack	10.4	SCS215a	20100714.092131	20100714.092853	8	0.013327	60	10	60-180	60	68	GapExp	0	62	2	1	0	target	0	2103	-1000	28949	13.328	13.018	13.637
ProbeTrackDT01	22	ProbeTrack	10.4	SCS215a	20100714.092131	20100714.092900	8	0.013327	60	10	60-180	60	78	GapExp	0	63	2	1	1	target	1	1013	494	29443	13.328	13.125	13.564
ProbeTrackDT01	22	ProbeTrack	10.4	SCS215a	20100714.092131	20100714.092905	8	0.013327	60	10	60-180	60	107	GapExp	0	64	2	2	0	distractor	1	1706	147	29590	13.328	12.957	13.697
ProbeTrackDT01	22	ProbeTrack	10.4	SCS215a	20100714.092131	20100714.092912	8	0.013327	60	10	60-180	60	101	GapExp	0	65	2	1	0	distractor	1	1440	280	29870	13.328	12.891	13.730
ProbeTrackDT01	22	ProbeTrack	10.4	SCS215a	20100714.092131	20100714.092918	8	0.013327	60	10	60-180	60	81	GapExp	0	66	2	1	0	target	0	2239	-1000	28870	13.328	13.161	13.496
ProbeTrackDT01	22	ProbeTrack	10.4	SCS215a	20100714.092131	20100714.092925	8	0.013327	60	10	60-180	60	70	GapExp	0	67	2	75	1	distractor	0	1453	-1000	27870	13.374	13.293	26.689
ProbeTrackDT01	22	ProbeTrack	10.4	SCS215a	20100714.092131	20100714.092932	8	0.013327	60	10	60-180	60	76	GapExp	0	68	2	2	0	distractor	1	1506	247	28117	13.328	13.288	13.363
ProbeTrackDT01	22	ProbeTrack	10.4	SCS215a	20100714.092131	20100714.092938	8	0.013327	60	10	60-180	60	112	GapExp	0	69	2	75	0	target	0	827	-1000	27117	13.328	13.293	13.363
ProbeTrackDT01	22	ProbeTrack	10.4	SCS215a	20100714.092131	20100714.092944	8	0.013327	60	10	60-180	60	165	GapExp	0	70	2	4	1	distractor	0	1680	-1000	26117	13.328	13.086	13.569
ProbeTrackDT01	22	ProbeTrack	10.4	SCS215a	20100714.092131	20100714.092952	8	0.013327	60	10	60-180	60	89	GapExp	0	71	2	4	1	target	1	614	693	26810	13.328	13.141	13.513
ProbeTrackDT01	22	ProbeTrack	10.4	SCS215a	20100714.092131	20100714.092957	8	0.013327	60	10	60-180	60	174	GapExp	0	72	2	75	0	target	0	1226	-1000	25810	13.328	13.227	13.428
ProbeTrackDT01	22	ProbeTrack	10.4	SCS215a	20100714.092131	20100714.093005	8	0.013327	60	10	60-180	60	119	GapExp	0	73	2	1	0	distractor	1	1133	434	26244	13.328	13.167	13.456
ProbeTrackDT01	22	ProbeTrack	10.4	SCS215a	20100714.092131	20100714.093011	8	0.013327	60	10	60-180	60	142	GapExp	0	74	2	75	0	distractor	1	694	653	26897	13.328	13.293	13.363
ProbeTrackDT01	22	ProbeTrack	10.4	SCS215a	20100714.092131	20100714.093018	8	0.013327	60	10	60-180	60	87	GapExp	0	75	2	0	1	target	1	707	647	27544	13.328	13.293	13.366
ProbeTrackDT01	22	ProbeTrack	10.4	SCS215a	20100714.092131	20100714.093024	8	0.013327	60	10	60-180	60	147	GapExp	0	76	2	0	1	distractor	0	1173	-1000	26544	13.328	13.010	13.646
ProbeTrackDT01	22	ProbeTrack	10.4	SCS215a	20100714.092131	20100714.093030	8	0.013327	60	10	60-180	60	143	GapExp	0	77	2	1	0	target	0	747	-1000	25544	13.328	13.196	13.460
ProbeTrackDT01	22	ProbeTrack	10.4	SCS215a	20100714.092131	20100714.093036	8	0.013327	60	10	60-180	60	94	GapExp	0	78	2	4	0	target	0	1813	-1000	24544	13.328	13.117	13.539
ProbeTrackDT01	22	ProbeTrack	10.4	SCS215a	20100714.092131	20100714.093043	8	0.013327	60	10	60-180	60	108	GapExp	0	79	2	75	1	distractor	0	667	-1000	23544	13.328	13.209	13.480
ProbeTrackDT01	22	ProbeTrack	10.4	SCS215a	20100714.092131	20100714.093049	8	0.013327	60	10	60-180	60	152	GapExp	0	80	2	4	0	target	0	640	-1000	22544	13.328	13.201	13.487
ProbeTrackDT01	22	ProbeTrack	10.4	SCS215a	20100714.092131	20100714.093056	8	0.013327	60	10	60-180	60	95	GapExp	0	81	2	4	1	target	1	667	667	23211	13.328	13.046	13.610
ProbeTrackDT01	22	ProbeTrack	10.4	SCS215a	20100714.092131	20100714.093101	8	0.013327	60	10	60-180	60	82	GapExp	0	82	2	2	1	target	1	720	640	23851	13.328	13.282	13.373
ProbeTrackDT01	22	ProbeTrack	10.4	SCS215a	20100714.092131	20100714.093106	8	0.013327	60	10	60-180	60	120	GapExp	0	83	2	75	1	target	1	2426	0	23851	13.367	12.993	26.654
ProbeTrackDT01	22	ProbeTrack	10.4	SCS215a	20100714.092131	20100714.093115	8	0.013327	60	10	60-180	60	84	GapExp	0	84	2	1	0	distractor	1	587	707	24558	13.328	13.055	13.600
ProbeTrackDT01	22	ProbeTrack	10.4	SCS215a	20100714.092131	20100714.093120	8	0.013327	60	10	60-180	60	71	GapExp	0	85	2	2	0	target	0	1027	-1000	23558	13.328	12.898	13.792
ProbeTrackDT01	22	ProbeTrack	10.4	SCS215a	20100714.092131	20100714.093125	8	0.013327	60	10	60-180	60	167	GapExp	0	86	2	2	1	target	1	1893	54	23612	13.328	13.003	13.653
ProbeTrackDT01	22	ProbeTrack	10.4	SCS215a	20100714.092131	20100714.093133	8	0.013327	60	10	60-180	60	145	GapExp	0	87	2	0	0	target	0	1040	-1000	22612	13.328	12.949	13.707
ProbeTrackDT01	22	ProbeTrack	10.4	SCS215a	20100714.092131	20100714.093139	8	0.013327	60	10	60-180	60	128	GapExp	0	88	2	2	0	target	0	3399	-1000	21612	13.328	13.067	13.565
ProbeTrackDT01	22	ProbeTrack	10.4	SCS215a	20100714.092131	20100714.093148	8	0.013327	60	10	60-180	60	143	GapExp	0	89	2	1	1	target	1	1133	434	22046	13.328	13.201	13.489
ProbeTrackDT01	22	ProbeTrack	10.4	SCS215a	20100714.092131	20100714.093155	8	0.013327	60	10	60-180	60	82	GapExp	0	90	2	75	1	target	1	613	694	22740	13.328	13.001	13.689
ProbeTrackDT01	22	ProbeTrack	10.4	SCS215a	20100714.092131	20100714.093201	8	0.013327	60	10	60-180	60	108	GapExp	0	91	2	4	1	distractor	0	2039	-1000	21740	13.328	12.937	13.718
ProbeTrackDT01	22	ProbeTrack	10.4	SCS215a	20100714.092131	20100714.093208	8	0.013327	60	10	60-180	60	151	GapExp	0	92	2	1	0	target	0	1253	-1000	20740	13.328	13.188	13.468
ProbeTrackDT01	22	ProbeTrack	10.4	SCS215a	20100714.092131	20100714.093215	8	0.013327	60	10	60-180	60	152	GapExp	0	93	2	1	1	distractor	0	654	-1000	19740	13.328	13.266	13.386
ProbeTrackDT01	22	ProbeTrack	10.4	SCS215a	20100714.092131	20100714.093221	8	0.013327	60	10	60-180	60	174	GapExp	0	94	2	4	1	target	1	1733	134	19874	13.410	13.292	26.688
ProbeTrackDT01	22	ProbeTrack	10.4	SCS215a	20100714.092131	20100714.093228	8	0.013327	60	10	60-180	60	76	GapExp	0	95	2	0	0	distractor	1	1266	367	20241	13.448	12.827	40.476
ProbeTrackDT01	22	ProbeTrack	10.4	SCS215a	20100714.092131	20100714.093234	8	0.013327	60	10	60-180	60	135	GapExp	0	96	2	2	0	target	0	1520	-1000	19241	13.328	12.914	13.741
ProbeTrackDT01	22	ProbeTrack	10.4	SCS215a	20100714.092131	20100714.093241	8	0.013327	60	10	60-180	60	115	GapExp	0	97	2	4	1	distractor	0	1586	-1000	18241	13.429	12.818	40.493
ProbeTrackDT01	22	ProbeTrack	10.4	SCS215a	20100714.092131	20100714.093248	8	0.013327	60	10	60-180	60	170	GapExp	0	98	2	0	0	target	0	1093	-1000	17241	13.328	13.098	13.523
ProbeTrackDT01	22	ProbeTrack	10.4	SCS215a	20100714.092131	20100714.093254	8	0.013327	60	10	60-180	60	163	GapExp	0	99	2	0	0	target	0	1333	-1000	16241	13.328	13.031	13.624
ProbeTrackDT01	22	ProbeTrack	10.4	SCS215a	20100714.092131	20100714.093301	8	0.013327	60	10	60-180	60	131	GapExp	0	100	2	75	0	distractor	1	680	660	16901	13.328	13.197	13.424
ProbeTrackDT01	22	ProbeTrack	10.4	SCS215a	20100714.092131	20100714.093322	8	0.013327	60	10	60-180	60	147	GapExp	0	101	2	75	1	target	1	827	587	17488	13.328	13.128	13.529
ProbeTrackDT01	22	ProbeTrack	10.4	SCS215a	20100714.092131	20100714.093329	8	0.013327	60	10	60-180	60	118	GapExp	0	102	2	75	0	distractor	1	1000	500	17988	13.367	12.960	26.721
ProbeTrackDT01	22	ProbeTrack	10.4	SCS215a	20100714.092131	20100714.093336	8	0.013327	60	10	60-180	60	144	GapExp	0	103	2	2	0	distractor	1	600	700	18688	13.423	13.292	39.893
ProbeTrackDT01	22	ProbeTrack	10.4	SCS215a	20100714.092131	20100714.093342	8	0.013327	60	10	60-180	60	105	GapExp	0	104	2	0	1	target	1	1306	347	19035	13.328	13.217	13.434
ProbeTrackDT01	22	ProbeTrack	10.4	SCS215a	20100714.092131	20100714.093348	8	0.013327	60	10	60-180	60	176	GapExp	0	105	2	1	0	distractor	1	627	687	19722	13.328	12.991	13.665
ProbeTrackDT01	22	ProbeTrack	10.4	SCS215a	20100714.092131	20100714.093355	8	0.013327	60	10	60-180	60	107	GapExp	0	106	2	4	0	distractor	1	787	607	20329	13.328	13.180	13.442
ProbeTrackDT01	22	ProbeTrack	10.4	SCS215a	20100714.092131	20100714.093400	8	0.013327	60	10	60-180	60	130	GapExp	0	107	2	75	0	distractor	1	827	587	20916	13.328	13.109	13.581
ProbeTrackDT01	22	ProbeTrack	10.4	SCS215a	20100714.092131	20100714.093407	8	0.013327	60	10	60-180	60	140	GapExp	0	108	2	0	0	target	0	3546	-1000	19916	13.328	12.933	13.721
ProbeTrackDT01	22	ProbeTrack	10.4	SCS215a	20100714.092131	20100714.093416	8	0.013327	60	10	60-180	60	124	GapExp	0	109	2	2	0	target	0	627	-1000	18916	13.328	12.968	13.654
ProbeTrackDT01	22	ProbeTrack	10.4	SCS215a	20100714.092131	20100714.093422	8	0.013327	60	10	60-180	60	155	GapExp	0	110	2	0	1	target	1	800	600	19516	13.328	13.270	13.385
ProbeTrackDT01	22	ProbeTrack	10.4	SCS215a	20100714.092131	20100714.093428	8	0.013327	60	10	60-180	60	114	GapExp	0	111	2	0	1	target	1	667	667	20183	13.328	13.210	13.445
ProbeTrackDT01	22	ProbeTrack	10.4	SCS215a	20100714.092131	20100714.093434	8	0.013327	60	10	60-180	60	169	GapExp	0	112	2	75	0	target	0	653	-1000	19183	13.328	13.160	13.494
ProbeTrackDT01	22	ProbeTrack	10.4	SCS215a	20100714.092131	20100714.093441	8	0.013327	60	10	60-180	60	81	GapExp	0	113	2	2	0	target	0	600	-1000	18183	13.328	12.960	13.695
ProbeTrackDT01	22	ProbeTrack	10.4	SCS215a	20100714.092131	20100714.093446	8	0.013327	60	10	60-180	60	131	GapExp	0	114	2	75	1	target	1	534	733	18916	13.328	12.906	13.717
ProbeTrackDT01	22	ProbeTrack	10.4	SCS215a	20100714.092131	20100714.093453	8	0.013327	60	10	60-180	60	110	GapExp	0	115	2	0	1	target	1	787	607	19523	13.328	12.962	13.669
ProbeTrackDT01	22	ProbeTrack	10.4	SCS215a	20100714.092131	20100714.093459	8	0.013327	60	10	60-180	60	126	GapExp	0	116	2	1	0	target	0	627	-1000	18523	13.328	13.292	13.363
ProbeTrackDT01	22	ProbeTrack	10.4	SCS215a	20100714.092131	20100714.093505	8	0.013327	60	10	60-180	60	99	GapExp	0	117	2	4	0	distractor	1	653	674	19197	13.328	13.293	13.363
ProbeTrackDT01	22	ProbeTrack	10.4	SCS215a	20100714.092131	20100714.093510	8	0.013327	60	10	60-180	60	159	GapExp	0	118	2	1	1	target	1	1733	134	19331	13.328	13.244	13.411
ProbeTrackDT01	22	ProbeTrack	10.4	SCS215a	20100714.092131	20100714.093517	8	0.013327	60	10	60-180	60	62	GapExp	0	119	2	4	0	distractor	1	1133	434	19765	13.328	13.030	13.592
ProbeTrackDT01	22	ProbeTrack	10.4	SCS215a	20100714.092131	20100714.093523	8	0.013327	60	10	60-180	60	144	GapExp	0	120	2	1	0	target	0	760	-1000	18765	13.328	13.287	13.369
ProbeTrackDT01	22	ProbeTrack	10.4	SCS215a	20100714.092131	20100714.093529	8	0.013327	60	10	60-180	60	178	GapExp	0	121	2	2	0	distractor	1	893	554	19319	13.328	13.216	13.440
ProbeTrackDT01	22	ProbeTrack	10.4	SCS215a	20100714.092131	20100714.093536	8	0.013327	60	10	60-180	60	82	GapExp	0	122	2	0	0	distractor	1	840	580	19899	13.328	12.936	13.719
ProbeTrackDT01	22	ProbeTrack	10.4	SCS215a	20100714.092131	20100714.093541	8	0.013327	60	10	60-180	60	174	GapExp	0	123	2	4	0	distractor	1	734	633	20532	13.328	12.958	13.730
ProbeTrackDT01	22	ProbeTrack	10.4	SCS215a	20100714.092131	20100714.093548	8	0.013327	60	10	60-180	60	143	GapExp	0	124	2	4	0	distractor	1	1200	400	20932	13.328	13.001	13.655
ProbeTrackDT01	22	ProbeTrack	10.4	SCS215a	20100714.092131	20100714.093555	8	0.013327	60	10	60-180	60	76	GapExp	0	125	2	0	1	target	1	627	687	21619	13.328	13.065	13.624
ProbeTrackDT01	22	ProbeTrack	10.4	SCS215a	20100714.092131	20100714.093600	8	0.013327	60	10	60-180	60	165	GapExp	0	126	2	2	0	distractor	1	626	687	22306	13.507	13.293	39.982
ProbeTrackDT01	22	ProbeTrack	10.4	SCS215a	20100714.092131	20100714.093606	8	0.013327	60	10	60-180	60	64	GapExp	0	127	2	2	0	target	0	1160	-1000	21306	13.454	13.293	39.948
ProbeTrackDT01	22	ProbeTrack	10.4	SCS215a	20100714.092131	20100714.093611	8	0.013327	60	10	60-180	60	157	GapExp	0	128	2	2	0	distractor	1	987	507	21813	13.328	13.293	13.365
ProbeTrackDT01	22	ProbeTrack	10.4	SCS215a	20100714.092131	20100714.093618	8	0.013327	60	10	60-180	60	162	GapExp	0	129	2	2	0	distractor	1	520	740	22553	13.328	13.019	13.670
ProbeTrackDT01	22	ProbeTrack	10.4	SCS215a	20100714.092131	20100714.093624	8	0.013327	60	10	60-180	60	137	GapExp	0	130	2	4	0	distractor	1	644	678	23231	13.328	13.052	13.602
ProbeTrackDT01	22	ProbeTrack	10.4	SCS215a	20100714.092131	20100714.093630	8	0.013327	60	10	60-180	60	170	GapExp	0	131	2	1	1	target	1	520	740	23971	13.777	13.070	93.586
ProbeTrackDT01	22	ProbeTrack	10.4	SCS215a	20100714.092131	20100714.093637	8	0.013327	60	10	60-180	60	71	GapExp	0	132	2	0	1	target	1	933	534	24505	13.328	13.293	13.363
ProbeTrackDT01	22	ProbeTrack	10.4	SCS215a	20100714.092131	20100714.093642	8	0.013327	60	10	60-180	60	94	GapExp	0	133	2	1	1	target	1	1600	200	24705	13.328	13.281	13.375
ProbeTrackDT01	22	ProbeTrack	10.4	SCS215a	20100714.092131	20100714.093648	8	0.013327	60	10	60-180	60	133	GapExp	0	134	2	1	0	target	0	694	-1000	23705	13.328	13.276	13.363
ProbeTrackDT01	22	ProbeTrack	10.4	SCS215a	20100714.092131	20100714.093654	8	0.013327	60	10	60-180	60	89	GapExp	0	135	2	0	1	target	1	1626	187	23892	13.328	13.181	13.475
ProbeTrackDT01	22	ProbeTrack	10.4	SCS215a	20100714.092131	20100714.093700	8	0.013327	60	10	60-180	60	176	GapExp	0	136	2	1	1	target	1	667	667	24559	13.328	13.251	13.404
ProbeTrackDT01	22	ProbeTrack	10.4	SCS215a	20100714.092131	20100714.093707	8	0.013327	60	10	60-180	60	162	GapExp	0	137	2	2	1	target	1	520	740	25299	13.420	13.116	40.208
ProbeTrackDT01	22	ProbeTrack	10.4	SCS215a	20100714.092131	20100714.093713	8	0.013327	60	10	60-180	60	79	GapExp	0	138	2	0	0	distractor	1	773	614	25913	13.508	13.262	53.377
ProbeTrackDT01	22	ProbeTrack	10.4	SCS215a	20100714.092131	20100714.093718	8	0.013327	60	10	60-180	60	106	GapExp	0	139	2	4	1	target	1	1613	194	26107	13.328	13.293	13.363
ProbeTrackDT01	22	ProbeTrack	10.4	SCS215a	20100714.092131	20100714.093725	8	0.013327	60	10	60-180	60	176	GapExp	0	140	2	4	0	distractor	1	627	687	26794	13.328	13.206	13.415
ProbeTrackDT01	22	ProbeTrack	10.4	SCS215a	20100714.092131	20100714.093731	8	0.013327	60	10	60-180	60	164	GapExp	0	141	2	4	1	target	1	480	760	27554	13.328	13.278	13.365
ProbeTrackDT01	22	ProbeTrack	10.4	SCS215a	20100714.092131	20100714.093737	8	0.013327	60	10	60-180	60	113	GapExp	0	142	2	1	1	target	1	1973	14	27568	13.328	12.878	13.811
ProbeTrackDT01	22	ProbeTrack	10.4	SCS215a	20100714.092131	20100714.093744	8	0.013327	60	10	60-180	60	156	GapExp	0	143	2	0	0	distractor	1	853	574	28142	13.328	13.157	13.473
ProbeTrackDT01	22	ProbeTrack	10.4	SCS215a	20100714.092131	20100714.093751	8	0.013327	60	10	60-180	60	64	GapExp	0	144	2	2	0	target	0	853	-1000	27142	13.328	13.125	13.504
ProbeTrackDT01	22	ProbeTrack	10.4	SCS215a	20100714.092131	20100714.093756	8	0.013327	60	10	60-180	60	102	GapExp	0	145	2	0	0	distractor	1	680	660	27802	13.384	13.037	26.688
ProbeTrackDT01	22	ProbeTrack	10.4	SCS215a	20100714.092131	20100714.093801	8	0.013327	60	10	60-180	60	165	GapExp	0	146	2	75	1	target	1	640	680	28482	13.328	13.219	13.402
ProbeTrackDT01	22	ProbeTrack	10.4	SCS215a	20100714.092131	20100714.093809	8	0.013327	60	10	60-180	60	84	GapExp	0	147	2	4	1	target	1	600	700	29182	13.328	13.150	13.538
ProbeTrackDT01	22	ProbeTrack	10.4	SCS215a	20100714.092131	20100714.093814	8	0.013327	60	10	60-180	60	101	GapExp	0	148	2	0	1	target	1	667	667	29849	13.328	13.056	13.598
ProbeTrackDT01	22	ProbeTrack	10.4	SCS215a	20100714.092131	20100714.093819	8	0.013327	60	10	60-180	60	108	GapExp	0	149	2	4	0	distractor	1	547	727	30576	13.328	13.293	13.363
ProbeTrackDT01	22	ProbeTrack	10.4	SCS215a	20100714.092131	20100714.093825	8	0.013327	60	10	60-180	60	66	GapExp	0	150	2	0	0	distractor	1	627	687	31263	13.328	13.153	13.535
ProbeTrackDT01	22	ProbeTrack	10.4	SCS215a	20100714.092131	20100714.093855	8	0.013327	60	10	60-180	60	139	GapExp	0	151	2	4	0	distractor	1	1107	447	31710	13.328	13.293	13.363
ProbeTrackDT01	22	ProbeTrack	10.4	SCS215a	20100714.092131	20100714.093901	8	0.013327	60	10	60-180	60	180	GapExp	0	152	2	0	0	distractor	1	747	627	32337	13.328	13.093	13.538
ProbeTrackDT01	22	ProbeTrack	10.4	SCS215a	20100714.092131	20100714.093908	8	0.013327	60	10	60-180	60	166	GapExp	0	153	2	1	1	distractor	0	654	-1000	31337	13.328	13.116	13.505
ProbeTrackDT01	22	ProbeTrack	10.4	SCS215a	20100714.092131	20100714.093914	8	0.013327	60	10	60-180	60	120	GapExp	0	154	2	1	1	distractor	0	1067	-1000	30337	13.328	13.208	13.446
ProbeTrackDT01	22	ProbeTrack	10.4	SCS215a	20100714.092131	20100714.093920	8	0.013327	60	10	60-180	60	90	GapExp	0	155	2	0	0	distractor	1	720	640	30977	13.328	13.293	13.363
ProbeTrackDT01	22	ProbeTrack	10.4	SCS215a	20100714.092131	20100714.093926	8	0.013327	60	10	60-180	60	179	GapExp	0	156	2	1	1	target	1	574	713	31690	13.328	13.293	13.363
ProbeTrackDT01	22	ProbeTrack	10.4	SCS215a	20100714.092131	20100714.093932	8	0.013327	60	10	60-180	60	178	GapExp	0	157	2	0	0	distractor	1	640	680	32370	13.328	13.101	13.520
ProbeTrackDT01	22	ProbeTrack	10.4	SCS215a	20100714.092131	20100714.093939	8	0.013327	60	10	60-180	60	152	GapExp	0	158	2	0	1	target	1	587	707	33077	13.516	13.293	66.672
ProbeTrackDT01	22	ProbeTrack	10.4	SCS215a	20100714.092131	20100714.093945	8	0.013327	60	10	60-180	60	158	GapExp	0	159	2	1	0	distractor	1	600	700	33777	13.328	13.262	13.394
ProbeTrackDT01	22	ProbeTrack	10.4	SCS215a	20100714.092131	20100714.093951	8	0.013327	60	10	60-180	60	148	GapExp	0	160	2	75	1	target	1	720	640	34417	13.328	13.293	13.363
ProbeTrackDT01	22	ProbeTrack	10.4	SCS215a	20100714.092131	20100714.093958	8	0.013327	60	10	60-180	60	126	GapExp	0	161	2	1	0	distractor	1	1240	380	34797	13.328	13.293	13.363
ProbeTrackDT01	22	ProbeTrack	10.4	SCS215a	20100714.092131	20100714.094005	8	0.013327	60	10	60-180	60	94	GapExp	0	162	2	1	0	distractor	1	2053	0	34797	13.328	13.239	13.419
ProbeTrackDT01	22	ProbeTrack	10.4	SCS215a	20100714.092131	20100714.094011	8	0.013327	60	10	60-180	60	162	GapExp	0	163	2	2	0	distractor	1	1613	194	34991	13.328	13.293	13.363
ProbeTrackDT01	22	ProbeTrack	10.4	SCS215a	20100714.092131	20100714.094019	8	0.013327	60	10	60-180	60	144	GapExp	0	164	2	75	1	distractor	0	3745	-1000	33991	13.328	13.293	13.363
ProbeTrackDT01	22	ProbeTrack	10.4	SCS215a	20100714.092131	20100714.094029	8	0.013327	60	10	60-180	60	122	GapExp	0	165	2	0	1	target	1	1813	94	34085	13.328	13.293	13.363
ProbeTrackDT01	22	ProbeTrack	10.4	SCS215a	20100714.092131	20100714.094036	8	0.013327	60	10	60-180	60	156	GapExp	0	166	2	4	1	target	1	773	614	34699	13.328	13.293	13.363
ProbeTrackDT01	22	ProbeTrack	10.4	SCS215a	20100714.092131	20100714.094042	8	0.013327	60	10	60-180	60	85	GapExp	0	167	2	75	0	distractor	1	1413	294	34993	13.371	13.293	26.655
ProbeTrackDT01	22	ProbeTrack	10.4	SCS215a	20100714.092131	20100714.094049	8	0.013327	60	10	60-180	60	168	GapExp	0	168	2	0	1	target	1	760	620	35613	13.328	13.293	13.363
ProbeTrackDT01	22	ProbeTrack	10.4	SCS215a	20100714.092131	20100714.094055	8	0.013327	60	10	60-180	60	120	GapExp	0	169	2	75	0	distractor	1	574	713	36326	13.328	13.165	13.524
ProbeTrackDT01	22	ProbeTrack	10.4	SCS215a	20100714.092131	20100714.094102	8	0.013327	60	10	60-180	60	111	GapExp	0	170	2	0	1	target	1	667	667	36993	13.328	13.293	13.363
ProbeTrackDT01	22	ProbeTrack	10.4	SCS215a	20100714.092131	20100714.094108	8	0.013327	60	10	60-180	60	161	GapExp	0	171	2	0	0	distractor	1	987	507	37500	13.415	13.186	26.655
ProbeTrackDT01	22	ProbeTrack	10.4	SCS215a	20100714.092131	20100714.094114	8	0.013327	60	10	60-180	60	155	GapExp	0	172	2	75	1	target	1	680	660	38160	13.328	12.930	13.726
ProbeTrackDT01	22	ProbeTrack	10.4	SCS215a	20100714.092131	20100714.094122	8	0.013327	60	10	60-180	60	128	GapExp	0	173	2	4	1	target	1	2573	0	38160	13.328	13.293	13.363
ProbeTrackDT01	22	ProbeTrack	10.4	SCS215a	20100714.092131	20100714.094129	8	0.013327	60	10	60-180	60	123	GapExp	0	174	2	0	0	target	0	853	-1000	37160	13.428	13.163	40.114
ProbeTrackDT01	22	ProbeTrack	10.4	SCS215a	20100714.092131	20100714.094135	8	0.013327	60	10	60-180	60	118	GapExp	0	175	2	2	1	target	1	587	707	37867	13.328	13.293	13.363
ProbeTrackDT01	22	ProbeTrack	10.4	SCS215a	20100714.092131	20100714.094141	8	0.013327	60	10	60-180	60	98	GapExp	0	176	2	0	1	target	1	1053	474	38341	13.328	13.293	13.365
ProbeTrackDT01	22	ProbeTrack	10.4	SCS215a	20100714.092131	20100714.094147	8	0.013327	60	10	60-180	60	66	GapExp	0	177	2	1	0	target	0	1067	-1000	37341	13.391	13.293	26.652
ProbeTrackDT01	22	ProbeTrack	10.4	SCS215a	20100714.092131	20100714.094152	8	0.013327	60	10	60-180	60	128	GapExp	0	178	2	75	1	target	1	534	733	38074	13.328	13.259	13.396
ProbeTrackDT01	22	ProbeTrack	10.4	SCS215a	20100714.092131	20100714.094159	8	0.013327	60	10	60-180	60	95	GapExp	0	179	2	2	0	distractor	1	693	654	38728	13.328	13.293	13.363
ProbeTrackDT01	22	ProbeTrack	10.4	SCS215a	20100714.092131	20100714.094204	8	0.013327	60	10	60-180	60	77	GapExp	0	180	2	2	1	distractor	0	787	-1000	37728	13.328	13.293	13.363
ProbeTrackDT01	22	ProbeTrack	10.4	SCS215a	20100714.092131	20100714.094209	8	0.013327	60	10	60-180	60	165	GapExp	0	181	2	2	1	target	1	560	720	38448	13.328	13.293	13.363
ProbeTrackDT01	22	ProbeTrack	10.4	SCS215a	20100714.092131	20100714.094216	8	0.013327	60	10	60-180	60	128	GapExp	0	182	2	75	1	target	1	667	667	39115	13.328	13.292	13.364
ProbeTrackDT01	22	ProbeTrack	10.4	SCS215a	20100714.092131	20100714.094222	8	0.013327	60	10	60-180	60	172	GapExp	0	183	2	1	0	distractor	1	920	540	39655	13.328	13.279	13.377
ProbeTrackDT01	22	ProbeTrack	10.4	SCS215a	20100714.092131	20100714.094229	8	0.013327	60	10	60-180	60	85	GapExp	0	184	2	75	0	distractor	1	1360	320	39975	13.328	13.008	13.647
ProbeTrackDT01	22	ProbeTrack	10.4	SCS215a	20100714.092131	20100714.094236	8	0.013327	60	10	60-180	60	150	GapExp	0	185	2	2	0	target	0	547	-1000	38975	13.328	13.231	13.458
ProbeTrackDT01	22	ProbeTrack	10.4	SCS215a	20100714.092131	20100714.094242	8	0.013327	60	10	60-180	60	117	GapExp	0	186	2	75	1	target	1	574	713	39688	13.328	13.293	13.363
ProbeTrackDT01	22	ProbeTrack	10.4	SCS215a	20100714.092131	20100714.094249	8	0.013327	60	10	60-180	60	76	GapExp	0	187	2	4	1	target	1	867	567	40255	13.328	13.130	13.525
ProbeTrackDT01	22	ProbeTrack	10.4	SCS215a	20100714.092131	20100714.094254	8	0.013327	60	10	60-180	60	152	GapExp	0	188	2	4	0	target	0	627	-1000	39255	13.328	13.103	13.552
ProbeTrackDT01	22	ProbeTrack	10.4	SCS215a	20100714.092131	20100714.094300	8	0.013327	60	10	60-180	60	140	GapExp	0	189	2	2	1	target	1	587	707	39962	13.328	12.970	13.685
ProbeTrackDT01	22	ProbeTrack	10.4	SCS215a	20100714.092131	20100714.094306	8	0.013327	60	10	60-180	60	167	GapExp	0	190	2	0	0	target	0	627	-1000	38962	13.328	12.987	13.669
ProbeTrackDT01	22	ProbeTrack	10.4	SCS215a	20100714.092131	20100714.094312	8	0.013327	60	10	60-180	60	112	GapExp	0	191	2	4	0	distractor	1	640	680	39642	13.328	13.272	13.382
ProbeTrackDT01	22	ProbeTrack	10.4	SCS215a	20100714.092131	20100714.094318	8	0.013327	60	10	60-180	60	137	GapExp	0	192	2	0	1	target	1	640	680	40322	13.377	13.293	26.468
ProbeTrackDT01	22	ProbeTrack	10.4	SCS215a	20100714.092131	20100714.094324	8	0.013327	60	10	60-180	60	169	GapExp	0	193	2	4	0	target	0	1267	-1000	39322	14.082	13.025	160.369
ProbeTrackDT01	22	ProbeTrack	10.4	SCS215a	20100714.092131	20100714.094331	8	0.013327	60	10	60-180	60	147	GapExp	0	194	2	1	1	target	1	2279	0	39322	13.328	13.293	13.369
ProbeTrackDT01	22	ProbeTrack	10.4	SCS215a	20100714.092131	20100714.094339	8	0.013327	60	10	60-180	60	170	GapExp	0	195	2	2	0	target	0	494	-1000	38322	13.328	13.016	13.668
ProbeTrackDT01	22	ProbeTrack	10.4	SCS215a	20100714.092131	20100714.094345	8	0.013327	60	10	60-180	60	92	GapExp	0	196	2	4	1	target	1	1520	240	38562	13.383	12.874	27.110
ProbeTrackDT01	22	ProbeTrack	10.4	SCS215a	20100714.092131	20100714.094351	8	0.013327	60	10	60-180	60	180	GapExp	0	197	2	0	0	distractor	1	654	673	39235	13.328	13.226	13.431
ProbeTrackDT01	22	ProbeTrack	10.4	SCS215a	20100714.092131	20100714.094358	8	0.013327	60	10	60-180	60	98	GapExp	0	198	2	2	0	distractor	1	1080	460	39695	13.328	13.166	13.522
ProbeTrackDT01	22	ProbeTrack	10.4	SCS215a	20100714.092131	20100714.094404	8	0.013327	60	10	60-180	60	83	GapExp	0	199	2	2	1	distractor	0	1240	-1000	38695	13.328	13.248	13.373
ProbeTrackDT01	22	ProbeTrack	10.4	SCS215a	20100714.092131	20100714.094410	8	0.013327	60	10	60-180	60	101	GapExp	0	200	2	2	1	distractor	0	1573	-1000	37695	13.328	13.062	13.628
ProbeTrackDT01	22	ProbeTrack	10.4	SCS215a	20100714.092131	20100714.094425	8	0.013327	60	10	60-180	60	120	GapExp	0	201	2	2	1	target	1	827	587	38282	13.328	13.293	13.363
ProbeTrackDT01	22	ProbeTrack	10.4	SCS215a	20100714.092131	20100714.094431	8	0.013327	60	10	60-180	60	84	GapExp	0	202	2	2	1	distractor	0	1893	-1000	37282	13.328	13.195	13.463
ProbeTrackDT01	22	ProbeTrack	10.4	SCS215a	20100714.092131	20100714.094438	8	0.013327	60	10	60-180	60	159	GapExp	0	203	2	0	0	distractor	1	907	547	37829	13.328	13.293	13.381
ProbeTrackDT01	22	ProbeTrack	10.4	SCS215a	20100714.092131	20100714.094444	8	0.013327	60	10	60-180	60	122	GapExp	0	204	2	1	1	target	1	1986	7	37836	13.328	13.289	13.366
ProbeTrackDT01	22	ProbeTrack	10.4	SCS215a	20100714.092131	20100714.094451	8	0.013327	60	10	60-180	60	107	GapExp	0	205	2	75	0	distractor	1	800	600	38436	13.328	13.014	13.643
ProbeTrackDT01	22	ProbeTrack	10.4	SCS215a	20100714.092131	20100714.094458	8	0.013327	60	10	60-180	60	155	GapExp	0	206	2	2	1	target	1	1733	134	38570	13.328	12.946	13.708
ProbeTrackDT01	22	ProbeTrack	10.4	SCS215a	20100714.092131	20100714.094505	8	0.013327	60	10	60-180	60	84	GapExp	0	207	2	1	1	target	1	880	560	39130	13.328	13.085	13.593
ProbeTrackDT01	22	ProbeTrack	10.4	SCS215a	20100714.092131	20100714.094511	8	0.013327	60	10	60-180	60	180	GapExp	0	208	2	4	1	target	1	560	720	39850	13.328	13.231	13.536
ProbeTrackDT01	22	ProbeTrack	10.4	SCS215a	20100714.092131	20100714.094517	8	0.013327	60	10	60-180	60	154	GapExp	0	209	2	4	1	target	1	693	654	40504	13.328	13.054	13.601
ProbeTrackDT01	22	ProbeTrack	10.4	SCS215a	20100714.092131	20100714.094523	8	0.013327	60	10	60-180	60	61	GapExp	0	210	2	1	1	target	1	1280	360	40864	13.328	13.167	13.487
