exp	sub	code	rev	comp	runtime	trialtime	nstim	refreshdur	cuedur	gapdur	gapOnsetRange	durPostProbe	gapOnsetTime	blocktype	prac	trial	ntargets	soa	probeTarget	resp	acc	rt	pts	tpts	meanFrameDur	minFrameDur	maxFrameDur
ProbeTrackDT01	13	ProbeTrack	10.4	SCS215a	20100707.095910	20100707.095921	8	0.013328	60	0	60-180	60	94	NoGap	1	1	2	1	0	83	-3	1200	-1000	-1000	13.329	13.293	13.380
ProbeTrackDT01	13	ProbeTrack	10.4	SCS215a	20100707.095910	20100707.095927	8	0.013328	60	0	60-180	60	172	NoGap	1	2	2	2	1	target	1	1920	40	-960	13.328	13.293	13.378
ProbeTrackDT01	13	ProbeTrack	10.4	SCS215a	20100707.095910	20100707.095935	8	0.013328	60	0	60-180	60	149	NoGap	1	3	2	4	0	83	-3	573	-1000	-1960	13.328	13.292	13.364
ProbeTrackDT01	13	ProbeTrack	10.4	SCS215a	20100707.095910	20100707.095941	8	0.013328	60	0	60-180	60	104	NoGap	1	4	2	1	0	target	0	653	-1000	-2960	13.328	13.293	13.363
ProbeTrackDT01	13	ProbeTrack	10.4	SCS215a	20100707.095910	20100707.095946	8	0.013328	60	0	60-180	60	115	NoGap	1	5	2	4	0	83	-3	680	-1000	-3960	13.328	13.292	13.363
ProbeTrackDT01	13	ProbeTrack	10.4	SCS215a	20100707.095910	20100707.095952	8	0.013328	60	0	60-180	60	72	NoGap	1	6	2	0	1	target	1	813	594	-3366	13.328	13.231	13.434
ProbeTrackDT01	13	ProbeTrack	10.4	SCS215a	20100707.095910	20100707.095957	8	0.013328	60	0	60-180	60	96	NoGap	1	7	2	1	1	target	1	1093	454	-2912	13.328	13.293	13.364
ProbeTrackDT01	13	ProbeTrack	10.4	SCS215a	20100707.095910	20100707.100003	8	0.013328	60	0	60-180	60	101	NoGap	1	8	2	1	0	distractor	1	440	780	-2132	13.391	13.293	26.623
ProbeTrackDT01	13	ProbeTrack	10.4	SCS215a	20100707.095910	20100707.100008	8	0.013328	60	0	60-180	60	114	NoGap	1	9	2	0	1	target	1	907	547	-1585	13.328	13.112	13.577
ProbeTrackDT01	13	ProbeTrack	10.4	SCS215a	20100707.095910	20100707.100013	8	0.013328	60	0	60-180	60	174	NoGap	1	10	2	4	1	target	1	600	700	-885	13.328	13.289	13.368
ProbeTrackDT01	13	ProbeTrack	10.4	SCS215a	20100707.095910	20100707.100020	8	0.013328	60	0	60-180	60	94	NoGap	1	11	2	1	1	target	1	760	620	-265	13.328	13.293	13.363
ProbeTrackDT01	13	ProbeTrack	10.4	SCS215a	20100707.095910	20100707.100025	8	0.013328	60	0	60-180	60	76	NoGap	1	12	2	2	1	target	1	600	700	435	13.328	13.214	13.408
ProbeTrackDT01	13	ProbeTrack	10.4	SCS215a	20100707.095910	20100707.100030	8	0.013328	60	0	60-180	60	113	NoGap	1	13	2	1	1	target	1	520	740	1175	13.328	13.165	13.524
ProbeTrackDT01	13	ProbeTrack	10.4	SCS215a	20100707.095910	20100707.100035	8	0.013328	60	0	60-180	60	126	NoGap	1	14	2	2	0	distractor	1	427	787	1962	13.328	13.211	13.445
ProbeTrackDT01	13	ProbeTrack	10.4	SCS215a	20100707.095910	20100707.100041	8	0.013328	60	0	60-180	60	134	NoGap	1	15	2	75	0	distractor	1	680	660	2622	13.328	13.293	13.363
ProbeTrackDT01	13	ProbeTrack	10.4	SCS215a	20100707.095910	20100707.100048	8	0.013328	60	0	60-180	60	126	NoGap	1	16	2	0	0	distractor	1	467	767	3389	13.328	13.293	13.363
ProbeTrackDT01	13	ProbeTrack	10.4	SCS215a	20100707.095910	20100707.100053	8	0.013328	60	0	60-180	60	76	NoGap	1	17	2	0	0	distractor	1	787	607	3996	13.328	13.161	13.494
ProbeTrackDT01	13	ProbeTrack	10.4	SCS215a	20100707.095910	20100707.100058	8	0.013328	60	0	60-180	60	91	NoGap	1	18	2	4	1	target	1	560	720	4716	13.328	13.293	13.363
ProbeTrackDT01	13	ProbeTrack	10.4	SCS215a	20100707.095910	20100707.100103	8	0.013328	60	0	60-180	60	175	NoGap	1	19	2	2	0	distractor	1	427	787	5503	13.328	13.069	13.587
ProbeTrackDT01	13	ProbeTrack	10.4	SCS215a	20100707.095910	20100707.100109	8	0.013328	60	0	60-180	60	121	NoGap	1	20	2	75	1	target	1	627	687	6190	13.369	13.293	26.555
ProbeTrackDT01	13	ProbeTrack	10.4	SCS215a	20100707.095910	20100707.100116	8	0.013328	60	0	60-180	60	87	NoGap	1	21	2	75	0	distractor	1	454	773	6963	13.328	13.293	13.363
ProbeTrackDT01	13	ProbeTrack	10.4	SCS215a	20100707.095910	20100707.100122	8	0.013328	60	0	60-180	60	140	NoGap	1	22	2	75	0	distractor	1	427	787	7750	13.328	13.232	13.424
ProbeTrackDT01	13	ProbeTrack	10.4	SCS215a	20100707.095910	20100707.100128	8	0.013328	60	0	60-180	60	93	NoGap	1	23	2	4	1	target	1	614	693	8443	13.328	13.291	13.363
ProbeTrackDT01	13	ProbeTrack	10.4	SCS215a	20100707.095910	20100707.100133	8	0.013328	60	0	60-180	60	88	NoGap	1	24	2	4	1	target	1	520	740	9183	13.328	13.150	13.533
ProbeTrackDT01	13	ProbeTrack	10.4	SCS215a	20100707.095910	20100707.100138	8	0.013328	60	0	60-180	60	128	NoGap	1	25	2	2	1	distractor	0	480	-1000	8183	13.328	13.243	13.448
ProbeTrackDT01	13	ProbeTrack	10.4	SCS215a	20100707.095910	20100707.100144	8	0.013328	60	0	60-180	60	92	NoGap	1	26	2	0	1	target	1	520	740	8923	13.328	12.852	13.838
ProbeTrackDT01	13	ProbeTrack	10.4	SCS215a	20100707.095910	20100707.100149	8	0.013328	60	0	60-180	60	72	NoGap	1	27	2	75	1	target	1	560	720	9643	13.328	13.281	13.363
ProbeTrackDT01	13	ProbeTrack	10.4	SCS215a	20100707.095910	20100707.100155	8	0.013328	60	0	60-180	60	158	NoGap	1	28	2	75	1	target	1	640	680	10323	13.328	12.933	13.690
ProbeTrackDT01	13	ProbeTrack	10.4	SCS215a	20100707.095910	20100707.100202	8	0.013328	60	0	60-180	60	148	NoGap	1	29	2	2	0	distractor	1	600	700	11023	13.328	13.255	13.366
ProbeTrackDT01	13	ProbeTrack	10.4	SCS215a	20100707.095910	20100707.100208	8	0.013328	60	0	60-180	60	75	NoGap	1	30	2	0	0	distractor	1	747	627	11650	13.328	13.184	13.472
ProbeTrackDT01	13	ProbeTrack	10.4	SCS215a	20100707.095910	20100707.100213	8	0.013328	60	0	60-180	60	153	NoGap	1	31	2	2	1	target	1	627	687	12337	13.328	13.198	13.424
ProbeTrackDT01	13	ProbeTrack	10.4	SCS215a	20100707.095910	20100707.100219	8	0.013328	60	0	60-180	60	141	NoGap	1	32	2	1	0	distractor	1	520	740	13077	13.328	13.290	13.363
ProbeTrackDT01	13	ProbeTrack	10.4	SCS215a	20100707.095910	20100707.100224	8	0.013328	60	0	60-180	60	127	NoGap	1	33	2	2	0	distractor	1	547	727	13804	13.328	13.180	13.511
ProbeTrackDT01	13	ProbeTrack	10.4	SCS215a	20100707.095910	20100707.100230	8	0.013328	60	0	60-180	60	113	NoGap	1	34	2	4	0	distractor	1	560	720	14524	13.328	13.062	13.559
ProbeTrackDT01	13	ProbeTrack	10.4	SCS215a	20100707.095910	20100707.100235	8	0.013328	60	0	60-180	60	128	NoGap	1	35	2	0	1	target	1	467	767	15291	13.328	13.093	13.530
ProbeTrackDT01	13	ProbeTrack	10.4	SCS215a	20100707.095910	20100707.100241	8	0.013328	60	0	60-180	60	162	NoGap	1	36	2	1	1	target	1	574	713	16004	13.328	13.171	13.519
ProbeTrackDT01	13	ProbeTrack	10.4	SCS215a	20100707.095910	20100707.100247	8	0.013328	60	0	60-180	60	75	NoGap	1	37	2	4	0	distractor	1	613	694	16698	13.328	13.255	13.435
ProbeTrackDT01	13	ProbeTrack	10.4	SCS215a	20100707.095910	20100707.100252	8	0.013328	60	0	60-180	60	132	NoGap	1	38	2	75	0	distractor	1	574	713	17411	13.328	13.063	13.591
ProbeTrackDT01	13	ProbeTrack	10.4	SCS215a	20100707.095910	20100707.100258	8	0.013328	60	0	60-180	60	93	NoGap	1	39	2	0	0	distractor	1	613	694	18105	13.328	13.293	13.363
ProbeTrackDT01	13	ProbeTrack	10.4	SCS215a	20100707.095910	20100707.100303	8	0.013328	60	0	60-180	60	103	NoGap	1	40	2	75	1	target	1	587	707	18812	13.328	13.267	13.423
ProbeTrackDT01	13	ProbeTrack	10.4	SCS215a	20100707.100354	20100707.100358	8	0.013328	60	10	60-180	60	146	GapPrac	1	1	2	0	1	target	1	720	640	19452	13.328	13.293	13.363
ProbeTrackDT01	13	ProbeTrack	10.4	SCS215a	20100707.100354	20100707.100404	8	0.013328	60	10	60-180	60	180	GapPrac	1	2	2	1	0	distractor	1	600	700	20152	13.328	13.293	13.363
ProbeTrackDT01	13	ProbeTrack	10.4	SCS215a	20100707.100354	20100707.100410	8	0.013328	60	10	60-180	60	75	GapPrac	1	3	2	2	1	target	1	774	613	20765	13.388	13.293	13.482
ProbeTrackDT01	13	ProbeTrack	10.4	SCS215a	20100707.100354	20100707.100415	8	0.013328	60	10	60-180	60	118	GapPrac	1	4	2	1	1	target	1	640	680	21445	13.328	13.283	13.374
ProbeTrackDT01	13	ProbeTrack	10.4	SCS215a	20100707.100354	20100707.100421	8	0.013328	60	10	60-180	60	90	GapPrac	1	5	2	4	0	distractor	1	840	580	22025	13.328	13.293	13.363
ProbeTrackDT01	13	ProbeTrack	10.4	SCS215a	20100707.100354	20100707.100426	8	0.013328	60	10	60-180	60	143	GapPrac	1	6	2	4	1	target	1	560	720	22745	13.328	13.293	13.363
ProbeTrackDT01	13	ProbeTrack	10.4	SCS215a	20100707.100354	20100707.100432	8	0.013328	60	10	60-180	60	62	GapPrac	1	7	2	75	1	target	1	560	720	23465	13.328	13.285	13.363
ProbeTrackDT01	13	ProbeTrack	10.4	SCS215a	20100707.100354	20100707.100438	8	0.013328	60	10	60-180	60	153	GapPrac	1	8	2	75	0	target	0	627	-1000	22465	13.328	13.272	13.385
ProbeTrackDT01	13	ProbeTrack	10.4	SCS215a	20100707.100354	20100707.100445	8	0.013328	60	10	60-180	60	154	GapPrac	1	9	2	75	0	distractor	1	520	740	23205	13.328	13.293	13.363
ProbeTrackDT01	13	ProbeTrack	10.4	SCS215a	20100707.100354	20100707.100452	8	0.013328	60	10	60-180	60	134	GapPrac	1	10	2	1	1	target	1	800	600	23805	13.328	13.258	13.397
ProbeTrackDT01	13	ProbeTrack	10.4	SCS215a	20100707.100354	20100707.100458	8	0.013328	60	10	60-180	60	157	GapPrac	1	11	2	1	0	distractor	1	720	640	24445	13.328	13.293	13.364
ProbeTrackDT01	13	ProbeTrack	10.4	SCS215a	20100707.100354	20100707.100504	8	0.013328	60	10	60-180	60	169	GapPrac	1	12	2	2	0	distractor	1	1067	467	24912	13.328	12.834	13.788
ProbeTrackDT01	13	ProbeTrack	10.4	SCS215a	20100707.100354	20100707.100511	8	0.013328	60	10	60-180	60	173	GapPrac	1	13	2	75	1	target	1	813	594	25506	13.328	13.292	13.363
ProbeTrackDT01	13	ProbeTrack	10.4	SCS215a	20100707.100354	20100707.100519	8	0.013328	60	10	60-180	60	130	GapPrac	1	14	2	4	1	target	1	560	720	26226	13.328	13.290	13.363
ProbeTrackDT01	13	ProbeTrack	10.4	SCS215a	20100707.100354	20100707.100524	8	0.013328	60	10	60-180	60	147	GapPrac	1	15	2	0	0	distractor	1	613	694	26920	13.328	13.293	13.364
ProbeTrackDT01	13	ProbeTrack	10.4	SCS215a	20100707.100354	20100707.100530	8	0.013328	60	10	60-180	60	120	GapPrac	1	16	2	4	0	target	0	640	-1000	25920	13.328	13.293	13.363
ProbeTrackDT01	13	ProbeTrack	10.4	SCS215a	20100707.100354	20100707.100536	8	0.013328	60	10	60-180	60	68	GapPrac	1	17	2	2	0	distractor	1	693	654	26574	13.328	13.288	13.363
ProbeTrackDT01	13	ProbeTrack	10.4	SCS215a	20100707.100354	20100707.100541	8	0.013328	60	10	60-180	60	123	GapPrac	1	18	2	0	1	distractor	0	773	-1000	25574	13.328	13.011	13.644
ProbeTrackDT01	13	ProbeTrack	10.4	SCS215a	20100707.100354	20100707.100547	8	0.013328	60	10	60-180	60	135	GapPrac	1	19	2	0	0	distractor	1	920	540	26114	13.328	13.243	13.413
ProbeTrackDT01	13	ProbeTrack	10.4	SCS215a	20100707.100354	20100707.100553	8	0.013328	60	10	60-180	60	112	GapPrac	1	20	2	2	1	distractor	0	867	-1000	25114	13.328	13.061	13.595
ProbeTrackDT01	13	ProbeTrack	10.4	SCS215a	20100707.100724	20100707.100728	8	0.013328	60	10	60-180	60	155	GapPrac	1	1	2	2	1	186	-3	693	-1000	24114	13.328	13.186	13.503
ProbeTrackDT01	13	ProbeTrack	10.4	SCS215a	20100707.100724	20100707.100734	8	0.013328	60	10	60-180	60	155	GapPrac	1	2	2	2	0	186	-3	800	-1000	23114	13.328	13.293	13.364
ProbeTrackDT01	13	ProbeTrack	10.4	SCS215a	20100707.100724	20100707.100740	8	0.013328	60	10	60-180	60	78	GapPrac	1	3	2	1	1	target	1	1746	127	23241	13.328	13.200	13.455
ProbeTrackDT01	13	ProbeTrack	10.4	SCS215a	20100707.100724	20100707.100747	8	0.013328	60	10	60-180	60	137	GapPrac	1	4	2	4	0	distractor	1	627	687	23928	13.328	13.292	13.363
ProbeTrackDT01	13	ProbeTrack	10.4	SCS215a	20100707.100724	20100707.100752	8	0.013328	60	10	60-180	60	166	GapPrac	1	5	2	0	0	distractor	1	693	654	24582	13.328	13.292	13.363
ProbeTrackDT01	13	ProbeTrack	10.4	SCS215a	20100707.100724	20100707.100759	8	0.013328	60	10	60-180	60	172	GapPrac	1	6	2	0	1	target	1	1213	394	24976	13.328	13.293	13.364
ProbeTrackDT01	13	ProbeTrack	10.4	SCS215a	20100707.100724	20100707.100806	8	0.013328	60	10	60-180	60	126	GapPrac	1	7	2	1	0	target	0	840	-1000	23976	13.328	13.099	13.556
ProbeTrackDT01	13	ProbeTrack	10.4	SCS215a	20100707.100724	20100707.100812	8	0.013328	60	10	60-180	60	170	GapPrac	1	8	2	0	0	distractor	1	574	713	24689	13.328	13.180	13.475
ProbeTrackDT01	13	ProbeTrack	10.4	SCS215a	20100707.100724	20100707.100818	8	0.013328	60	10	60-180	60	81	GapPrac	1	9	2	4	0	target	0	720	-1000	23689	13.328	13.222	13.400
ProbeTrackDT01	13	ProbeTrack	10.4	SCS215a	20100707.100724	20100707.100823	8	0.013328	60	10	60-180	60	126	GapPrac	1	10	2	4	1	distractor	0	1186	-1000	22689	13.328	13.152	13.503
ProbeTrackDT01	13	ProbeTrack	10.4	SCS215a	20100707.100724	20100707.100829	8	0.013328	60	10	60-180	60	63	GapPrac	1	11	2	2	1	target	1	787	607	23296	13.328	13.293	13.366
ProbeTrackDT01	13	ProbeTrack	10.4	SCS215a	20100707.100724	20100707.100835	8	0.013328	60	10	60-180	60	158	GapPrac	1	12	2	75	1	distractor	0	427	-1000	22296	13.328	13.171	13.451
ProbeTrackDT01	13	ProbeTrack	10.4	SCS215a	20100707.100724	20100707.100842	8	0.013328	60	10	60-180	60	71	GapPrac	1	13	2	1	0	distractor	1	667	667	22963	13.328	13.289	13.365
ProbeTrackDT01	13	ProbeTrack	10.4	SCS215a	20100707.100724	20100707.100847	8	0.013328	60	10	60-180	60	157	GapPrac	1	14	2	2	0	target	0	587	-1000	21963	13.328	13.293	13.364
ProbeTrackDT01	13	ProbeTrack	10.4	SCS215a	20100707.100724	20100707.100853	8	0.013328	60	10	60-180	60	145	GapPrac	1	15	2	1	1	target	1	627	687	22650	13.328	13.289	13.371
ProbeTrackDT01	13	ProbeTrack	10.4	SCS215a	20100707.100724	20100707.100859	8	0.013328	60	10	60-180	60	167	GapPrac	1	16	2	0	1	distractor	0	920	-1000	21650	13.328	13.015	13.641
ProbeTrackDT01	13	ProbeTrack	10.4	SCS215a	20100707.100724	20100707.100905	8	0.013328	60	10	60-180	60	95	GapPrac	1	17	2	75	0	target	0	640	-1000	20650	13.328	13.234	13.454
ProbeTrackDT01	13	ProbeTrack	10.4	SCS215a	20100707.100724	20100707.100912	8	0.013328	60	10	60-180	60	64	GapPrac	1	18	2	75	1	target	1	1187	407	21057	13.328	13.154	13.502
ProbeTrackDT01	13	ProbeTrack	10.4	SCS215a	20100707.100724	20100707.100918	8	0.013328	60	10	60-180	60	147	GapPrac	1	19	2	4	1	target	1	667	667	21724	13.328	13.293	13.363
ProbeTrackDT01	13	ProbeTrack	10.4	SCS215a	20100707.100724	20100707.100924	8	0.013328	60	10	60-180	60	77	GapPrac	1	20	2	75	0	distractor	1	494	753	22477	13.328	13.031	13.623
ProbeTrackDT01	13	ProbeTrack	10.4	SCS215a	20100707.101016	20100707.101030	8	0.013328	60	10	60-180	60	88	GapExp	1	1	2	4	0	target	0	747	-1000	21477	13.328	13.293	13.363
ProbeTrackDT01	13	ProbeTrack	10.4	SCS215a	20100707.101016	20100707.101036	8	0.013328	60	10	60-180	60	89	GapExp	1	2	2	0	1	distractor	0	720	-1000	20477	13.328	13.293	13.363
ProbeTrackDT01	13	ProbeTrack	10.4	SCS215a	20100707.101016	20100707.101041	8	0.013328	60	10	60-180	60	89	GapExp	1	3	2	1	0	target	0	627	-1000	19477	13.328	13.293	13.364
ProbeTrackDT01	13	ProbeTrack	10.4	SCS215a	20100707.101016	20100707.101046	8	0.013328	60	10	60-180	60	138	GapExp	1	4	2	75	0	distractor	1	614	693	20170	13.328	13.037	13.585
ProbeTrackDT01	13	ProbeTrack	10.4	SCS215a	20100707.101016	20100707.101053	8	0.013328	60	10	60-180	60	64	GapExp	1	5	2	4	1	target	1	707	647	20817	13.328	13.262	13.427
ProbeTrackDT01	13	ProbeTrack	10.4	SCS215a	20100707.101016	20100707.101058	8	0.013328	60	10	60-180	60	130	GapExp	1	6	2	2	0	distractor	1	853	574	21391	13.328	13.290	13.363
ProbeTrackDT01	13	ProbeTrack	10.4	SCS215a	20100707.101016	20100707.101104	8	0.013328	60	10	60-180	60	141	GapExp	1	7	2	1	1	target	1	1466	267	21658	13.328	13.072	13.584
ProbeTrackDT01	13	ProbeTrack	10.4	SCS215a	20100707.101016	20100707.101111	8	0.013328	60	10	60-180	60	146	GapExp	1	8	2	0	0	distractor	1	680	660	22318	13.328	13.292	13.363
ProbeTrackDT01	13	ProbeTrack	10.4	SCS215a	20100707.101016	20100707.101117	8	0.013328	60	10	60-180	60	112	GapExp	1	9	2	2	1	target	1	693	654	22972	13.328	13.292	13.363
ProbeTrackDT01	13	ProbeTrack	10.4	SCS215a	20100707.101016	20100707.101123	8	0.013328	60	10	60-180	60	78	GapExp	1	10	2	75	1	target	1	707	647	23619	13.328	13.289	13.366
ProbeTrackDT01	13	ProbeTrack	10.4	SCS215a	20100707.101016	20100707.101129	8	0.013328	60	10	60-180	60	123	GapExp	0	11	2	4	1	target	1	1133	434	24053	13.328	13.293	13.363
ProbeTrackDT01	13	ProbeTrack	10.4	SCS215a	20100707.101016	20100707.101135	8	0.013328	60	10	60-180	60	67	GapExp	0	12	2	2	1	target	1	827	587	24640	13.328	13.044	13.611
ProbeTrackDT01	13	ProbeTrack	10.4	SCS215a	20100707.101016	20100707.101140	8	0.013328	60	10	60-180	60	117	GapExp	0	13	2	1	1	target	1	733	634	25274	13.328	13.292	13.363
ProbeTrackDT01	13	ProbeTrack	10.4	SCS215a	20100707.101016	20100707.101146	8	0.013328	60	10	60-180	60	107	GapExp	0	14	2	1	0	distractor	1	667	667	25941	13.328	13.293	13.363
ProbeTrackDT01	13	ProbeTrack	10.4	SCS215a	20100707.101016	20100707.101151	8	0.013328	60	10	60-180	60	109	GapExp	0	15	2	2	0	distractor	1	747	627	26568	13.328	13.136	13.484
ProbeTrackDT01	13	ProbeTrack	10.4	SCS215a	20100707.101016	20100707.101157	8	0.013328	60	10	60-180	60	129	GapExp	0	16	2	1	1	target	1	694	653	27221	13.328	13.229	13.429
ProbeTrackDT01	13	ProbeTrack	10.4	SCS215a	20100707.101016	20100707.101203	8	0.013328	60	10	60-180	60	82	GapExp	0	17	2	0	1	target	1	693	654	27875	13.328	12.881	13.742
ProbeTrackDT01	13	ProbeTrack	10.4	SCS215a	20100707.101016	20100707.101208	8	0.013328	60	10	60-180	60	153	GapExp	0	18	2	1	0	distractor	1	627	687	28562	13.328	13.293	13.368
ProbeTrackDT01	13	ProbeTrack	10.4	SCS215a	20100707.101016	20100707.101214	8	0.013328	60	10	60-180	60	90	GapExp	0	19	2	75	1	target	1	653	674	29236	13.328	13.168	13.488
ProbeTrackDT01	13	ProbeTrack	10.4	SCS215a	20100707.101016	20100707.101221	8	0.013328	60	10	60-180	60	163	GapExp	0	20	2	75	0	distractor	1	480	760	29996	13.328	13.201	13.421
ProbeTrackDT01	13	ProbeTrack	10.4	SCS215a	20100707.101016	20100707.101228	8	0.013328	60	10	60-180	60	140	GapExp	0	21	2	0	0	target	0	720	-1000	28996	13.328	13.286	13.370
ProbeTrackDT01	13	ProbeTrack	10.4	SCS215a	20100707.101016	20100707.101234	8	0.013328	60	10	60-180	60	166	GapExp	0	22	2	75	1	target	1	600	700	29696	13.328	13.160	13.529
ProbeTrackDT01	13	ProbeTrack	10.4	SCS215a	20100707.101016	20100707.101241	8	0.013328	60	10	60-180	60	152	GapExp	0	23	2	0	0	target	0	1093	-1000	28696	13.328	13.293	13.363
ProbeTrackDT01	13	ProbeTrack	10.4	SCS215a	20100707.101016	20100707.101247	8	0.013328	60	10	60-180	60	69	GapExp	0	24	2	1	0	distractor	1	787	607	29303	13.328	13.293	13.363
ProbeTrackDT01	13	ProbeTrack	10.4	SCS215a	20100707.101016	20100707.101253	8	0.013328	60	10	60-180	60	120	GapExp	0	25	2	1	1	target	1	560	720	30023	13.328	13.293	13.363
ProbeTrackDT01	13	ProbeTrack	10.4	SCS215a	20100707.101016	20100707.101258	8	0.013328	60	10	60-180	60	170	GapExp	0	26	2	2	0	distractor	1	587	707	30730	13.328	13.292	13.363
ProbeTrackDT01	13	ProbeTrack	10.4	SCS215a	20100707.101016	20100707.101304	8	0.013328	60	10	60-180	60	142	GapExp	0	27	2	1	0	distractor	1	680	660	31390	13.328	13.293	13.363
ProbeTrackDT01	13	ProbeTrack	10.4	SCS215a	20100707.101016	20100707.101310	8	0.013328	60	10	60-180	60	154	GapExp	0	28	2	0	0	distractor	1	613	694	32084	13.328	13.293	13.363
ProbeTrackDT01	13	ProbeTrack	10.4	SCS215a	20100707.101016	20100707.101317	8	0.013328	60	10	60-180	60	173	GapExp	0	29	2	4	1	target	1	773	614	32698	13.328	13.293	13.368
ProbeTrackDT01	13	ProbeTrack	10.4	SCS215a	20100707.101016	20100707.101323	8	0.013328	60	10	60-180	60	152	GapExp	0	30	2	4	0	distractor	1	547	727	33425	13.328	13.292	13.363
ProbeTrackDT01	13	ProbeTrack	10.4	SCS215a	20100707.101016	20100707.101329	8	0.013328	60	10	60-180	60	177	GapExp	0	31	2	2	1	target	1	707	647	34072	13.328	13.293	13.366
ProbeTrackDT01	13	ProbeTrack	10.4	SCS215a	20100707.101016	20100707.101336	8	0.013328	60	10	60-180	60	61	GapExp	0	32	2	1	0	distractor	1	613	694	34766	13.328	13.293	13.363
ProbeTrackDT01	13	ProbeTrack	10.4	SCS215a	20100707.101016	20100707.101341	8	0.013328	60	10	60-180	60	157	GapExp	0	33	2	75	0	distractor	1	507	747	35513	13.328	13.217	13.439
ProbeTrackDT01	13	ProbeTrack	10.4	SCS215a	20100707.101016	20100707.101348	8	0.013328	60	10	60-180	60	76	GapExp	0	34	2	1	0	distractor	1	907	547	36060	13.328	13.293	13.363
ProbeTrackDT01	13	ProbeTrack	10.4	SCS215a	20100707.101016	20100707.101353	8	0.013328	60	10	60-180	60	102	GapExp	0	35	2	1	1	distractor	0	827	-1000	35060	13.328	13.293	13.363
ProbeTrackDT01	13	ProbeTrack	10.4	SCS215a	20100707.101016	20100707.101359	8	0.013328	60	10	60-180	60	170	GapExp	0	36	2	75	1	target	1	454	773	35833	13.328	13.113	13.543
ProbeTrackDT01	13	ProbeTrack	10.4	SCS215a	20100707.101016	20100707.101406	8	0.013328	60	10	60-180	60	104	GapExp	0	37	2	2	0	distractor	1	653	674	36507	13.328	13.217	13.472
ProbeTrackDT01	13	ProbeTrack	10.4	SCS215a	20100707.101016	20100707.101411	8	0.013328	60	10	60-180	60	105	GapExp	0	38	2	0	1	target	1	680	660	37167	13.328	13.290	13.366
ProbeTrackDT01	13	ProbeTrack	10.4	SCS215a	20100707.101016	20100707.101417	8	0.013328	60	10	60-180	60	160	GapExp	0	39	2	75	1	distractor	0	840	-1000	36167	13.328	13.293	13.363
ProbeTrackDT01	13	ProbeTrack	10.4	SCS215a	20100707.101016	20100707.101424	8	0.013328	60	10	60-180	60	130	GapExp	0	40	2	4	0	distractor	1	587	707	36874	13.428	13.293	39.984
ProbeTrackDT01	13	ProbeTrack	10.4	SCS215a	20100707.101016	20100707.101430	8	0.013328	60	10	60-180	60	138	GapExp	0	41	2	4	1	target	1	867	567	37441	13.328	13.293	13.363
ProbeTrackDT01	13	ProbeTrack	10.4	SCS215a	20100707.101016	20100707.101436	8	0.013328	60	10	60-180	60	116	GapExp	0	42	2	75	0	distractor	1	707	647	38088	13.328	13.283	13.373
ProbeTrackDT01	13	ProbeTrack	10.4	SCS215a	20100707.101016	20100707.101443	8	0.013328	60	10	60-180	60	71	GapExp	0	43	2	0	1	target	1	867	567	38655	13.328	13.293	13.363
ProbeTrackDT01	13	ProbeTrack	10.4	SCS215a	20100707.101016	20100707.101448	8	0.013328	60	10	60-180	60	174	GapExp	0	44	2	4	1	distractor	0	1040	-1000	37655	13.328	13.073	13.582
ProbeTrackDT01	13	ProbeTrack	10.4	SCS215a	20100707.101016	20100707.101455	8	0.013328	60	10	60-180	60	146	GapExp	0	45	2	2	1	target	1	574	713	38368	13.328	13.293	13.363
ProbeTrackDT01	13	ProbeTrack	10.4	SCS215a	20100707.101016	20100707.101501	8	0.013328	60	10	60-180	60	153	GapExp	0	46	2	75	0	distractor	1	573	714	39082	13.328	13.135	13.487
ProbeTrackDT01	13	ProbeTrack	10.4	SCS215a	20100707.101016	20100707.101508	8	0.013328	60	10	60-180	60	167	GapExp	0	47	2	2	1	target	1	747	627	39709	13.328	13.293	13.386
ProbeTrackDT01	13	ProbeTrack	10.4	SCS215a	20100707.101016	20100707.101514	8	0.013328	60	10	60-180	60	147	GapExp	0	48	2	2	0	target	0	747	-1000	38709	13.328	13.200	13.424
ProbeTrackDT01	13	ProbeTrack	10.4	SCS215a	20100707.101016	20100707.101520	8	0.013328	60	10	60-180	60	156	GapExp	0	49	2	0	1	target	1	1053	474	39183	13.328	13.046	13.610
ProbeTrackDT01	13	ProbeTrack	10.4	SCS215a	20100707.101016	20100707.101527	8	0.013328	60	10	60-180	60	99	GapExp	0	50	2	75	0	distractor	1	787	607	39790	13.328	13.293	13.363
ProbeTrackDT01	13	ProbeTrack	10.4	SCS215a	20100707.101016	20100707.101546	8	0.013328	60	10	60-180	60	145	GapExp	0	51	2	4	1	distractor	0	773	-1000	38790	13.328	13.293	13.363
ProbeTrackDT01	13	ProbeTrack	10.4	SCS215a	20100707.101016	20100707.101552	8	0.013328	60	10	60-180	60	133	GapExp	0	52	2	2	0	target	0	640	-1000	37790	13.377	13.286	26.656
ProbeTrackDT01	13	ProbeTrack	10.4	SCS215a	20100707.101016	20100707.101558	8	0.013328	60	10	60-180	60	74	GapExp	0	53	2	2	1	target	1	574	713	38503	13.328	12.951	13.704
ProbeTrackDT01	13	ProbeTrack	10.4	SCS215a	20100707.101016	20100707.101603	8	0.013328	60	10	60-180	60	67	GapExp	0	54	2	75	0	distractor	1	560	720	39223	13.328	13.293	13.363
ProbeTrackDT01	13	ProbeTrack	10.4	SCS215a	20100707.101016	20100707.101609	8	0.013328	60	10	60-180	60	149	GapExp	0	55	2	2	0	target	0	734	-1000	38223	13.328	13.293	13.363
ProbeTrackDT01	13	ProbeTrack	10.4	SCS215a	20100707.101016	20100707.101615	8	0.013328	60	10	60-180	60	73	GapExp	0	56	2	4	0	target	0	867	-1000	37223	13.328	13.061	13.596
ProbeTrackDT01	13	ProbeTrack	10.4	SCS215a	20100707.101016	20100707.101621	8	0.013328	60	10	60-180	60	153	GapExp	0	57	2	1	1	target	1	733	634	37857	13.328	13.293	13.364
ProbeTrackDT01	13	ProbeTrack	10.4	SCS215a	20100707.101016	20100707.101627	8	0.013328	60	10	60-180	60	148	GapExp	0	58	2	0	1	target	1	520	740	38597	13.328	13.074	13.582
ProbeTrackDT01	13	ProbeTrack	10.4	SCS215a	20100707.101016	20100707.101633	8	0.013328	60	10	60-180	60	111	GapExp	0	59	2	1	0	target	0	467	-1000	37597	13.328	13.293	13.363
ProbeTrackDT01	13	ProbeTrack	10.4	SCS215a	20100707.101016	20100707.101638	8	0.013328	60	10	60-180	60	99	GapExp	0	60	2	1	0	target	0	640	-1000	36597	13.328	13.293	13.363
ProbeTrackDT01	13	ProbeTrack	10.4	SCS215a	20100707.101016	20100707.101643	8	0.013328	60	10	60-180	60	71	GapExp	0	61	2	75	1	target	1	627	687	37284	13.328	13.293	13.363
ProbeTrackDT01	13	ProbeTrack	10.4	SCS215a	20100707.101016	20100707.101649	8	0.013328	60	10	60-180	60	161	GapExp	0	62	2	4	1	target	1	534	733	38017	13.328	13.293	13.363
ProbeTrackDT01	13	ProbeTrack	10.4	SCS215a	20100707.101016	20100707.101656	8	0.013328	60	10	60-180	60	117	GapExp	0	63	2	2	0	target	0	680	-1000	37017	13.328	13.293	13.363
ProbeTrackDT01	13	ProbeTrack	10.4	SCS215a	20100707.101016	20100707.101701	8	0.013328	60	10	60-180	60	132	GapExp	0	64	2	2	0	distractor	1	720	640	37657	13.328	13.293	13.363
ProbeTrackDT01	13	ProbeTrack	10.4	SCS215a	20100707.101016	20100707.101707	8	0.013328	60	10	60-180	60	84	GapExp	0	65	2	75	1	target	1	547	727	38384	13.328	13.244	13.445
ProbeTrackDT01	13	ProbeTrack	10.4	SCS215a	20100707.101016	20100707.101713	8	0.013328	60	10	60-180	60	108	GapExp	0	66	2	4	1	target	1	667	667	39051	13.328	13.293	13.363
ProbeTrackDT01	13	ProbeTrack	10.4	SCS215a	20100707.101016	20100707.101719	8	0.013328	60	10	60-180	60	109	GapExp	0	67	2	75	0	distractor	1	560	720	39771	13.328	13.217	13.438
ProbeTrackDT01	13	ProbeTrack	10.4	SCS215a	20100707.101016	20100707.101725	8	0.013328	60	10	60-180	60	111	GapExp	0	68	2	2	1	target	1	653	674	40445	13.328	13.269	13.363
ProbeTrackDT01	13	ProbeTrack	10.4	SCS215a	20100707.101016	20100707.101731	8	0.013328	60	10	60-180	60	143	GapExp	0	69	2	2	0	distractor	1	560	720	41165	13.328	13.170	13.487
ProbeTrackDT01	13	ProbeTrack	10.4	SCS215a	20100707.101016	20100707.101737	8	0.013328	60	10	60-180	60	85	GapExp	0	70	2	1	1	target	1	733	634	41799	13.328	13.292	13.364
ProbeTrackDT01	13	ProbeTrack	10.4	SCS215a	20100707.101016	20100707.101742	8	0.013328	60	10	60-180	60	161	GapExp	0	71	2	0	0	distractor	1	600	700	42499	13.328	13.156	13.466
ProbeTrackDT01	13	ProbeTrack	10.4	SCS215a	20100707.101016	20100707.101749	8	0.013328	60	10	60-180	60	138	GapExp	0	72	2	4	0	target	0	547	-1000	41499	13.328	13.293	13.363
ProbeTrackDT01	13	ProbeTrack	10.4	SCS215a	20100707.101016	20100707.101754	8	0.013328	60	10	60-180	60	117	GapExp	0	73	2	4	1	target	1	640	680	42179	13.328	13.293	13.363
ProbeTrackDT01	13	ProbeTrack	10.4	SCS215a	20100707.101016	20100707.101800	8	0.013328	60	10	60-180	60	102	GapExp	0	74	2	0	0	distractor	1	573	714	42893	13.328	13.293	13.363
ProbeTrackDT01	13	ProbeTrack	10.4	SCS215a	20100707.101016	20100707.101805	8	0.013328	60	10	60-180	60	173	GapExp	0	75	2	1	0	distractor	1	547	727	43620	13.328	13.293	13.363
ProbeTrackDT01	13	ProbeTrack	10.4	SCS215a	20100707.101016	20100707.101812	8	0.013328	60	10	60-180	60	134	GapExp	0	76	2	2	0	distractor	1	1067	467	44087	13.328	13.117	13.505
ProbeTrackDT01	13	ProbeTrack	10.4	SCS215a	20100707.101016	20100707.101818	8	0.013328	60	10	60-180	60	104	GapExp	0	77	2	4	0	distractor	1	520	740	44827	13.328	13.293	13.363
ProbeTrackDT01	13	ProbeTrack	10.4	SCS215a	20100707.101016	20100707.101823	8	0.013328	60	10	60-180	60	81	GapExp	0	78	2	2	1	target	1	840	580	45407	13.328	13.290	13.367
ProbeTrackDT01	13	ProbeTrack	10.4	SCS215a	20100707.101016	20100707.101829	8	0.013328	60	10	60-180	60	78	GapExp	0	79	2	2	0	distractor	1	627	687	46094	13.328	13.293	13.363
ProbeTrackDT01	13	ProbeTrack	10.4	SCS215a	20100707.101016	20100707.101834	8	0.013328	60	10	60-180	60	62	GapExp	0	80	2	75	1	target	1	640	680	46774	13.328	13.293	13.364
ProbeTrackDT01	13	ProbeTrack	10.4	SCS215a	20100707.101016	20100707.101840	8	0.013328	60	10	60-180	60	135	GapExp	0	81	2	0	0	distractor	1	560	720	47494	13.328	13.059	13.596
ProbeTrackDT01	13	ProbeTrack	10.4	SCS215a	20100707.101016	20100707.101846	8	0.013328	60	10	60-180	60	98	GapExp	0	82	2	4	1	distractor	0	1053	-1000	46494	13.328	13.292	13.366
ProbeTrackDT01	13	ProbeTrack	10.4	SCS215a	20100707.101016	20100707.101851	8	0.013328	60	10	60-180	60	133	GapExp	0	83	2	1	1	target	1	707	647	47141	13.328	13.293	13.363
ProbeTrackDT01	13	ProbeTrack	10.4	SCS215a	20100707.101016	20100707.101857	8	0.013328	60	10	60-180	60	82	GapExp	0	84	2	1	0	distractor	1	467	767	47908	13.328	13.293	13.363
ProbeTrackDT01	13	ProbeTrack	10.4	SCS215a	20100707.101016	20100707.101902	8	0.013328	60	10	60-180	60	164	GapExp	0	85	2	0	0	distractor	1	1013	494	48402	13.328	13.289	13.363
ProbeTrackDT01	13	ProbeTrack	10.4	SCS215a	20100707.101016	20100707.101909	8	0.013328	60	10	60-180	60	100	GapExp	0	86	2	2	0	target	0	613	-1000	47402	13.328	13.276	13.375
ProbeTrackDT01	13	ProbeTrack	10.4	SCS215a	20100707.101016	20100707.101914	8	0.013328	60	10	60-180	60	166	GapExp	0	87	2	0	0	distractor	1	454	773	48175	13.328	13.290	13.366
ProbeTrackDT01	13	ProbeTrack	10.4	SCS215a	20100707.101016	20100707.101921	8	0.013328	60	10	60-180	60	93	GapExp	0	88	2	0	0	distractor	1	627	687	48862	13.328	13.063	13.594
ProbeTrackDT01	13	ProbeTrack	10.4	SCS215a	20100707.101016	20100707.101926	8	0.013328	60	10	60-180	60	92	GapExp	0	89	2	75	1	target	1	773	614	49476	13.328	13.166	13.489
ProbeTrackDT01	13	ProbeTrack	10.4	SCS215a	20100707.101016	20100707.101932	8	0.013328	60	10	60-180	60	83	GapExp	0	90	2	0	1	target	1	693	654	50130	13.328	13.292	13.363
ProbeTrackDT01	13	ProbeTrack	10.4	SCS215a	20100707.101016	20100707.101937	8	0.013328	60	10	60-180	60	102	GapExp	0	91	2	0	0	distractor	1	640	680	50810	13.328	13.293	13.363
ProbeTrackDT01	13	ProbeTrack	10.4	SCS215a	20100707.101016	20100707.101943	8	0.013328	60	10	60-180	60	88	GapExp	0	92	2	0	1	target	1	987	507	51317	13.328	13.293	13.363
ProbeTrackDT01	13	ProbeTrack	10.4	SCS215a	20100707.101016	20100707.101948	8	0.013328	60	10	60-180	60	153	GapExp	0	93	2	4	1	target	1	574	713	52030	13.328	13.288	13.364
ProbeTrackDT01	13	ProbeTrack	10.4	SCS215a	20100707.101016	20100707.101955	8	0.013328	60	10	60-180	60	144	GapExp	0	94	2	1	1	distractor	0	787	-1000	51030	13.328	12.895	13.728
ProbeTrackDT01	13	ProbeTrack	10.4	SCS215a	20100707.101016	20100707.102001	8	0.013328	60	10	60-180	60	122	GapExp	0	95	2	1	1	target	1	574	713	51743	13.328	13.293	13.363
ProbeTrackDT01	13	ProbeTrack	10.4	SCS215a	20100707.101016	20100707.102006	8	0.013328	60	10	60-180	60	148	GapExp	0	96	2	1	1	target	1	600	700	52443	13.328	13.290	13.363
ProbeTrackDT01	13	ProbeTrack	10.4	SCS215a	20100707.101016	20100707.102012	8	0.013328	60	10	60-180	60	90	GapExp	0	97	2	1	0	distractor	1	654	673	53116	13.328	13.209	13.481
ProbeTrackDT01	13	ProbeTrack	10.4	SCS215a	20100707.101016	20100707.102018	8	0.013328	60	10	60-180	60	174	GapExp	0	98	2	75	1	target	1	480	760	53876	13.328	13.254	13.369
ProbeTrackDT01	13	ProbeTrack	10.4	SCS215a	20100707.101016	20100707.102025	8	0.013328	60	10	60-180	60	97	GapExp	0	99	2	75	0	distractor	1	534	733	54609	13.328	13.205	13.451
ProbeTrackDT01	13	ProbeTrack	10.4	SCS215a	20100707.101016	20100707.102031	8	0.013328	60	10	60-180	60	72	GapExp	0	100	2	0	1	target	1	547	727	55336	13.328	13.293	13.363
ProbeTrackDT01	13	ProbeTrack	10.4	SCS215a	20100707.101016	20100707.102051	8	0.013328	60	10	60-180	60	168	GapExp	0	101	2	2	1	target	1	640	680	56016	13.328	13.001	13.655
ProbeTrackDT01	13	ProbeTrack	10.4	SCS215a	20100707.101016	20100707.102058	8	0.013328	60	10	60-180	60	80	GapExp	0	102	2	4	0	distractor	1	720	640	56656	13.328	13.293	13.363
ProbeTrackDT01	13	ProbeTrack	10.4	SCS215a	20100707.101016	20100707.102103	8	0.013328	60	10	60-180	60	83	GapExp	0	103	2	75	0	distractor	1	547	727	57383	13.328	13.167	13.487
ProbeTrackDT01	13	ProbeTrack	10.4	SCS215a	20100707.101016	20100707.102109	8	0.013328	60	10	60-180	60	109	GapExp	0	104	2	75	0	distractor	1	747	627	58010	13.328	13.155	13.501
ProbeTrackDT01	13	ProbeTrack	10.4	SCS215a	20100707.101016	20100707.102116	8	0.013328	60	10	60-180	60	125	GapExp	0	105	2	0	0	target	0	720	-1000	57010	13.328	13.293	13.364
ProbeTrackDT01	13	ProbeTrack	10.4	SCS215a	20100707.101016	20100707.102121	8	0.013328	60	10	60-180	60	157	GapExp	0	106	2	2	1	target	1	613	694	57704	13.328	13.270	13.418
ProbeTrackDT01	13	ProbeTrack	10.4	SCS215a	20100707.101016	20100707.102128	8	0.013328	60	10	60-180	60	61	GapExp	0	107	2	4	0	target	0	627	-1000	56704	13.328	12.956	13.699
ProbeTrackDT01	13	ProbeTrack	10.4	SCS215a	20100707.101016	20100707.102132	8	0.013328	60	10	60-180	60	101	GapExp	0	108	2	1	0	distractor	1	573	714	57418	13.328	13.239	13.418
ProbeTrackDT01	13	ProbeTrack	10.4	SCS215a	20100707.101016	20100707.102138	8	0.013328	60	10	60-180	60	142	GapExp	0	109	2	4	1	target	1	520	740	58158	13.328	13.293	13.363
ProbeTrackDT01	13	ProbeTrack	10.4	SCS215a	20100707.101016	20100707.102144	8	0.013328	60	10	60-180	60	155	GapExp	0	110	2	4	0	distractor	1	733	634	58792	13.638	13.110	27.188
ProbeTrackDT01	13	ProbeTrack	10.4	SCS215a	20100707.101016	20100707.102150	8	0.013328	60	10	60-180	60	88	GapExp	0	111	2	75	0	target	0	707	-1000	57792	13.328	13.293	13.363
ProbeTrackDT01	13	ProbeTrack	10.4	SCS215a	20100707.101016	20100707.102156	8	0.013328	60	10	60-180	60	110	GapExp	0	112	2	2	1	target	1	600	700	58492	13.328	13.293	13.363
ProbeTrackDT01	13	ProbeTrack	10.4	SCS215a	20100707.101016	20100707.102202	8	0.013328	60	10	60-180	60	151	GapExp	0	113	2	4	0	distractor	1	480	760	59252	13.328	13.293	13.368
ProbeTrackDT01	13	ProbeTrack	10.4	SCS215a	20100707.101016	20100707.102208	8	0.013328	60	10	60-180	60	157	GapExp	0	114	2	1	1	target	1	613	694	59946	13.328	13.292	13.363
ProbeTrackDT01	13	ProbeTrack	10.4	SCS215a	20100707.101016	20100707.102214	8	0.013328	60	10	60-180	60	177	GapExp	0	115	2	75	1	target	1	534	733	60679	13.328	13.168	13.526
ProbeTrackDT01	13	ProbeTrack	10.4	SCS215a	20100707.101016	20100707.102222	8	0.013328	60	10	60-180	60	115	GapExp	0	116	2	4	0	distractor	1	507	747	61426	13.328	13.222	13.400
ProbeTrackDT01	13	ProbeTrack	10.4	SCS215a	20100707.101016	20100707.102227	8	0.013328	60	10	60-180	60	74	GapExp	0	117	2	2	1	target	1	614	693	62119	13.328	13.293	13.363
ProbeTrackDT01	13	ProbeTrack	10.4	SCS215a	20100707.101016	20100707.102232	8	0.013328	60	10	60-180	60	160	GapExp	0	118	2	1	1	distractor	0	760	-1000	61119	13.328	13.293	13.363
ProbeTrackDT01	13	ProbeTrack	10.4	SCS215a	20100707.101016	20100707.102239	8	0.013328	60	10	60-180	60	140	GapExp	0	119	2	2	1	target	1	573	714	61833	13.328	13.290	13.363
ProbeTrackDT01	13	ProbeTrack	10.4	SCS215a	20100707.101016	20100707.102245	8	0.013328	60	10	60-180	60	133	GapExp	0	120	2	4	0	target	0	547	-1000	60833	13.328	13.162	13.461
ProbeTrackDT01	13	ProbeTrack	10.4	SCS215a	20100707.101016	20100707.102250	8	0.013328	60	10	60-180	60	67	GapExp	0	121	2	0	1	distractor	0	520	-1000	59833	13.397	13.151	26.474
ProbeTrackDT01	13	ProbeTrack	10.4	SCS215a	20100707.101016	20100707.102255	8	0.013328	60	10	60-180	60	68	GapExp	0	122	2	75	1	target	1	494	753	60586	13.328	13.293	13.363
ProbeTrackDT01	13	ProbeTrack	10.4	SCS215a	20100707.101016	20100707.102301	8	0.013328	60	10	60-180	60	77	GapExp	0	123	2	4	0	distractor	1	693	654	61240	13.328	13.276	13.380
ProbeTrackDT01	13	ProbeTrack	10.4	SCS215a	20100707.101016	20100707.102306	8	0.013328	60	10	60-180	60	103	GapExp	0	124	2	4	0	target	0	787	-1000	60240	13.328	13.293	13.363
ProbeTrackDT01	13	ProbeTrack	10.4	SCS215a	20100707.101016	20100707.102312	8	0.013328	60	10	60-180	60	102	GapExp	0	125	2	2	1	target	1	653	674	60914	13.328	13.290	13.363
ProbeTrackDT01	13	ProbeTrack	10.4	SCS215a	20100707.101016	20100707.102317	8	0.013328	60	10	60-180	60	125	GapExp	0	126	2	75	1	target	1	440	780	61694	13.328	13.055	13.600
ProbeTrackDT01	13	ProbeTrack	10.4	SCS215a	20100707.101016	20100707.102324	8	0.013328	60	10	60-180	60	111	GapExp	0	127	2	4	1	target	1	520	740	62434	13.328	13.293	13.363
ProbeTrackDT01	13	ProbeTrack	10.4	SCS215a	20100707.101016	20100707.102329	8	0.013328	60	10	60-180	60	174	GapExp	0	128	2	0	0	distractor	1	1200	400	62834	13.328	13.293	13.363
ProbeTrackDT01	13	ProbeTrack	10.4	SCS215a	20100707.101016	20100707.102336	8	0.013328	60	10	60-180	60	146	GapExp	0	129	2	75	0	distractor	1	654	673	63507	13.328	13.293	13.363
ProbeTrackDT01	13	ProbeTrack	10.4	SCS215a	20100707.101016	20100707.102344	8	0.013328	60	10	60-180	60	83	GapExp	0	130	2	0	0	distractor	1	760	620	64127	13.328	13.293	13.362
ProbeTrackDT01	13	ProbeTrack	10.4	SCS215a	20100707.101016	20100707.102349	8	0.013328	60	10	60-180	60	171	GapExp	0	131	2	0	1	distractor	0	640	-1000	63127	13.328	13.223	13.433
ProbeTrackDT01	13	ProbeTrack	10.4	SCS215a	20100707.101016	20100707.102355	8	0.013328	60	10	60-180	60	180	GapExp	0	132	2	1	0	distractor	1	547	727	63854	13.328	13.254	13.369
ProbeTrackDT01	13	ProbeTrack	10.4	SCS215a	20100707.101016	20100707.102402	8	0.013328	60	10	60-180	60	110	GapExp	0	133	2	2	1	target	1	667	667	64521	13.328	13.293	13.363
ProbeTrackDT01	13	ProbeTrack	10.4	SCS215a	20100707.101016	20100707.102407	8	0.013328	60	10	60-180	60	82	GapExp	0	134	2	75	0	distractor	1	454	773	65294	13.328	13.293	13.363
ProbeTrackDT01	13	ProbeTrack	10.4	SCS215a	20100707.101016	20100707.102413	8	0.013328	60	10	60-180	60	130	GapExp	0	135	2	75	0	distractor	1	440	780	66074	13.328	13.293	13.363
ProbeTrackDT01	13	ProbeTrack	10.4	SCS215a	20100707.101016	20100707.102420	8	0.013328	60	10	60-180	60	147	GapExp	0	136	2	75	0	distractor	1	560	720	66794	13.328	13.293	13.363
ProbeTrackDT01	13	ProbeTrack	10.4	SCS215a	20100707.101016	20100707.102427	8	0.013328	60	10	60-180	60	147	GapExp	0	137	2	4	1	target	1	613	694	67488	13.328	13.047	13.576
ProbeTrackDT01	13	ProbeTrack	10.4	SCS215a	20100707.101016	20100707.102433	8	0.013328	60	10	60-180	60	91	GapExp	0	138	2	4	0	distractor	1	547	727	68215	13.328	13.293	13.363
ProbeTrackDT01	13	ProbeTrack	10.4	SCS215a	20100707.101016	20100707.102438	8	0.013328	60	10	60-180	60	74	GapExp	0	139	2	1	1	target	1	600	700	68915	13.328	13.293	13.363
ProbeTrackDT01	13	ProbeTrack	10.4	SCS215a	20100707.101016	20100707.102443	8	0.013328	60	10	60-180	60	131	GapExp	0	140	2	75	1	target	1	427	787	69702	13.328	13.293	13.363
ProbeTrackDT01	13	ProbeTrack	10.4	SCS215a	20100707.101016	20100707.102450	8	0.013328	60	10	60-180	60	154	GapExp	0	141	2	1	0	distractor	1	613	694	70396	13.328	13.013	13.642
ProbeTrackDT01	13	ProbeTrack	10.4	SCS215a	20100707.101016	20100707.102456	8	0.013328	60	10	60-180	60	139	GapExp	0	142	2	4	0	distractor	1	520	740	71136	13.328	13.293	13.365
ProbeTrackDT01	13	ProbeTrack	10.4	SCS215a	20100707.101016	20100707.102502	8	0.013328	60	10	60-180	60	139	GapExp	0	143	2	0	0	target	0	627	-1000	70136	13.328	13.292	13.363
ProbeTrackDT01	13	ProbeTrack	10.4	SCS215a	20100707.101016	20100707.102508	8	0.013328	60	10	60-180	60	63	GapExp	0	144	2	4	1	target	1	507	747	70883	13.328	13.242	13.414
ProbeTrackDT01	13	ProbeTrack	10.4	SCS215a	20100707.101016	20100707.102513	8	0.013328	60	10	60-180	60	111	GapExp	0	145	2	0	0	distractor	1	534	733	71616	13.328	13.293	13.363
ProbeTrackDT01	13	ProbeTrack	10.4	SCS215a	20100707.101016	20100707.102518	8	0.013328	60	10	60-180	60	97	GapExp	0	146	2	4	1	target	1	507	747	72363	13.328	13.292	13.363
ProbeTrackDT01	13	ProbeTrack	10.4	SCS215a	20100707.101016	20100707.102523	8	0.013328	60	10	60-180	60	116	GapExp	0	147	2	1	0	distractor	1	454	773	73136	13.328	13.123	13.532
ProbeTrackDT01	13	ProbeTrack	10.4	SCS215a	20100707.101016	20100707.102529	8	0.013328	60	10	60-180	60	70	GapExp	0	148	2	2	0	distractor	1	667	667	73803	13.328	13.293	13.363
ProbeTrackDT01	13	ProbeTrack	10.4	SCS215a	20100707.101016	20100707.102534	8	0.013328	60	10	60-180	60	78	GapExp	0	149	2	0	1	target	1	560	720	74523	13.328	13.154	13.503
ProbeTrackDT01	13	ProbeTrack	10.4	SCS215a	20100707.101016	20100707.102539	8	0.013328	60	10	60-180	60	75	GapExp	0	150	2	1	1	target	1	614	693	75216	13.328	13.293	13.362
ProbeTrackDT01	13	ProbeTrack	10.4	SCS215a	20100707.101016	20100707.102551	8	0.013328	60	10	60-180	60	86	GapExp	0	151	2	75	0	distractor	1	587	707	75923	13.328	13.051	13.572
ProbeTrackDT01	13	ProbeTrack	10.4	SCS215a	20100707.101016	20100707.102557	8	0.013328	60	10	60-180	60	95	GapExp	0	152	2	0	1	target	1	520	740	76663	13.328	13.164	13.509
ProbeTrackDT01	13	ProbeTrack	10.4	SCS215a	20100707.101016	20100707.102602	8	0.013328	60	10	60-180	60	97	GapExp	0	153	2	2	1	target	1	414	793	77456	13.328	13.293	13.362
ProbeTrackDT01	13	ProbeTrack	10.4	SCS215a	20100707.101016	20100707.102607	8	0.013328	60	10	60-180	60	61	GapExp	0	154	2	75	1	target	1	1280	360	77816	13.328	13.290	13.363
ProbeTrackDT01	13	ProbeTrack	10.4	SCS215a	20100707.101016	20100707.102614	8	0.013328	60	10	60-180	60	129	GapExp	0	155	2	75	1	target	1	480	760	78576	13.328	12.952	13.670
ProbeTrackDT01	13	ProbeTrack	10.4	SCS215a	20100707.101016	20100707.102620	8	0.013328	60	10	60-180	60	167	GapExp	0	156	2	0	1	target	1	1200	400	78976	13.328	13.105	13.584
ProbeTrackDT01	13	ProbeTrack	10.4	SCS215a	20100707.101016	20100707.102627	8	0.013328	60	10	60-180	60	62	GapExp	0	157	2	0	1	target	1	667	667	79643	13.328	13.293	13.363
ProbeTrackDT01	13	ProbeTrack	10.4	SCS215a	20100707.101016	20100707.102632	8	0.013328	60	10	60-180	60	110	GapExp	0	158	2	1	1	target	1	454	773	80416	13.328	13.293	13.363
ProbeTrackDT01	13	ProbeTrack	10.4	SCS215a	20100707.101016	20100707.102637	8	0.013328	60	10	60-180	60	83	GapExp	0	159	2	1	1	target	1	560	720	81136	13.328	13.195	13.496
ProbeTrackDT01	13	ProbeTrack	10.4	SCS215a	20100707.101016	20100707.102642	8	0.013328	60	10	60-180	60	67	GapExp	0	160	2	2	0	target	0	534	-1000	80136	13.328	13.293	13.363
ProbeTrackDT01	13	ProbeTrack	10.4	SCS215a	20100707.101016	20100707.102647	8	0.013328	60	10	60-180	60	148	GapExp	0	161	2	4	1	distractor	0	560	-1000	79136	13.328	13.292	13.363
ProbeTrackDT01	13	ProbeTrack	10.4	SCS215a	20100707.101016	20100707.102653	8	0.013328	60	10	60-180	60	128	GapExp	0	162	2	2	1	target	1	507	747	79883	13.328	13.269	13.370
ProbeTrackDT01	13	ProbeTrack	10.4	SCS215a	20100707.101016	20100707.102659	8	0.013328	60	10	60-180	60	166	GapExp	0	163	2	4	0	distractor	1	840	580	80463	13.328	13.131	13.525
ProbeTrackDT01	13	ProbeTrack	10.4	SCS215a	20100707.101016	20100707.102706	8	0.013328	60	10	60-180	60	120	GapExp	0	164	2	0	0	target	0	667	-1000	79463	13.328	13.293	13.363
ProbeTrackDT01	13	ProbeTrack	10.4	SCS215a	20100707.101016	20100707.102711	8	0.013328	60	10	60-180	60	92	GapExp	0	165	2	75	0	distractor	1	494	753	80216	13.328	13.293	13.363
ProbeTrackDT01	13	ProbeTrack	10.4	SCS215a	20100707.101016	20100707.102717	8	0.013328	60	10	60-180	60	147	GapExp	0	166	2	0	0	distractor	1	587	707	80923	13.328	13.292	13.366
ProbeTrackDT01	13	ProbeTrack	10.4	SCS215a	20100707.101016	20100707.102723	8	0.013328	60	10	60-180	60	76	GapExp	0	167	2	2	0	distractor	1	733	634	81557	13.328	13.293	13.364
ProbeTrackDT01	13	ProbeTrack	10.4	SCS215a	20100707.101016	20100707.102729	8	0.013328	60	10	60-180	60	172	GapExp	0	168	2	1	0	distractor	1	947	527	82084	13.328	13.005	13.649
ProbeTrackDT01	13	ProbeTrack	10.4	SCS215a	20100707.101016	20100707.102735	8	0.013328	60	10	60-180	60	63	GapExp	0	169	2	2	0	distractor	1	867	567	82651	13.328	13.293	13.363
ProbeTrackDT01	13	ProbeTrack	10.4	SCS215a	20100707.101016	20100707.102741	8	0.013328	60	10	60-180	60	141	GapExp	0	170	2	2	0	distractor	1	733	634	83285	13.328	12.932	13.724
ProbeTrackDT01	13	ProbeTrack	10.4	SCS215a	20100707.101016	20100707.102747	8	0.013328	60	10	60-180	60	148	GapExp	0	171	2	1	0	distractor	1	720	640	83925	13.328	13.293	13.363
ProbeTrackDT01	13	ProbeTrack	10.4	SCS215a	20100707.101016	20100707.102753	8	0.013328	60	10	60-180	60	152	GapExp	0	172	2	4	1	target	1	707	647	84572	13.328	13.292	13.364
ProbeTrackDT01	13	ProbeTrack	10.4	SCS215a	20100707.101016	20100707.102759	8	0.013328	60	10	60-180	60	91	GapExp	0	173	2	1	1	distractor	0	840	-1000	83572	13.328	13.122	13.502
ProbeTrackDT01	13	ProbeTrack	10.4	SCS215a	20100707.101016	20100707.102805	8	0.013328	60	10	60-180	60	137	GapExp	0	174	2	0	0	target	0	667	-1000	82572	13.328	13.293	13.364
ProbeTrackDT01	13	ProbeTrack	10.4	SCS215a	20100707.101016	20100707.102811	8	0.013328	60	10	60-180	60	127	GapExp	0	175	2	0	0	distractor	1	653	674	83246	13.328	13.269	13.363
ProbeTrackDT01	13	ProbeTrack	10.4	SCS215a	20100707.101016	20100707.102816	8	0.013328	60	10	60-180	60	74	GapExp	0	176	2	2	1	target	1	1040	480	83726	13.328	13.293	13.363
ProbeTrackDT01	13	ProbeTrack	10.4	SCS215a	20100707.101016	20100707.102822	8	0.013328	60	10	60-180	60	156	GapExp	0	177	2	75	1	target	1	454	773	84499	13.328	13.291	13.363
ProbeTrackDT01	13	ProbeTrack	10.4	SCS215a	20100707.101016	20100707.102829	8	0.013328	60	10	60-180	60	84	GapExp	0	178	2	4	0	distractor	1	653	674	85173	13.328	13.193	13.464
ProbeTrackDT01	13	ProbeTrack	10.4	SCS215a	20100707.101016	20100707.102834	8	0.013328	60	10	60-180	60	130	GapExp	0	179	2	0	1	target	1	800	600	85773	13.328	12.999	13.657
ProbeTrackDT01	13	ProbeTrack	10.4	SCS215a	20100707.101016	20100707.102840	8	0.013328	60	10	60-180	60	141	GapExp	0	180	2	0	1	target	1	560	720	86493	13.328	13.191	13.432
ProbeTrackDT01	13	ProbeTrack	10.4	SCS215a	20100707.101016	20100707.102846	8	0.013328	60	10	60-180	60	96	GapExp	0	181	2	1	1	target	1	507	747	87240	13.328	13.019	13.604
ProbeTrackDT01	13	ProbeTrack	10.4	SCS215a	20100707.101016	20100707.102851	8	0.013328	60	10	60-180	60	150	GapExp	0	182	2	75	1	target	1	427	787	88027	13.328	13.293	13.396
ProbeTrackDT01	13	ProbeTrack	10.4	SCS215a	20100707.101016	20100707.102858	8	0.013328	60	10	60-180	60	168	GapExp	0	183	2	0	1	target	1	454	773	88800	13.328	13.109	13.581
ProbeTrackDT01	13	ProbeTrack	10.4	SCS215a	20100707.101016	20100707.102904	8	0.013328	60	10	60-180	60	81	GapExp	0	184	2	0	1	target	1	494	753	89553	13.328	13.293	13.364
ProbeTrackDT01	13	ProbeTrack	10.4	SCS215a	20100707.101016	20100707.102909	8	0.013328	60	10	60-180	60	132	GapExp	0	185	2	2	1	target	1	427	787	90340	13.328	13.293	13.363
ProbeTrackDT01	13	ProbeTrack	10.4	SCS215a	20100707.101016	20100707.102915	8	0.013328	60	10	60-180	60	116	GapExp	0	186	2	2	0	target	0	627	-1000	89340	13.328	13.043	13.612
ProbeTrackDT01	13	ProbeTrack	10.4	SCS215a	20100707.101016	20100707.102920	8	0.013328	60	10	60-180	60	81	GapExp	0	187	2	0	1	target	1	467	767	90107	13.328	13.293	13.363
ProbeTrackDT01	13	ProbeTrack	10.4	SCS215a	20100707.101016	20100707.102925	8	0.013328	60	10	60-180	60	120	GapExp	0	188	2	2	1	target	1	507	747	90854	13.328	13.094	13.542
ProbeTrackDT01	13	ProbeTrack	10.4	SCS215a	20100707.101016	20100707.102931	8	0.013328	60	10	60-180	60	129	GapExp	0	189	2	75	0	distractor	1	480	760	91614	13.328	13.280	13.363
ProbeTrackDT01	13	ProbeTrack	10.4	SCS215a	20100707.101016	20100707.102937	8	0.013328	60	10	60-180	60	152	GapExp	0	190	2	4	1	target	1	414	793	92407	13.328	13.259	13.365
ProbeTrackDT01	13	ProbeTrack	10.4	SCS215a	20100707.101016	20100707.102943	8	0.013328	60	10	60-180	60	157	GapExp	0	191	2	1	0	distractor	1	1147	427	92834	13.328	13.291	13.363
ProbeTrackDT01	13	ProbeTrack	10.4	SCS215a	20100707.101016	20100707.102950	8	0.013328	60	10	60-180	60	145	GapExp	0	192	2	2	0	distractor	1	600	700	93534	13.328	13.293	13.363
ProbeTrackDT01	13	ProbeTrack	10.4	SCS215a	20100707.101016	20100707.102956	8	0.013328	60	10	60-180	60	102	GapExp	0	193	2	1	0	distractor	1	640	680	94214	13.328	13.293	13.363
ProbeTrackDT01	13	ProbeTrack	10.4	SCS215a	20100707.101016	20100707.103001	8	0.013328	60	10	60-180	60	75	GapExp	0	194	2	4	0	target	0	547	-1000	93214	13.328	13.184	13.506
ProbeTrackDT01	13	ProbeTrack	10.4	SCS215a	20100707.101016	20100707.103006	8	0.013328	60	10	60-180	60	156	GapExp	0	195	2	4	1	target	1	534	733	93947	13.328	13.279	13.363
ProbeTrackDT01	13	ProbeTrack	10.4	SCS215a	20100707.101016	20100707.103012	8	0.013328	60	10	60-180	60	164	GapExp	0	196	2	75	0	distractor	1	480	760	94707	13.328	6.352	20.337
ProbeTrackDT01	13	ProbeTrack	10.4	SCS215a	20100707.101016	20100707.103020	8	0.013328	60	10	60-180	60	131	GapExp	0	197	2	75	1	target	1	534	733	95440	13.328	13.066	13.555
ProbeTrackDT01	13	ProbeTrack	10.4	SCS215a	20100707.101016	20100707.103026	8	0.013328	60	10	60-180	60	92	GapExp	0	198	2	75	1	target	1	787	607	96047	13.328	13.073	13.617
ProbeTrackDT01	13	ProbeTrack	10.4	SCS215a	20100707.101016	20100707.103033	8	0.013328	60	10	60-180	60	131	GapExp	0	199	2	1	1	target	1	747	627	96674	13.328	13.152	13.470
ProbeTrackDT01	13	ProbeTrack	10.4	SCS215a	20100707.101016	20100707.103039	8	0.013328	60	10	60-180	60	166	GapExp	0	200	2	75	1	distractor	0	400	-1000	95674	13.328	13.076	13.580
ProbeTrackDT01	13	ProbeTrack	10.4	SCS215a	20100707.101016	20100707.103057	8	0.013328	60	10	60-180	60	121	GapExp	0	201	2	1	1	target	1	560	720	96394	13.328	13.243	13.410
ProbeTrackDT01	13	ProbeTrack	10.4	SCS215a	20100707.101016	20100707.103102	8	0.013328	60	10	60-180	60	97	GapExp	0	202	2	1	0	distractor	1	560	720	97114	13.328	13.072	13.582
ProbeTrackDT01	13	ProbeTrack	10.4	SCS215a	20100707.101016	20100707.103108	8	0.013328	60	10	60-180	60	95	GapExp	0	203	2	0	0	distractor	1	560	720	97834	13.328	13.174	13.516
ProbeTrackDT01	13	ProbeTrack	10.4	SCS215a	20100707.101016	20100707.103113	8	0.013328	60	10	60-180	60	150	GapExp	0	204	2	4	1	target	1	494	753	98587	13.328	13.293	13.363
ProbeTrackDT01	13	ProbeTrack	10.4	SCS215a	20100707.101016	20100707.103119	8	0.013328	60	10	60-180	60	102	GapExp	0	205	2	2	1	target	1	574	713	99300	13.328	13.035	13.586
ProbeTrackDT01	13	ProbeTrack	10.4	SCS215a	20100707.101016	20100707.103124	8	0.013328	60	10	60-180	60	147	GapExp	0	206	2	75	0	distractor	1	414	793	100093	13.328	12.985	13.671
ProbeTrackDT01	13	ProbeTrack	10.4	SCS215a	20100707.101016	20100707.103131	8	0.013328	60	10	60-180	60	78	GapExp	0	207	2	2	0	target	0	574	-1000	99093	13.328	13.245	13.445
ProbeTrackDT01	13	ProbeTrack	10.4	SCS215a	20100707.101016	20100707.103136	8	0.013328	60	10	60-180	60	126	GapExp	0	208	2	4	0	target	0	547	-1000	98093	13.328	13.293	13.363
ProbeTrackDT01	13	ProbeTrack	10.4	SCS215a	20100707.101016	20100707.103142	8	0.013328	60	10	60-180	60	92	GapExp	0	209	2	4	0	distractor	1	547	727	98820	13.328	13.271	13.363
ProbeTrackDT01	13	ProbeTrack	10.4	SCS215a	20100707.101016	20100707.103147	8	0.013328	60	10	60-180	60	141	GapExp	0	210	2	0	1	target	1	547	727	99547	13.328	13.293	13.363
