exp	sub	code	rev	comp	runtime	trialtime	nstim	refreshdur	cuedur	gapdur	gapOnsetRange	durPostProbe	gapOnsetTime	blocktype	prac	trial	ntargets	soa	probeTarget	resp	acc	rt	pts	tpts	meanFrameDur	minFrameDur	maxFrameDur
ProbeTrackDT01	26	ProbeTrack	10.4	SCS215a	20100715.085105	20100715.085123	8	0.013314	60	0	60-180	60	145	NoGap	1	1	2	2	0	distractor	1	973	514	514	13.328	13.292	13.363
ProbeTrackDT01	26	ProbeTrack	10.4	SCS215a	20100715.085105	20100715.085130	8	0.013314	60	0	60-180	60	150	NoGap	1	2	2	4	1	target	1	1120	440	954	13.328	13.293	13.363
ProbeTrackDT01	26	ProbeTrack	10.4	SCS215a	20100715.085105	20100715.085136	8	0.013314	60	0	60-180	60	64	NoGap	1	3	2	4	1	target	1	627	687	1641	13.328	13.293	13.363
ProbeTrackDT01	26	ProbeTrack	10.4	SCS215a	20100715.085105	20100715.085141	8	0.013314	60	0	60-180	60	93	NoGap	1	4	2	1	1	target	1	627	687	2328	13.328	13.211	13.446
ProbeTrackDT01	26	ProbeTrack	10.4	SCS215a	20100715.085105	20100715.085146	8	0.013314	60	0	60-180	60	143	NoGap	1	5	2	1	0	distractor	1	707	647	2975	13.328	13.293	13.363
ProbeTrackDT01	26	ProbeTrack	10.4	SCS215a	20100715.085105	20100715.085152	8	0.013314	60	0	60-180	60	180	NoGap	1	6	2	0	0	distractor	1	867	567	3542	13.328	13.293	13.363
ProbeTrackDT01	26	ProbeTrack	10.4	SCS215a	20100715.085105	20100715.085159	8	0.013314	60	0	60-180	60	142	NoGap	1	7	2	2	1	target	1	720	640	4182	13.328	13.293	13.363
ProbeTrackDT01	26	ProbeTrack	10.4	SCS215a	20100715.085105	20100715.085205	8	0.013314	60	0	60-180	60	155	NoGap	1	8	2	2	1	target	1	640	680	4862	13.328	13.292	13.363
ProbeTrackDT01	26	ProbeTrack	10.4	SCS215a	20100715.085105	20100715.085211	8	0.013314	60	0	60-180	60	97	NoGap	1	9	2	2	0	distractor	1	720	640	5502	13.328	13.293	13.363
ProbeTrackDT01	26	ProbeTrack	10.4	SCS215a	20100715.085105	20100715.085216	8	0.013314	60	0	60-180	60	67	NoGap	1	10	2	4	0	distractor	1	773	614	6116	13.328	13.293	13.363
ProbeTrackDT01	26	ProbeTrack	10.4	SCS215a	20100715.085105	20100715.085221	8	0.013314	60	0	60-180	60	88	NoGap	1	11	2	1	1	target	1	560	720	6836	13.328	13.292	13.365
ProbeTrackDT01	26	ProbeTrack	10.4	SCS215a	20100715.085105	20100715.085226	8	0.013314	60	0	60-180	60	97	NoGap	1	12	2	0	0	distractor	1	1333	334	7170	13.328	13.292	13.363
ProbeTrackDT01	26	ProbeTrack	10.4	SCS215a	20100715.085105	20100715.085232	8	0.013314	60	0	60-180	60	110	NoGap	1	13	2	4	0	distractor	1	627	687	7857	13.552	13.183	53.338
ProbeTrackDT01	26	ProbeTrack	10.4	SCS215a	20100715.085105	20100715.085238	8	0.013314	60	0	60-180	60	74	NoGap	1	14	2	75	1	target	1	587	707	8564	13.328	13.293	13.363
ProbeTrackDT01	26	ProbeTrack	10.4	SCS215a	20100715.085105	20100715.085243	8	0.013314	60	0	60-180	60	117	NoGap	1	15	2	75	1	target	1	480	760	9324	13.328	13.293	13.363
ProbeTrackDT01	26	ProbeTrack	10.4	SCS215a	20100715.085105	20100715.085250	8	0.013314	60	0	60-180	60	66	NoGap	1	16	2	1	1	target	1	414	793	10117	13.328	13.293	13.363
ProbeTrackDT01	26	ProbeTrack	10.4	SCS215a	20100715.085105	20100715.085254	8	0.013314	60	0	60-180	60	97	NoGap	1	17	2	0	0	distractor	1	507	747	10864	13.454	13.271	26.712
ProbeTrackDT01	26	ProbeTrack	10.4	SCS215a	20100715.085105	20100715.085259	8	0.013314	60	0	60-180	60	146	NoGap	1	18	2	0	1	target	1	454	773	11637	13.328	13.293	13.363
ProbeTrackDT01	26	ProbeTrack	10.4	SCS215a	20100715.085105	20100715.085305	8	0.013314	60	0	60-180	60	162	NoGap	1	19	2	2	1	target	1	667	667	12304	13.328	12.832	13.790
ProbeTrackDT01	26	ProbeTrack	10.4	SCS215a	20100715.085105	20100715.085311	8	0.013314	60	0	60-180	60	118	NoGap	1	20	2	1	0	distractor	1	613	694	12998	13.328	13.173	13.482
ProbeTrackDT01	26	ProbeTrack	10.4	SCS215a	20100715.085105	20100715.085317	8	0.013314	60	0	60-180	60	63	NoGap	1	21	2	75	1	target	1	441	780	13778	13.328	13.293	13.363
ProbeTrackDT01	26	ProbeTrack	10.4	SCS215a	20100715.085105	20100715.085323	8	0.013314	60	0	60-180	60	103	NoGap	1	22	2	4	1	target	1	454	773	14551	13.328	13.281	13.408
ProbeTrackDT01	26	ProbeTrack	10.4	SCS215a	20100715.085105	20100715.085328	8	0.013314	60	0	60-180	60	169	NoGap	1	23	2	75	0	distractor	1	507	747	15298	13.328	13.098	13.591
ProbeTrackDT01	26	ProbeTrack	10.4	SCS215a	20100715.085105	20100715.085335	8	0.013314	60	0	60-180	60	178	NoGap	1	24	2	75	0	distractor	1	600	700	15998	13.328	13.003	13.618
ProbeTrackDT01	26	ProbeTrack	10.4	SCS215a	20100715.085105	20100715.085342	8	0.013314	60	0	60-180	60	72	NoGap	1	25	2	75	0	distractor	1	574	713	16711	13.328	13.213	13.477
ProbeTrackDT01	26	ProbeTrack	10.4	SCS215a	20100715.085105	20100715.085348	8	0.013314	60	0	60-180	60	111	NoGap	1	26	2	4	1	target	1	494	753	17464	13.328	13.293	13.363
ProbeTrackDT01	26	ProbeTrack	10.4	SCS215a	20100715.085105	20100715.085353	8	0.013314	60	0	60-180	60	161	NoGap	1	27	2	2	0	distractor	1	520	740	18204	13.328	13.051	13.638
ProbeTrackDT01	26	ProbeTrack	10.4	SCS215a	20100715.085105	20100715.085359	8	0.013314	60	0	60-180	60	145	NoGap	1	28	2	4	0	distractor	1	960	520	18724	13.328	13.293	13.363
ProbeTrackDT01	26	ProbeTrack	10.4	SCS215a	20100715.085105	20100715.085406	8	0.013314	60	0	60-180	60	164	NoGap	1	29	2	0	1	target	1	600	700	19424	13.328	13.290	13.366
ProbeTrackDT01	26	ProbeTrack	10.4	SCS215a	20100715.085105	20100715.085412	8	0.013314	60	0	60-180	60	62	NoGap	1	30	2	2	1	target	1	467	767	20191	13.328	13.117	13.539
ProbeTrackDT01	26	ProbeTrack	10.4	SCS215a	20100715.085105	20100715.085416	8	0.013314	60	0	60-180	60	117	NoGap	1	31	2	2	0	distractor	1	387	807	20998	13.328	13.066	13.622
ProbeTrackDT01	26	ProbeTrack	10.4	SCS215a	20100715.085105	20100715.085422	8	0.013314	60	0	60-180	60	149	NoGap	1	32	2	0	0	distractor	1	427	787	21785	13.328	13.216	13.438
ProbeTrackDT01	26	ProbeTrack	10.4	SCS215a	20100715.085105	20100715.085427	8	0.013314	60	0	60-180	60	104	NoGap	1	33	2	1	1	target	1	387	807	22592	13.328	13.293	13.363
ProbeTrackDT01	26	ProbeTrack	10.4	SCS215a	20100715.085105	20100715.085433	8	0.013314	60	0	60-180	60	64	NoGap	1	34	2	75	1	target	1	494	753	23345	13.328	13.293	13.363
ProbeTrackDT01	26	ProbeTrack	10.4	SCS215a	20100715.085105	20100715.085438	8	0.013314	60	0	60-180	60	85	NoGap	1	35	2	75	0	distractor	1	480	760	24105	13.328	13.293	13.363
ProbeTrackDT01	26	ProbeTrack	10.4	SCS215a	20100715.085105	20100715.085444	8	0.013314	60	0	60-180	60	141	NoGap	1	36	2	0	1	target	1	520	740	24845	13.328	13.293	13.363
ProbeTrackDT01	26	ProbeTrack	10.4	SCS215a	20100715.085105	20100715.085450	8	0.013314	60	0	60-180	60	117	NoGap	1	37	2	0	1	distractor	0	414	-1000	23845	13.328	13.289	13.366
ProbeTrackDT01	26	ProbeTrack	10.4	SCS215a	20100715.085105	20100715.085455	8	0.013314	60	0	60-180	60	151	NoGap	1	38	2	4	0	distractor	1	560	720	24565	13.328	13.293	13.363
ProbeTrackDT01	26	ProbeTrack	10.4	SCS215a	20100715.085105	20100715.085501	8	0.013314	60	0	60-180	60	139	NoGap	1	39	2	1	0	distractor	1	507	747	25312	13.328	13.291	13.363
ProbeTrackDT01	26	ProbeTrack	10.4	SCS215a	20100715.085105	20100715.085507	8	0.013314	60	0	60-180	60	133	NoGap	1	40	2	1	0	distractor	1	520	740	26052	13.328	13.293	13.363
ProbeTrackDT01	26	ProbeTrack	10.4	SCS215a	20100715.085555	20100715.085559	8	0.013328	60	10	60-180	60	133	GapPrac	1	1	2	2	0	distractor	1	973	514	26566	13.566	13.145	40.132
ProbeTrackDT01	26	ProbeTrack	10.4	SCS215a	20100715.085555	20100715.085605	8	0.013328	60	10	60-180	60	99	GapPrac	1	2	2	0	0	distractor	1	653	674	27240	13.498	12.883	26.536
ProbeTrackDT01	26	ProbeTrack	10.4	SCS215a	20100715.085555	20100715.085611	8	0.013328	60	10	60-180	60	62	GapPrac	1	3	2	75	1	target	1	707	647	27887	13.328	12.962	13.727
ProbeTrackDT01	26	ProbeTrack	10.4	SCS215a	20100715.085555	20100715.085617	8	0.013328	60	10	60-180	60	78	GapPrac	1	4	2	75	0	distractor	1	494	753	28640	13.328	13.293	13.363
ProbeTrackDT01	26	ProbeTrack	10.4	SCS215a	20100715.085555	20100715.085623	8	0.013328	60	10	60-180	60	80	GapPrac	1	5	2	1	1	target	1	627	687	29327	13.328	13.293	13.364
ProbeTrackDT01	26	ProbeTrack	10.4	SCS215a	20100715.085555	20100715.085628	8	0.013328	60	10	60-180	60	92	GapPrac	1	6	2	0	1	distractor	0	400	-1000	28327	13.328	13.293	13.363
ProbeTrackDT01	26	ProbeTrack	10.4	SCS215a	20100715.085555	20100715.085633	8	0.013328	60	10	60-180	60	108	GapPrac	1	7	2	2	1	target	1	294	853	29180	13.328	13.288	13.368
ProbeTrackDT01	26	ProbeTrack	10.4	SCS215a	20100715.085555	20100715.085638	8	0.013328	60	10	60-180	60	137	GapPrac	1	8	2	2	0	target	0	600	-1000	28180	13.328	13.293	13.363
ProbeTrackDT01	26	ProbeTrack	10.4	SCS215a	20100715.085555	20100715.085644	8	0.013328	60	10	60-180	60	121	GapPrac	1	9	2	4	0	distractor	1	667	667	28847	13.328	13.293	13.363
ProbeTrackDT01	26	ProbeTrack	10.4	SCS215a	20100715.085555	20100715.085650	8	0.013328	60	10	60-180	60	139	GapPrac	1	10	2	1	0	distractor	1	587	707	29554	13.328	13.293	13.363
ProbeTrackDT01	26	ProbeTrack	10.4	SCS215a	20100715.085555	20100715.085656	8	0.013328	60	10	60-180	60	120	GapPrac	1	11	2	75	1	target	1	360	820	30374	13.328	13.293	13.363
ProbeTrackDT01	26	ProbeTrack	10.4	SCS215a	20100715.085555	20100715.085702	8	0.013328	60	10	60-180	60	69	GapPrac	1	12	2	4	1	target	1	360	820	31194	13.328	13.292	13.363
ProbeTrackDT01	26	ProbeTrack	10.4	SCS215a	20100715.085555	20100715.085707	8	0.013328	60	10	60-180	60	169	GapPrac	1	13	2	0	1	target	1	507	747	31941	13.328	13.293	13.363
ProbeTrackDT01	26	ProbeTrack	10.4	SCS215a	20100715.085555	20100715.085713	8	0.013328	60	10	60-180	60	142	GapPrac	1	14	2	1	0	target	0	654	-1000	30941	13.328	12.986	13.669
ProbeTrackDT01	26	ProbeTrack	10.4	SCS215a	20100715.085555	20100715.085719	8	0.013328	60	10	60-180	60	140	GapPrac	1	15	2	75	0	distractor	1	853	574	31515	13.328	13.292	13.363
ProbeTrackDT01	26	ProbeTrack	10.4	SCS215a	20100715.085555	20100715.085726	8	0.013328	60	10	60-180	60	150	GapPrac	1	16	2	2	1	target	1	400	800	32315	13.328	13.293	13.363
ProbeTrackDT01	26	ProbeTrack	10.4	SCS215a	20100715.085555	20100715.085732	8	0.013328	60	10	60-180	60	121	GapPrac	1	17	2	4	1	target	1	347	827	33142	13.328	13.291	13.363
ProbeTrackDT01	26	ProbeTrack	10.4	SCS215a	20100715.085555	20100715.085737	8	0.013328	60	10	60-180	60	90	GapPrac	1	18	2	0	0	distractor	1	760	620	33762	13.328	13.293	13.363
ProbeTrackDT01	26	ProbeTrack	10.4	SCS215a	20100715.085555	20100715.085743	8	0.013328	60	10	60-180	60	147	GapPrac	1	19	2	4	0	distractor	1	547	727	34489	13.328	13.263	13.393
ProbeTrackDT01	26	ProbeTrack	10.4	SCS215a	20100715.085555	20100715.085749	8	0.013328	60	10	60-180	60	69	GapPrac	1	20	2	1	1	target	1	454	773	35262	13.328	13.258	13.397
ProbeTrackDT01	26	ProbeTrack	10.4	SCS215a	20100715.090216	20100715.090221	8	0.013327	60	10	60-180	60	151	GapPrac	1	1	2	1	0	distractor	1	760	620	35882	13.328	13.060	13.594
ProbeTrackDT01	26	ProbeTrack	10.4	SCS215a	20100715.090216	20100715.090227	8	0.013327	60	10	60-180	60	88	GapPrac	1	2	2	0	0	distractor	1	560	720	36602	13.328	13.158	13.532
ProbeTrackDT01	26	ProbeTrack	10.4	SCS215a	20100715.090216	20100715.090232	8	0.013327	60	10	60-180	60	91	GapPrac	1	3	2	2	1	target	1	400	800	37402	13.328	13.226	13.429
ProbeTrackDT01	26	ProbeTrack	10.4	SCS215a	20100715.090216	20100715.090237	8	0.013327	60	10	60-180	60	98	GapPrac	1	4	2	75	0	distractor	1	534	733	38135	13.328	13.173	13.501
ProbeTrackDT01	26	ProbeTrack	10.4	SCS215a	20100715.090216	20100715.090243	8	0.013327	60	10	60-180	60	73	GapPrac	1	5	2	2	0	target	0	693	-1000	37135	13.328	12.938	13.717
ProbeTrackDT01	26	ProbeTrack	10.4	SCS215a	20100715.090216	20100715.090248	8	0.013327	60	10	60-180	60	178	GapPrac	1	6	2	2	1	distractor	0	960	-1000	36135	13.410	13.293	26.621
ProbeTrackDT01	26	ProbeTrack	10.4	SCS215a	20100715.090216	20100715.090255	8	0.013327	60	10	60-180	60	92	GapPrac	1	7	2	75	0	distractor	1	490	755	36890	13.328	12.907	13.714
ProbeTrackDT01	26	ProbeTrack	10.4	SCS215a	20100715.090216	20100715.090301	8	0.013327	60	10	60-180	60	106	GapPrac	1	8	2	4	1	target	1	374	813	37703	13.328	13.011	13.644
ProbeTrackDT01	26	ProbeTrack	10.4	SCS215a	20100715.090216	20100715.090307	8	0.013327	60	10	60-180	60	157	GapPrac	1	9	2	1	0	distractor	1	680	660	38363	13.328	12.970	13.685
ProbeTrackDT01	26	ProbeTrack	10.4	SCS215a	20100715.090216	20100715.090313	8	0.013327	60	10	60-180	60	125	GapPrac	1	10	2	75	1	target	1	542	729	39092	13.328	13.150	13.505
ProbeTrackDT01	26	ProbeTrack	10.4	SCS215a	20100715.090216	20100715.090319	8	0.013327	60	10	60-180	60	165	GapPrac	1	11	2	2	0	target	0	747	-1000	38092	13.328	13.116	13.539
ProbeTrackDT01	26	ProbeTrack	10.4	SCS215a	20100715.090216	20100715.090326	8	0.013327	60	10	60-180	60	108	GapPrac	1	12	2	75	1	target	1	334	833	38925	13.328	13.045	13.612
ProbeTrackDT01	26	ProbeTrack	10.4	SCS215a	20100715.090216	20100715.090332	8	0.013327	60	10	60-180	60	89	GapPrac	1	13	2	1	1	target	1	494	753	39678	13.328	13.220	13.470
ProbeTrackDT01	26	ProbeTrack	10.4	SCS215a	20100715.090216	20100715.090337	8	0.013327	60	10	60-180	60	89	GapPrac	1	14	2	4	0	target	0	600	-1000	38678	15.258	13.202	186.554
ProbeTrackDT01	26	ProbeTrack	10.4	SCS215a	20100715.090216	20100715.090343	8	0.013327	60	10	60-180	60	138	GapPrac	1	15	2	0	0	distractor	1	587	707	39385	13.328	13.292	13.363
ProbeTrackDT01	26	ProbeTrack	10.4	SCS215a	20100715.090216	20100715.090349	8	0.013327	60	10	60-180	60	67	GapPrac	1	16	2	4	1	target	1	853	574	39959	13.390	13.133	26.851
ProbeTrackDT01	26	ProbeTrack	10.4	SCS215a	20100715.090216	20100715.090354	8	0.013327	60	10	60-180	60	105	GapPrac	1	17	2	4	0	distractor	1	400	800	40759	13.328	13.060	13.611
ProbeTrackDT01	26	ProbeTrack	10.4	SCS215a	20100715.090216	20100715.090359	8	0.013327	60	10	60-180	60	176	GapPrac	1	18	2	0	1	target	1	627	687	41446	13.328	13.014	13.640
ProbeTrackDT01	26	ProbeTrack	10.4	SCS215a	20100715.090216	20100715.090405	8	0.013327	60	10	60-180	60	118	GapPrac	1	19	2	0	1	target	1	733	634	42080	13.328	13.293	13.362
ProbeTrackDT01	26	ProbeTrack	10.4	SCS215a	20100715.090216	20100715.090411	8	0.013327	60	10	60-180	60	149	GapPrac	1	20	2	1	1	target	1	414	793	42873	13.328	13.264	13.391
ProbeTrackDT01	26	ProbeTrack	10.4	SCS215a	20100715.090552	20100715.090558	8	0.013328	60	10	60-180	60	115	GapExp	1	1	2	0	0	distractor	1	627	687	43560	13.328	13.293	13.363
ProbeTrackDT01	26	ProbeTrack	10.4	SCS215a	20100715.090552	20100715.090604	8	0.013328	60	10	60-180	60	106	GapExp	1	2	2	75	0	distractor	1	853	574	44134	13.328	13.033	13.657
ProbeTrackDT01	26	ProbeTrack	10.4	SCS215a	20100715.090552	20100715.090611	8	0.013328	60	10	60-180	60	157	GapExp	1	3	2	4	1	target	1	360	820	44954	13.425	12.907	26.785
ProbeTrackDT01	26	ProbeTrack	10.4	SCS215a	20100715.090552	20100715.090617	8	0.013328	60	10	60-180	60	163	GapExp	1	4	2	1	1	target	1	374	813	45767	13.328	13.248	13.375
ProbeTrackDT01	26	ProbeTrack	10.4	SCS215a	20100715.090552	20100715.090623	8	0.013328	60	10	60-180	60	133	GapExp	1	5	2	75	1	target	1	467	767	46534	13.328	12.920	13.736
ProbeTrackDT01	26	ProbeTrack	10.4	SCS215a	20100715.090552	20100715.090629	8	0.013328	60	10	60-180	60	168	GapExp	1	6	2	0	1	target	1	880	560	47094	13.328	12.975	13.682
ProbeTrackDT01	26	ProbeTrack	10.4	SCS215a	20100715.090552	20100715.090636	8	0.013328	60	10	60-180	60	67	GapExp	1	7	2	2	0	target	0	475	-1000	46094	13.328	12.986	13.670
ProbeTrackDT01	26	ProbeTrack	10.4	SCS215a	20100715.090552	20100715.090641	8	0.013328	60	10	60-180	60	74	GapExp	1	8	2	4	0	target	0	654	-1000	45094	13.328	13.069	13.619
ProbeTrackDT01	26	ProbeTrack	10.4	SCS215a	20100715.090552	20100715.090646	8	0.013328	60	10	60-180	60	163	GapExp	1	9	2	2	1	target	1	427	787	45881	13.328	12.978	13.643
ProbeTrackDT01	26	ProbeTrack	10.4	SCS215a	20100715.090552	20100715.090652	8	0.013328	60	10	60-180	60	89	GapExp	1	10	2	1	0	target	0	640	-1000	44881	13.328	13.293	13.362
ProbeTrackDT01	26	ProbeTrack	10.4	SCS215a	20100715.090552	20100715.090657	8	0.013328	60	10	60-180	60	94	GapExp	0	11	2	1	1	target	1	613	694	45575	13.328	13.206	13.483
ProbeTrackDT01	26	ProbeTrack	10.4	SCS215a	20100715.090552	20100715.090702	8	0.013328	60	10	60-180	60	164	GapExp	0	12	2	1	1	target	1	387	807	46382	13.328	13.240	13.450
ProbeTrackDT01	26	ProbeTrack	10.4	SCS215a	20100715.090552	20100715.090708	8	0.013328	60	10	60-180	60	175	GapExp	0	13	2	1	1	target	1	320	840	47222	13.328	13.270	13.384
ProbeTrackDT01	26	ProbeTrack	10.4	SCS215a	20100715.090552	20100715.090714	8	0.013328	60	10	60-180	60	125	GapExp	0	14	2	1	1	target	1	480	760	47982	13.381	12.986	26.604
ProbeTrackDT01	26	ProbeTrack	10.4	SCS215a	20100715.090552	20100715.090720	8	0.013328	60	10	60-180	60	122	GapExp	0	15	2	0	1	target	1	656	672	48654	13.328	13.232	13.439
ProbeTrackDT01	26	ProbeTrack	10.4	SCS215a	20100715.090552	20100715.090725	8	0.013328	60	10	60-180	60	116	GapExp	0	16	2	0	0	target	0	1893	-1000	47654	13.328	13.293	13.363
ProbeTrackDT01	26	ProbeTrack	10.4	SCS215a	20100715.090552	20100715.090732	8	0.013328	60	10	60-180	60	165	GapExp	0	17	2	1	0	target	0	534	-1000	46654	13.328	13.293	13.364
ProbeTrackDT01	26	ProbeTrack	10.4	SCS215a	20100715.090552	20100715.090738	8	0.013328	60	10	60-180	60	110	GapExp	0	18	2	4	1	target	1	467	767	47421	13.723	13.005	92.850
ProbeTrackDT01	26	ProbeTrack	10.4	SCS215a	20100715.090552	20100715.090744	8	0.013328	60	10	60-180	60	80	GapExp	0	19	2	2	0	distractor	1	680	660	48081	13.328	13.293	13.363
ProbeTrackDT01	26	ProbeTrack	10.4	SCS215a	20100715.090552	20100715.090749	8	0.013328	60	10	60-180	60	94	GapExp	0	20	2	4	1	target	1	387	807	48888	13.390	13.293	26.655
ProbeTrackDT01	26	ProbeTrack	10.4	SCS215a	20100715.090552	20100715.090754	8	0.013328	60	10	60-180	60	81	GapExp	0	21	2	1	1	target	1	347	827	49715	13.328	13.188	13.434
ProbeTrackDT01	26	ProbeTrack	10.4	SCS215a	20100715.090552	20100715.090759	8	0.013328	60	10	60-180	60	66	GapExp	0	22	2	4	1	target	1	307	847	50562	13.328	13.036	13.655
ProbeTrackDT01	26	ProbeTrack	10.4	SCS215a	20100715.090552	20100715.090804	8	0.013328	60	10	60-180	60	140	GapExp	0	23	2	1	0	target	0	414	-1000	49562	13.328	13.257	13.398
ProbeTrackDT01	26	ProbeTrack	10.4	SCS215a	20100715.090552	20100715.090809	8	0.013328	60	10	60-180	60	128	GapExp	0	24	2	2	0	target	0	560	-1000	48562	13.328	13.291	13.365
ProbeTrackDT01	26	ProbeTrack	10.4	SCS215a	20100715.090552	20100715.090815	8	0.013328	60	10	60-180	60	108	GapExp	0	25	2	0	0	target	0	853	-1000	47562	13.380	13.293	26.628
ProbeTrackDT01	26	ProbeTrack	10.4	SCS215a	20100715.090552	20100715.090821	8	0.013328	60	10	60-180	60	135	GapExp	0	26	2	2	1	target	1	467	767	48329	13.328	13.277	13.377
ProbeTrackDT01	26	ProbeTrack	10.4	SCS215a	20100715.090552	20100715.090826	8	0.013328	60	10	60-180	60	130	GapExp	0	27	2	4	0	distractor	1	494	753	49082	13.328	13.279	13.363
ProbeTrackDT01	26	ProbeTrack	10.4	SCS215a	20100715.090552	20100715.090832	8	0.013328	60	10	60-180	60	82	GapExp	0	28	2	4	1	target	1	507	747	49829	13.328	13.292	13.364
ProbeTrackDT01	26	ProbeTrack	10.4	SCS215a	20100715.090552	20100715.090837	8	0.013328	60	10	60-180	60	165	GapExp	0	29	2	2	1	target	1	254	873	50702	13.328	13.039	13.617
ProbeTrackDT01	26	ProbeTrack	10.4	SCS215a	20100715.090552	20100715.090843	8	0.013328	60	10	60-180	60	144	GapExp	0	30	2	75	1	target	1	480	760	51462	13.328	12.989	13.666
ProbeTrackDT01	26	ProbeTrack	10.4	SCS215a	20100715.090552	20100715.090850	8	0.013328	60	10	60-180	60	93	GapExp	0	31	2	4	1	target	1	440	780	52242	13.328	13.288	13.367
ProbeTrackDT01	26	ProbeTrack	10.4	SCS215a	20100715.090552	20100715.090855	8	0.013328	60	10	60-180	60	73	GapExp	0	32	2	1	1	target	1	454	773	53015	13.328	13.291	13.363
ProbeTrackDT01	26	ProbeTrack	10.4	SCS215a	20100715.090552	20100715.090900	8	0.013328	60	10	60-180	60	138	GapExp	0	33	2	4	0	distractor	1	534	733	53748	13.328	13.072	13.584
ProbeTrackDT01	26	ProbeTrack	10.4	SCS215a	20100715.090552	20100715.090906	8	0.013328	60	10	60-180	60	110	GapExp	0	34	2	1	1	target	1	414	793	54541	13.328	12.973	13.682
ProbeTrackDT01	26	ProbeTrack	10.4	SCS215a	20100715.090552	20100715.090911	8	0.013328	60	10	60-180	60	88	GapExp	0	35	2	4	1	target	1	400	800	55341	13.328	13.037	13.587
ProbeTrackDT01	26	ProbeTrack	10.4	SCS215a	20100715.090552	20100715.090916	8	0.013328	60	10	60-180	60	69	GapExp	0	36	2	2	1	target	1	400	800	56141	13.328	12.991	13.631
ProbeTrackDT01	26	ProbeTrack	10.4	SCS215a	20100715.090552	20100715.090921	8	0.013328	60	10	60-180	60	89	GapExp	0	37	2	1	0	distractor	1	627	687	56828	13.328	13.205	13.415
ProbeTrackDT01	26	ProbeTrack	10.4	SCS215a	20100715.090552	20100715.090926	8	0.013328	60	10	60-180	60	84	GapExp	0	38	2	75	1	target	1	1160	420	57248	13.328	13.126	13.496
ProbeTrackDT01	26	ProbeTrack	10.4	SCS215a	20100715.090552	20100715.090933	8	0.013328	60	10	60-180	60	98	GapExp	0	39	2	4	0	distractor	1	507	747	57995	13.328	13.096	13.560
ProbeTrackDT01	26	ProbeTrack	10.4	SCS215a	20100715.090552	20100715.090939	8	0.013328	60	10	60-180	60	138	GapExp	0	40	2	75	1	target	1	494	753	58748	13.328	12.942	13.747
ProbeTrackDT01	26	ProbeTrack	10.4	SCS215a	20100715.090552	20100715.090945	8	0.013328	60	10	60-180	60	66	GapExp	0	41	2	75	0	target	0	440	-1000	57748	13.328	13.154	13.501
ProbeTrackDT01	26	ProbeTrack	10.4	SCS215a	20100715.090552	20100715.090951	8	0.013328	60	10	60-180	60	85	GapExp	0	42	2	1	1	distractor	0	773	-1000	56748	13.328	13.242	13.414
ProbeTrackDT01	26	ProbeTrack	10.4	SCS215a	20100715.090552	20100715.090956	8	0.013328	60	10	60-180	60	139	GapExp	0	43	2	0	0	target	0	387	-1000	55748	13.328	13.246	13.410
ProbeTrackDT01	26	ProbeTrack	10.4	SCS215a	20100715.090552	20100715.091002	8	0.013328	60	10	60-180	60	114	GapExp	0	44	2	0	0	distractor	1	653	674	56422	13.328	13.064	13.591
ProbeTrackDT01	26	ProbeTrack	10.4	SCS215a	20100715.090552	20100715.091008	8	0.013328	60	10	60-180	60	164	GapExp	0	45	2	2	0	distractor	1	667	667	57089	13.328	13.266	13.389
ProbeTrackDT01	26	ProbeTrack	10.4	SCS215a	20100715.090552	20100715.091014	8	0.013328	60	10	60-180	60	87	GapExp	0	46	2	75	1	target	1	693	654	57743	13.328	12.947	13.733
ProbeTrackDT01	26	ProbeTrack	10.4	SCS215a	20100715.090552	20100715.091021	8	0.013328	60	10	60-180	60	168	GapExp	0	47	2	0	1	target	1	667	667	58410	13.328	13.124	13.499
ProbeTrackDT01	26	ProbeTrack	10.4	SCS215a	20100715.090552	20100715.091027	8	0.013328	60	10	60-180	60	80	GapExp	0	48	2	1	1	target	1	467	767	59177	13.328	13.258	13.364
ProbeTrackDT01	26	ProbeTrack	10.4	SCS215a	20100715.090552	20100715.091032	8	0.013328	60	10	60-180	60	81	GapExp	0	49	2	0	1	target	1	347	827	60004	13.328	13.290	13.386
ProbeTrackDT01	26	ProbeTrack	10.4	SCS215a	20100715.090552	20100715.091037	8	0.013328	60	10	60-180	60	128	GapExp	0	50	2	75	0	distractor	1	600	700	60704	13.328	13.275	13.363
ProbeTrackDT01	26	ProbeTrack	10.4	SCS215a	20100715.090552	20100715.091105	8	0.013328	60	10	60-180	60	94	GapExp	0	51	2	75	0	distractor	1	813	594	61298	13.328	13.293	13.363
ProbeTrackDT01	26	ProbeTrack	10.4	SCS215a	20100715.090552	20100715.091111	8	0.013328	60	10	60-180	60	84	GapExp	0	52	2	75	0	target	0	973	-1000	60298	13.328	13.044	13.577
ProbeTrackDT01	26	ProbeTrack	10.4	SCS215a	20100715.090552	20100715.091118	8	0.013328	60	10	60-180	60	148	GapExp	0	53	2	0	0	target	0	853	-1000	59298	13.328	13.049	13.608
ProbeTrackDT01	26	ProbeTrack	10.4	SCS215a	20100715.090552	20100715.091125	8	0.013328	60	10	60-180	60	129	GapExp	0	54	2	0	0	distractor	1	507	747	60045	13.328	12.985	13.635
ProbeTrackDT01	26	ProbeTrack	10.4	SCS215a	20100715.090552	20100715.091130	8	0.013328	60	10	60-180	60	152	GapExp	0	55	2	75	0	distractor	1	920	540	60585	13.328	12.951	13.707
ProbeTrackDT01	26	ProbeTrack	10.4	SCS215a	20100715.090552	20100715.091138	8	0.013328	60	10	60-180	60	81	GapExp	0	56	2	75	1	target	1	640	680	61265	13.328	13.168	13.487
ProbeTrackDT01	26	ProbeTrack	10.4	SCS215a	20100715.090552	20100715.091144	8	0.013328	60	10	60-180	60	133	GapExp	0	57	2	4	0	distractor	1	520	740	62005	13.328	12.924	13.731
ProbeTrackDT01	26	ProbeTrack	10.4	SCS215a	20100715.090552	20100715.091150	8	0.013328	60	10	60-180	60	82	GapExp	0	58	2	4	1	target	1	480	760	62765	13.328	13.286	13.371
ProbeTrackDT01	26	ProbeTrack	10.4	SCS215a	20100715.090552	20100715.091155	8	0.013328	60	10	60-180	60	114	GapExp	0	59	2	2	0	target	0	707	-1000	61765	13.328	13.292	13.364
ProbeTrackDT01	26	ProbeTrack	10.4	SCS215a	20100715.090552	20100715.091200	8	0.013328	60	10	60-180	60	131	GapExp	0	60	2	2	0	distractor	1	747	627	62392	13.328	13.293	13.363
ProbeTrackDT01	26	ProbeTrack	10.4	SCS215a	20100715.090552	20100715.091206	8	0.013328	60	10	60-180	60	129	GapExp	0	61	2	1	0	distractor	1	773	614	63006	13.328	13.293	13.366
ProbeTrackDT01	26	ProbeTrack	10.4	SCS215a	20100715.090552	20100715.091212	8	0.013328	60	10	60-180	60	170	GapExp	0	62	2	2	0	distractor	1	520	740	63746	13.328	13.074	13.615
ProbeTrackDT01	26	ProbeTrack	10.4	SCS215a	20100715.090552	20100715.091219	8	0.013328	60	10	60-180	60	110	GapExp	0	63	2	0	0	distractor	1	680	660	64406	13.328	13.293	13.363
ProbeTrackDT01	26	ProbeTrack	10.4	SCS215a	20100715.090552	20100715.091224	8	0.013328	60	10	60-180	60	88	GapExp	0	64	2	0	1	target	1	507	747	65153	13.328	13.293	13.363
ProbeTrackDT01	26	ProbeTrack	10.4	SCS215a	20100715.090552	20100715.091229	8	0.013328	60	10	60-180	60	76	GapExp	0	65	2	1	1	target	1	494	753	65906	13.328	13.293	13.363
ProbeTrackDT01	26	ProbeTrack	10.4	SCS215a	20100715.090552	20100715.091234	8	0.013328	60	10	60-180	60	120	GapExp	0	66	2	75	0	distractor	1	880	560	66466	13.328	13.293	13.363
ProbeTrackDT01	26	ProbeTrack	10.4	SCS215a	20100715.090552	20100715.091241	8	0.013328	60	10	60-180	60	175	GapExp	0	67	2	2	1	target	1	507	747	67213	13.328	13.290	13.365
ProbeTrackDT01	26	ProbeTrack	10.4	SCS215a	20100715.090552	20100715.091248	8	0.013328	60	10	60-180	60	124	GapExp	0	68	2	2	1	target	1	907	547	67760	13.328	12.941	13.716
ProbeTrackDT01	26	ProbeTrack	10.4	SCS215a	20100715.090552	20100715.091254	8	0.013328	60	10	60-180	60	123	GapExp	0	69	2	4	1	target	1	467	767	68527	13.328	13.019	13.636
ProbeTrackDT01	26	ProbeTrack	10.4	SCS215a	20100715.090552	20100715.091259	8	0.013328	60	10	60-180	60	85	GapExp	0	70	2	2	1	target	1	760	620	69147	13.328	12.993	13.629
ProbeTrackDT01	26	ProbeTrack	10.4	SCS215a	20100715.090552	20100715.091305	8	0.013328	60	10	60-180	60	67	GapExp	0	71	2	75	1	target	1	427	787	69934	13.328	13.016	13.674
ProbeTrackDT01	26	ProbeTrack	10.4	SCS215a	20100715.090552	20100715.091311	8	0.013328	60	10	60-180	60	140	GapExp	0	72	2	75	0	distractor	1	813	594	70528	13.328	13.227	13.462
ProbeTrackDT01	26	ProbeTrack	10.4	SCS215a	20100715.090552	20100715.091318	8	0.013328	60	10	60-180	60	172	GapExp	0	73	2	2	1	target	1	454	773	71301	13.328	13.143	13.478
ProbeTrackDT01	26	ProbeTrack	10.4	SCS215a	20100715.090552	20100715.091324	8	0.013328	60	10	60-180	60	141	GapExp	0	74	2	0	1	target	1	534	733	72034	13.328	13.293	13.391
ProbeTrackDT01	26	ProbeTrack	10.4	SCS215a	20100715.090552	20100715.091330	8	0.013328	60	10	60-180	60	135	GapExp	0	75	2	1	0	target	0	760	-1000	71034	13.328	13.293	13.363
ProbeTrackDT01	26	ProbeTrack	10.4	SCS215a	20100715.090552	20100715.091336	8	0.013328	60	10	60-180	60	79	GapExp	0	76	2	2	1	target	1	573	714	71748	13.328	13.293	13.363
ProbeTrackDT01	26	ProbeTrack	10.4	SCS215a	20100715.090552	20100715.091341	8	0.013328	60	10	60-180	60	66	GapExp	0	77	2	1	1	target	1	773	614	72362	13.328	13.293	13.363
ProbeTrackDT01	26	ProbeTrack	10.4	SCS215a	20100715.090552	20100715.091347	8	0.013328	60	10	60-180	60	128	GapExp	0	78	2	2	1	target	1	933	534	72896	13.328	13.269	13.387
ProbeTrackDT01	26	ProbeTrack	10.4	SCS215a	20100715.090552	20100715.091353	8	0.013328	60	10	60-180	60	134	GapExp	0	79	2	4	1	target	1	400	800	73696	13.328	13.113	13.508
ProbeTrackDT01	26	ProbeTrack	10.4	SCS215a	20100715.090552	20100715.091358	8	0.013328	60	10	60-180	60	116	GapExp	0	80	2	1	0	target	0	1346	-1000	72696	13.328	12.952	13.670
ProbeTrackDT01	26	ProbeTrack	10.4	SCS215a	20100715.090552	20100715.091405	8	0.013328	60	10	60-180	60	86	GapExp	0	81	2	2	0	target	0	680	-1000	71696	13.328	12.921	13.734
ProbeTrackDT01	26	ProbeTrack	10.4	SCS215a	20100715.090552	20100715.091410	8	0.013328	60	10	60-180	60	144	GapExp	0	82	2	0	1	target	1	1067	467	72163	13.328	13.293	13.363
ProbeTrackDT01	26	ProbeTrack	10.4	SCS215a	20100715.090552	20100715.091417	8	0.013328	60	10	60-180	60	138	GapExp	0	83	2	75	0	distractor	1	507	747	72910	13.367	13.292	26.688
ProbeTrackDT01	26	ProbeTrack	10.4	SCS215a	20100715.090552	20100715.091424	8	0.013328	60	10	60-180	60	106	GapExp	0	84	2	75	0	distractor	1	667	667	73577	13.328	13.293	13.363
ProbeTrackDT01	26	ProbeTrack	10.4	SCS215a	20100715.090552	20100715.091430	8	0.013328	60	10	60-180	60	99	GapExp	0	85	2	2	0	distractor	1	827	587	74164	13.328	13.290	13.367
ProbeTrackDT01	26	ProbeTrack	10.4	SCS215a	20100715.090552	20100715.091436	8	0.013328	60	10	60-180	60	176	GapExp	0	86	2	1	1	target	1	920	540	74704	13.328	13.292	13.363
ProbeTrackDT01	26	ProbeTrack	10.4	SCS215a	20100715.090552	20100715.091443	8	0.013328	60	10	60-180	60	149	GapExp	0	87	2	75	0	target	0	1280	-1000	73704	13.328	13.293	13.363
ProbeTrackDT01	26	ProbeTrack	10.4	SCS215a	20100715.090552	20100715.091450	8	0.013328	60	10	60-180	60	117	GapExp	0	88	2	1	1	target	1	1746	127	73831	13.328	13.293	13.363
ProbeTrackDT01	26	ProbeTrack	10.4	SCS215a	20100715.090552	20100715.091457	8	0.013328	60	10	60-180	60	161	GapExp	0	89	2	4	1	target	1	1320	340	74171	13.328	13.290	13.367
ProbeTrackDT01	26	ProbeTrack	10.4	SCS215a	20100715.090552	20100715.091504	8	0.013328	60	10	60-180	60	85	GapExp	0	90	2	0	0	distractor	1	693	654	74825	13.328	13.205	13.419
ProbeTrackDT01	26	ProbeTrack	10.4	SCS215a	20100715.090552	20100715.091510	8	0.013328	60	10	60-180	60	168	GapExp	0	91	2	0	0	distractor	1	680	660	75485	13.328	13.293	13.363
ProbeTrackDT01	26	ProbeTrack	10.4	SCS215a	20100715.090552	20100715.091516	8	0.013328	60	10	60-180	60	127	GapExp	0	92	2	1	0	target	0	627	-1000	74485	13.328	13.293	13.363
ProbeTrackDT01	26	ProbeTrack	10.4	SCS215a	20100715.090552	20100715.091522	8	0.013328	60	10	60-180	60	68	GapExp	0	93	2	4	0	distractor	1	720	640	75125	13.328	13.293	13.363
ProbeTrackDT01	26	ProbeTrack	10.4	SCS215a	20100715.090552	20100715.091527	8	0.013328	60	10	60-180	60	117	GapExp	0	94	2	2	1	target	1	600	700	75825	13.328	12.959	13.696
ProbeTrackDT01	26	ProbeTrack	10.4	SCS215a	20100715.090552	20100715.091533	8	0.013328	60	10	60-180	60	124	GapExp	0	95	2	4	0	target	0	454	-1000	74825	13.328	13.184	13.470
ProbeTrackDT01	26	ProbeTrack	10.4	SCS215a	20100715.090552	20100715.091539	8	0.013328	60	10	60-180	60	180	GapExp	0	96	2	4	0	distractor	1	667	667	75492	13.328	13.292	13.363
ProbeTrackDT01	26	ProbeTrack	10.4	SCS215a	20100715.090552	20100715.091545	8	0.013328	60	10	60-180	60	111	GapExp	0	97	2	0	1	target	1	1573	214	75706	13.328	13.289	13.363
ProbeTrackDT01	26	ProbeTrack	10.4	SCS215a	20100715.090552	20100715.091552	8	0.013328	60	10	60-180	60	163	GapExp	0	98	2	2	1	target	1	454	773	76479	13.328	13.179	13.477
ProbeTrackDT01	26	ProbeTrack	10.4	SCS215a	20100715.090552	20100715.091558	8	0.013328	60	10	60-180	60	180	GapExp	0	99	2	75	0	distractor	1	667	667	77146	13.328	13.286	13.363
ProbeTrackDT01	26	ProbeTrack	10.4	SCS215a	20100715.090552	20100715.091605	8	0.013328	60	10	60-180	60	92	GapExp	0	100	2	2	0	target	0	614	-1000	76146	13.328	13.293	13.362
ProbeTrackDT01	26	ProbeTrack	10.4	SCS215a	20100715.090552	20100715.091733	8	0.013328	60	10	60-180	60	172	GapExp	0	101	2	75	1	target	1	627	687	76833	13.433	13.293	53.277
ProbeTrackDT01	26	ProbeTrack	10.4	SCS215a	20100715.090552	20100715.091741	8	0.013328	60	10	60-180	60	68	GapExp	0	102	2	1	0	distractor	1	560	720	77553	13.462	13.177	40.095
ProbeTrackDT01	26	ProbeTrack	10.4	SCS215a	20100715.090552	20100715.091745	8	0.013328	60	10	60-180	60	84	GapExp	0	103	2	4	0	distractor	1	560	720	78273	13.328	13.278	13.397
ProbeTrackDT01	26	ProbeTrack	10.4	SCS215a	20100715.090552	20100715.091751	8	0.013328	60	10	60-180	60	68	GapExp	0	104	2	1	0	distractor	1	560	720	78993	13.328	13.123	13.499
ProbeTrackDT01	26	ProbeTrack	10.4	SCS215a	20100715.090552	20100715.091756	8	0.013328	60	10	60-180	60	87	GapExp	0	105	2	1	0	target	0	667	-1000	77993	13.328	13.293	13.363
ProbeTrackDT01	26	ProbeTrack	10.4	SCS215a	20100715.090552	20100715.091801	8	0.013328	60	10	60-180	60	154	GapExp	0	106	2	0	1	target	1	627	687	78680	13.328	13.293	13.363
ProbeTrackDT01	26	ProbeTrack	10.4	SCS215a	20100715.090552	20100715.091807	8	0.013328	60	10	60-180	60	92	GapExp	0	107	2	0	0	distractor	1	1000	500	79180	13.328	13.293	13.364
ProbeTrackDT01	26	ProbeTrack	10.4	SCS215a	20100715.090552	20100715.091813	8	0.013328	60	10	60-180	60	141	GapExp	0	108	2	0	1	target	1	414	793	79973	13.328	13.293	13.362
ProbeTrackDT01	26	ProbeTrack	10.4	SCS215a	20100715.090552	20100715.091819	8	0.013328	60	10	60-180	60	170	GapExp	0	109	2	4	0	distractor	1	507	747	80720	13.328	13.293	13.363
ProbeTrackDT01	26	ProbeTrack	10.4	SCS215a	20100715.090552	20100715.091825	8	0.013328	60	10	60-180	60	177	GapExp	0	110	2	2	1	target	1	440	780	81500	13.328	13.061	13.592
ProbeTrackDT01	26	ProbeTrack	10.4	SCS215a	20100715.090552	20100715.091831	8	0.013328	60	10	60-180	60	107	GapExp	0	111	2	75	1	target	1	547	727	82227	13.328	13.293	13.363
ProbeTrackDT01	26	ProbeTrack	10.4	SCS215a	20100715.090552	20100715.091838	8	0.013328	60	10	60-180	60	126	GapExp	0	112	2	75	0	distractor	1	747	627	82854	13.328	13.293	13.363
ProbeTrackDT01	26	ProbeTrack	10.4	SCS215a	20100715.090552	20100715.091845	8	0.013328	60	10	60-180	60	132	GapExp	0	113	2	2	0	distractor	1	707	647	83501	13.328	13.293	13.363
ProbeTrackDT01	26	ProbeTrack	10.4	SCS215a	20100715.090552	20100715.091851	8	0.013328	60	10	60-180	60	97	GapExp	0	114	2	75	1	target	1	574	713	84214	13.328	13.293	13.363
ProbeTrackDT01	26	ProbeTrack	10.4	SCS215a	20100715.090552	20100715.091857	8	0.013328	60	10	60-180	60	141	GapExp	0	115	2	0	1	target	1	507	747	84961	13.328	13.293	13.363
ProbeTrackDT01	26	ProbeTrack	10.4	SCS215a	20100715.090552	20100715.091903	8	0.013328	60	10	60-180	60	101	GapExp	0	116	2	0	0	target	0	813	-1000	83961	13.328	13.244	13.377
ProbeTrackDT01	26	ProbeTrack	10.4	SCS215a	20100715.090552	20100715.091908	8	0.013328	60	10	60-180	60	121	GapExp	0	117	2	75	1	target	1	574	713	84674	13.535	13.290	79.609
ProbeTrackDT01	26	ProbeTrack	10.4	SCS215a	20100715.090552	20100715.091915	8	0.013328	60	10	60-180	60	107	GapExp	0	118	2	75	0	distractor	1	534	733	85407	13.328	13.159	13.462
ProbeTrackDT01	26	ProbeTrack	10.4	SCS215a	20100715.090552	20100715.091921	8	0.013328	60	10	60-180	60	117	GapExp	0	119	2	2	0	distractor	1	600	700	86107	13.328	13.293	13.363
ProbeTrackDT01	26	ProbeTrack	10.4	SCS215a	20100715.090552	20100715.091927	8	0.013328	60	10	60-180	60	178	GapExp	0	120	2	1	1	target	1	707	647	86754	13.454	13.292	53.277
ProbeTrackDT01	26	ProbeTrack	10.4	SCS215a	20100715.090552	20100715.091934	8	0.013328	60	10	60-180	60	138	GapExp	0	121	2	4	1	target	1	480	760	87514	13.328	12.975	13.647
ProbeTrackDT01	26	ProbeTrack	10.4	SCS215a	20100715.090552	20100715.091940	8	0.013328	60	10	60-180	60	90	GapExp	0	122	2	75	0	distractor	1	547	727	88241	13.328	13.293	13.363
ProbeTrackDT01	26	ProbeTrack	10.4	SCS215a	20100715.090552	20100715.091946	8	0.013328	60	10	60-180	60	163	GapExp	0	123	2	75	0	target	0	1453	-1000	87241	13.328	13.290	13.365
ProbeTrackDT01	26	ProbeTrack	10.4	SCS215a	20100715.090552	20100715.091954	8	0.013328	60	10	60-180	60	102	GapExp	0	124	2	0	0	target	0	520	-1000	86241	13.328	13.292	13.363
ProbeTrackDT01	26	ProbeTrack	10.4	SCS215a	20100715.090552	20100715.091959	8	0.013328	60	10	60-180	60	70	GapExp	0	125	2	1	1	target	1	760	620	86861	13.390	13.066	26.579
ProbeTrackDT01	26	ProbeTrack	10.4	SCS215a	20100715.090552	20100715.092004	8	0.013328	60	10	60-180	60	169	GapExp	0	126	2	0	1	target	1	400	800	87661	13.328	13.162	13.524
ProbeTrackDT01	26	ProbeTrack	10.4	SCS215a	20100715.090552	20100715.092011	8	0.013328	60	10	60-180	60	160	GapExp	0	127	2	2	1	target	1	467	767	88428	13.328	13.293	13.363
ProbeTrackDT01	26	ProbeTrack	10.4	SCS215a	20100715.090552	20100715.092017	8	0.013328	60	10	60-180	60	165	GapExp	0	128	2	75	1	distractor	0	867	-1000	87428	13.328	12.981	13.682
ProbeTrackDT01	26	ProbeTrack	10.4	SCS215a	20100715.090552	20100715.092024	8	0.013328	60	10	60-180	60	159	GapExp	0	129	2	1	0	target	0	827	-1000	86428	13.328	13.293	13.362
ProbeTrackDT01	26	ProbeTrack	10.4	SCS215a	20100715.090552	20100715.092031	8	0.013328	60	10	60-180	60	149	GapExp	0	130	2	75	1	target	1	600	700	87128	13.328	13.080	13.574
ProbeTrackDT01	26	ProbeTrack	10.4	SCS215a	20100715.090552	20100715.092038	8	0.013328	60	10	60-180	60	92	GapExp	0	131	2	4	0	distractor	1	454	773	87901	13.328	13.293	13.364
ProbeTrackDT01	26	ProbeTrack	10.4	SCS215a	20100715.090552	20100715.092043	8	0.013328	60	10	60-180	60	62	GapExp	0	132	2	75	1	target	1	987	507	88408	13.328	12.989	13.701
ProbeTrackDT01	26	ProbeTrack	10.4	SCS215a	20100715.090552	20100715.092049	8	0.013328	60	10	60-180	60	159	GapExp	0	133	2	75	0	distractor	1	1133	434	88842	13.328	13.292	13.364
ProbeTrackDT01	26	ProbeTrack	10.4	SCS215a	20100715.090552	20100715.092057	8	0.013328	60	10	60-180	60	74	GapExp	0	134	2	75	1	target	1	520	740	89582	13.328	13.204	13.418
ProbeTrackDT01	26	ProbeTrack	10.4	SCS215a	20100715.090552	20100715.092103	8	0.013328	60	10	60-180	60	174	GapExp	0	135	2	0	1	target	1	374	813	90395	13.328	13.293	13.363
ProbeTrackDT01	26	ProbeTrack	10.4	SCS215a	20100715.090552	20100715.092109	8	0.013328	60	10	60-180	60	156	GapExp	0	136	2	4	1	target	1	1147	427	90822	13.371	13.293	26.621
ProbeTrackDT01	26	ProbeTrack	10.4	SCS215a	20100715.090552	20100715.092116	8	0.013328	60	10	60-180	60	98	GapExp	0	137	2	4	1	target	1	800	600	91422	13.328	13.284	13.404
ProbeTrackDT01	26	ProbeTrack	10.4	SCS215a	20100715.090552	20100715.092122	8	0.013328	60	10	60-180	60	86	GapExp	0	138	2	0	1	target	1	947	527	91949	13.328	13.293	13.363
ProbeTrackDT01	26	ProbeTrack	10.4	SCS215a	20100715.090552	20100715.092127	8	0.013328	60	10	60-180	60	69	GapExp	0	139	2	75	1	distractor	0	667	-1000	90949	13.375	13.263	26.549
ProbeTrackDT01	26	ProbeTrack	10.4	SCS215a	20100715.090552	20100715.092134	8	0.013328	60	10	60-180	60	178	GapExp	0	140	2	0	1	target	1	560	720	91669	13.328	13.292	13.363
ProbeTrackDT01	26	ProbeTrack	10.4	SCS215a	20100715.090552	20100715.092140	8	0.013328	60	10	60-180	60	107	GapExp	0	141	2	1	0	target	0	587	-1000	90669	13.328	13.155	13.501
ProbeTrackDT01	26	ProbeTrack	10.4	SCS215a	20100715.090552	20100715.092146	8	0.013328	60	10	60-180	60	157	GapExp	0	142	2	1	1	target	1	494	753	91422	13.328	13.183	13.473
ProbeTrackDT01	26	ProbeTrack	10.4	SCS215a	20100715.090552	20100715.092152	8	0.013328	60	10	60-180	60	168	GapExp	0	143	2	0	0	target	0	667	-1000	90422	13.328	13.284	13.405
ProbeTrackDT01	26	ProbeTrack	10.4	SCS215a	20100715.090552	20100715.092158	8	0.013328	60	10	60-180	60	130	GapExp	0	144	2	0	1	target	1	1013	494	90916	13.521	13.035	40.242
ProbeTrackDT01	26	ProbeTrack	10.4	SCS215a	20100715.090552	20100715.092204	8	0.013328	60	10	60-180	60	63	GapExp	0	145	2	0	1	target	1	440	780	91696	13.328	13.293	13.365
ProbeTrackDT01	26	ProbeTrack	10.4	SCS215a	20100715.090552	20100715.092209	8	0.013328	60	10	60-180	60	111	GapExp	0	146	2	4	0	distractor	1	507	747	92443	13.328	13.293	13.363
ProbeTrackDT01	26	ProbeTrack	10.4	SCS215a	20100715.090552	20100715.092214	8	0.013328	60	10	60-180	60	155	GapExp	0	147	2	1	0	target	0	960	-1000	91443	13.328	13.293	13.363
ProbeTrackDT01	26	ProbeTrack	10.4	SCS215a	20100715.090552	20100715.092221	8	0.013328	60	10	60-180	60	98	GapExp	0	148	2	0	0	target	0	1133	-1000	90443	13.328	13.015	13.606
ProbeTrackDT01	26	ProbeTrack	10.4	SCS215a	20100715.090552	20100715.092227	8	0.013328	60	10	60-180	60	163	GapExp	0	149	2	4	0	target	0	1013	-1000	89443	13.328	13.060	13.630
ProbeTrackDT01	26	ProbeTrack	10.4	SCS215a	20100715.090552	20100715.092234	8	0.013328	60	10	60-180	60	107	GapExp	0	150	2	75	1	target	1	574	713	90156	13.413	13.293	39.977
ProbeTrackDT01	26	ProbeTrack	10.4	SCS215a	20100715.090552	20100715.092306	8	0.013328	60	10	60-180	60	90	GapExp	0	151	2	2	1	target	1	693	654	90810	13.616	13.289	66.978
ProbeTrackDT01	26	ProbeTrack	10.4	SCS215a	20100715.090552	20100715.092311	8	0.013328	60	10	60-180	60	91	GapExp	0	152	2	4	0	target	0	1200	-1000	89810	13.328	13.292	13.367
ProbeTrackDT01	26	ProbeTrack	10.4	SCS215a	20100715.090552	20100715.092317	8	0.013328	60	10	60-180	60	71	GapExp	0	153	2	1	0	target	0	494	-1000	88810	13.328	13.293	13.363
ProbeTrackDT01	26	ProbeTrack	10.4	SCS215a	20100715.090552	20100715.092322	8	0.013328	60	10	60-180	60	79	GapExp	0	154	2	4	1	target	1	440	780	89590	13.328	13.146	13.509
ProbeTrackDT01	26	ProbeTrack	10.4	SCS215a	20100715.090552	20100715.092327	8	0.013328	60	10	60-180	60	148	GapExp	0	155	2	1	1	target	1	520	740	90330	13.328	13.188	13.466
ProbeTrackDT01	26	ProbeTrack	10.4	SCS215a	20100715.090552	20100715.092333	8	0.013328	60	10	60-180	60	74	GapExp	0	156	2	4	0	distractor	1	600	700	91030	13.328	13.293	13.363
ProbeTrackDT01	26	ProbeTrack	10.4	SCS215a	20100715.090552	20100715.092338	8	0.013328	60	10	60-180	60	65	GapExp	0	157	2	1	0	distractor	1	507	747	91777	13.328	13.052	13.638
ProbeTrackDT01	26	ProbeTrack	10.4	SCS215a	20100715.090552	20100715.092343	8	0.013328	60	10	60-180	60	86	GapExp	0	158	2	0	1	target	1	480	760	92537	13.391	13.293	26.265
ProbeTrackDT01	26	ProbeTrack	10.4	SCS215a	20100715.090552	20100715.092348	8	0.013328	60	10	60-180	60	166	GapExp	0	159	2	4	0	distractor	1	813	594	93131	13.328	13.138	13.550
ProbeTrackDT01	26	ProbeTrack	10.4	SCS215a	20100715.090552	20100715.092355	8	0.013328	60	10	60-180	60	87	GapExp	0	160	2	2	1	target	1	454	773	93904	13.328	13.230	13.425
ProbeTrackDT01	26	ProbeTrack	10.4	SCS215a	20100715.090552	20100715.092400	8	0.013328	60	10	60-180	60	117	GapExp	0	161	2	0	0	target	0	560	-1000	92904	13.328	12.945	13.710
ProbeTrackDT01	26	ProbeTrack	10.4	SCS215a	20100715.090552	20100715.092406	8	0.013328	60	10	60-180	60	158	GapExp	0	162	2	4	0	distractor	1	587	707	93611	13.328	12.981	13.675
ProbeTrackDT01	26	ProbeTrack	10.4	SCS215a	20100715.090552	20100715.092412	8	0.013328	60	10	60-180	60	74	GapExp	0	163	2	0	0	target	0	2079	-1000	92611	13.328	12.971	13.718
ProbeTrackDT01	26	ProbeTrack	10.4	SCS215a	20100715.090552	20100715.092419	8	0.013328	60	10	60-180	60	104	GapExp	0	164	2	0	0	target	0	827	-1000	91611	13.328	13.117	13.571
ProbeTrackDT01	26	ProbeTrack	10.4	SCS215a	20100715.090552	20100715.092424	8	0.013328	60	10	60-180	60	152	GapExp	0	165	2	2	1	target	1	507	747	92358	13.328	12.996	13.660
ProbeTrackDT01	26	ProbeTrack	10.4	SCS215a	20100715.090552	20100715.092430	8	0.013328	60	10	60-180	60	77	GapExp	0	166	2	75	1	target	1	640	680	93038	13.328	13.293	13.363
ProbeTrackDT01	26	ProbeTrack	10.4	SCS215a	20100715.090552	20100715.092437	8	0.013328	60	10	60-180	60	87	GapExp	0	167	2	2	0	target	0	1213	-1000	92038	13.328	12.982	13.674
ProbeTrackDT01	26	ProbeTrack	10.4	SCS215a	20100715.090552	20100715.092442	8	0.013328	60	10	60-180	60	63	GapExp	0	168	2	2	0	distractor	1	40	980	93018	13.413	12.797	27.154
ProbeTrackDT01	26	ProbeTrack	10.4	SCS215a	20100715.090552	20100715.092447	8	0.013328	60	10	60-180	60	161	GapExp	0	169	2	75	1	target	1	440	780	93798	13.328	13.293	13.363
ProbeTrackDT01	26	ProbeTrack	10.4	SCS215a	20100715.090552	20100715.092454	8	0.013328	60	10	60-180	60	173	GapExp	0	170	2	2	1	target	1	427	787	94585	13.328	12.994	13.661
ProbeTrackDT01	26	ProbeTrack	10.4	SCS215a	20100715.090552	20100715.092500	8	0.013328	60	10	60-180	60	138	GapExp	0	171	2	4	0	target	0	534	-1000	93585	13.328	13.050	13.606
ProbeTrackDT01	26	ProbeTrack	10.4	SCS215a	20100715.090552	20100715.092506	8	0.013328	60	10	60-180	60	164	GapExp	0	172	2	1	0	distractor	1	520	740	94325	13.328	13.117	13.504
ProbeTrackDT01	26	ProbeTrack	10.4	SCS215a	20100715.090552	20100715.092512	8	0.013328	60	10	60-180	60	171	GapExp	0	173	2	2	0	distractor	1	733	634	94959	13.328	13.263	13.392
ProbeTrackDT01	26	ProbeTrack	10.4	SCS215a	20100715.090552	20100715.092519	8	0.013328	60	10	60-180	60	179	GapExp	0	174	2	1	0	distractor	1	1107	447	95406	13.328	13.144	13.511
ProbeTrackDT01	26	ProbeTrack	10.4	SCS215a	20100715.090552	20100715.092526	8	0.013328	60	10	60-180	60	179	GapExp	0	175	2	1	0	distractor	1	707	647	96053	13.328	13.231	13.391
ProbeTrackDT01	26	ProbeTrack	10.4	SCS215a	20100715.090552	20100715.092532	8	0.013328	60	10	60-180	60	137	GapExp	0	176	2	0	0	target	0	667	-1000	95053	13.328	13.183	13.474
ProbeTrackDT01	26	ProbeTrack	10.4	SCS215a	20100715.090552	20100715.092538	8	0.013328	60	10	60-180	60	108	GapExp	0	177	2	0	1	target	1	480	760	95813	13.386	12.958	27.026
ProbeTrackDT01	26	ProbeTrack	10.4	SCS215a	20100715.090552	20100715.092544	8	0.013328	60	10	60-180	60	147	GapExp	0	178	2	2	0	target	0	1746	-1000	94813	13.418	13.000	40.311
ProbeTrackDT01	26	ProbeTrack	10.4	SCS215a	20100715.090552	20100715.092551	8	0.013328	60	10	60-180	60	167	GapExp	0	179	2	2	1	target	1	494	753	95566	13.510	13.293	40.016
ProbeTrackDT01	26	ProbeTrack	10.4	SCS215a	20100715.090552	20100715.092557	8	0.013328	60	10	60-180	60	82	GapExp	0	180	2	2	1	target	1	1013	494	96060	13.328	13.280	13.374
ProbeTrackDT01	26	ProbeTrack	10.4	SCS215a	20100715.090552	20100715.092603	8	0.013328	60	10	60-180	60	88	GapExp	0	181	2	75	0	distractor	1	654	673	96733	13.372	13.293	26.687
ProbeTrackDT01	26	ProbeTrack	10.4	SCS215a	20100715.090552	20100715.092609	8	0.013328	60	10	60-180	60	82	GapExp	0	182	2	4	0	distractor	1	694	653	97386	13.447	13.293	39.949
ProbeTrackDT01	26	ProbeTrack	10.4	SCS215a	20100715.090552	20100715.092614	8	0.013328	60	10	60-180	60	169	GapExp	0	183	2	2	0	target	0	427	-1000	96386	13.328	13.161	13.494
ProbeTrackDT01	26	ProbeTrack	10.4	SCS215a	20100715.090552	20100715.092621	8	0.013328	60	10	60-180	60	101	GapExp	0	184	2	75	0	distractor	1	720	640	97026	13.328	13.272	13.382
ProbeTrackDT01	26	ProbeTrack	10.4	SCS215a	20100715.090552	20100715.092627	8	0.013328	60	10	60-180	60	158	GapExp	0	185	2	4	0	distractor	1	547	727	97753	13.328	13.290	13.363
ProbeTrackDT01	26	ProbeTrack	10.4	SCS215a	20100715.090552	20100715.092633	8	0.013328	60	10	60-180	60	74	GapExp	0	186	2	4	1	target	1	454	773	98526	13.328	13.216	13.439
ProbeTrackDT01	26	ProbeTrack	10.4	SCS215a	20100715.090552	20100715.092638	8	0.013328	60	10	60-180	60	163	GapExp	0	187	2	2	0	distractor	1	520	740	99266	13.328	12.965	13.656
ProbeTrackDT01	26	ProbeTrack	10.4	SCS215a	20100715.090552	20100715.092644	8	0.013328	60	10	60-180	60	179	GapExp	0	188	2	4	0	distractor	1	494	753	100019	13.328	13.293	13.363
ProbeTrackDT01	26	ProbeTrack	10.4	SCS215a	20100715.090552	20100715.092651	8	0.013328	60	10	60-180	60	131	GapExp	0	189	2	1	0	target	0	1040	-1000	99019	13.328	13.293	13.363
ProbeTrackDT01	26	ProbeTrack	10.4	SCS215a	20100715.090552	20100715.092657	8	0.013328	60	10	60-180	60	69	GapExp	0	190	2	1	1	distractor	0	760	-1000	98019	13.452	13.290	26.688
ProbeTrackDT01	26	ProbeTrack	10.4	SCS215a	20100715.090552	20100715.092702	8	0.013328	60	10	60-180	60	90	GapExp	0	191	2	75	0	distractor	1	760	620	98639	13.414	13.061	26.568
ProbeTrackDT01	26	ProbeTrack	10.4	SCS215a	20100715.090552	20100715.092709	8	0.013328	60	10	60-180	60	132	GapExp	0	192	2	2	0	distractor	1	653	674	99313	13.328	13.185	13.469
ProbeTrackDT01	26	ProbeTrack	10.4	SCS215a	20100715.090552	20100715.092715	8	0.013328	60	10	60-180	60	130	GapExp	0	193	2	4	1	target	1	520	740	100053	13.328	13.293	13.363
ProbeTrackDT01	26	ProbeTrack	10.4	SCS215a	20100715.090552	20100715.092721	8	0.013328	60	10	60-180	60	97	GapExp	0	194	2	4	1	target	1	640	680	100733	13.328	12.906	13.750
ProbeTrackDT01	26	ProbeTrack	10.4	SCS215a	20100715.090552	20100715.092726	8	0.013328	60	10	60-180	60	91	GapExp	0	195	2	1	0	distractor	1	653	674	101407	13.328	13.109	13.581
ProbeTrackDT01	26	ProbeTrack	10.4	SCS215a	20100715.090552	20100715.092731	8	0.013328	60	10	60-180	60	123	GapExp	0	196	2	75	1	target	1	560	720	102127	13.328	13.293	13.363
ProbeTrackDT01	26	ProbeTrack	10.4	SCS215a	20100715.090552	20100715.092738	8	0.013328	60	10	60-180	60	63	GapExp	0	197	2	2	0	target	0	720	-1000	101127	13.328	13.060	13.561
ProbeTrackDT01	26	ProbeTrack	10.4	SCS215a	20100715.090552	20100715.092743	8	0.013328	60	10	60-180	60	134	GapExp	0	198	2	0	0	distractor	1	1240	380	101507	13.328	13.223	13.465
ProbeTrackDT01	26	ProbeTrack	10.4	SCS215a	20100715.090552	20100715.092750	8	0.013328	60	10	60-180	60	64	GapExp	0	199	2	75	0	distractor	1	640	680	102187	13.377	12.813	27.169
ProbeTrackDT01	26	ProbeTrack	10.4	SCS215a	20100715.090552	20100715.092756	8	0.013328	60	10	60-180	60	143	GapExp	0	200	2	0	0	distractor	1	893	554	102741	13.328	13.245	13.409
ProbeTrackDT01	26	ProbeTrack	10.4	SCS215a	20100715.090552	20100715.092819	8	0.013328	60	10	60-180	60	97	GapExp	0	201	2	75	1	target	1	494	753	103494	13.328	13.055	13.566
ProbeTrackDT01	26	ProbeTrack	10.4	SCS215a	20100715.090552	20100715.092825	8	0.013328	60	10	60-180	60	146	GapExp	0	202	2	1	1	target	1	520	740	104234	13.328	13.233	13.422
ProbeTrackDT01	26	ProbeTrack	10.4	SCS215a	20100715.090552	20100715.092831	8	0.013328	60	10	60-180	60	151	GapExp	0	203	2	4	1	target	1	374	813	105047	13.328	13.010	13.612
ProbeTrackDT01	26	ProbeTrack	10.4	SCS215a	20100715.090552	20100715.092837	8	0.013328	60	10	60-180	60	172	GapExp	0	204	2	2	0	distractor	1	640	680	105727	13.327	13.060	13.595
ProbeTrackDT01	26	ProbeTrack	10.4	SCS215a	20100715.090552	20100715.092843	8	0.013328	60	10	60-180	60	169	GapExp	0	205	2	4	1	target	1	507	747	106474	13.328	13.289	13.363
ProbeTrackDT01	26	ProbeTrack	10.4	SCS215a	20100715.090552	20100715.092850	8	0.013328	60	10	60-180	60	153	GapExp	0	206	2	0	1	target	1	1373	314	106788	13.328	12.964	13.691
ProbeTrackDT01	26	ProbeTrack	10.4	SCS215a	20100715.090552	20100715.092857	8	0.013328	60	10	60-180	60	126	GapExp	0	207	2	0	1	target	1	480	760	107548	13.381	13.216	26.655
ProbeTrackDT01	26	ProbeTrack	10.4	SCS215a	20100715.090552	20100715.092902	8	0.013328	60	10	60-180	60	83	GapExp	0	208	2	1	1	target	1	560	720	108268	13.328	13.293	13.363
ProbeTrackDT01	26	ProbeTrack	10.4	SCS215a	20100715.090552	20100715.092907	8	0.013328	60	10	60-180	60	134	GapExp	0	209	2	2	1	target	1	414	793	109061	13.328	13.131	13.558
ProbeTrackDT01	26	ProbeTrack	10.4	SCS215a	20100715.090552	20100715.092913	8	0.013328	60	10	60-180	60	97	GapExp	0	210	2	4	1	target	1	547	727	109788	13.328	13.293	13.363
