exp	sub	code	rev	comp	runtime	trialtime	nstim	refreshdur	cuedur	gapdur	gapOnsetRange	durPostProbe	gapOnsetTime	blocktype	prac	trial	ntargets	soa	probeTarget	resp	acc	rt	pts	tpts	meanFrameDur	minFrameDur	maxFrameDur
ProbeTrackDT01	10	ProbeTrack	10.4	SCS215a	20100706.094424	20100706.094451	8	0.013312	60	0	60-180	60	110	NoGap	1	1	2	75	0	distractor	1	2253	0	0	13.328	13.293	13.363
ProbeTrackDT01	10	ProbeTrack	10.4	SCS215a	20100706.094424	20100706.094459	8	0.013312	60	0	60-180	60	67	NoGap	1	2	2	1	1	target	1	1053	474	474	13.328	13.184	13.471
ProbeTrackDT01	10	ProbeTrack	10.4	SCS215a	20100706.094424	20100706.094505	8	0.013312	60	0	60-180	60	134	NoGap	1	3	2	2	0	distractor	1	1080	460	934	13.328	13.293	13.363
ProbeTrackDT01	10	ProbeTrack	10.4	SCS215a	20100706.094424	20100706.094511	8	0.013312	60	0	60-180	60	81	NoGap	1	4	2	4	0	distractor	1	987	507	1441	13.328	13.148	13.474
ProbeTrackDT01	10	ProbeTrack	10.4	SCS215a	20100706.094424	20100706.094516	8	0.013312	60	0	60-180	60	136	NoGap	1	5	2	2	1	target	1	773	614	2055	13.627	13.134	40.314
ProbeTrackDT01	10	ProbeTrack	10.4	SCS215a	20100706.094424	20100706.094522	8	0.013312	60	0	60-180	60	96	NoGap	1	6	2	0	0	distractor	1	1067	467	2522	13.328	13.291	13.396
ProbeTrackDT01	10	ProbeTrack	10.4	SCS215a	20100706.094424	20100706.094528	8	0.013312	60	0	60-180	60	65	NoGap	1	7	2	1	1	target	1	880	560	3082	13.328	13.256	13.364
ProbeTrackDT01	10	ProbeTrack	10.4	SCS215a	20100706.094424	20100706.094533	8	0.013312	60	0	60-180	60	167	NoGap	1	8	2	0	1	target	1	1800	100	3182	13.372	13.187	26.313
ProbeTrackDT01	10	ProbeTrack	10.4	SCS215a	20100706.094424	20100706.094540	8	0.013312	60	0	60-180	60	99	NoGap	1	9	2	75	1	target	1	1027	487	3669	13.328	13.024	13.630
ProbeTrackDT01	10	ProbeTrack	10.4	SCS215a	20100706.094424	20100706.094547	8	0.013312	60	0	60-180	60	145	NoGap	1	10	2	1	1	target	1	973	514	4183	13.328	12.972	13.652
ProbeTrackDT01	10	ProbeTrack	10.4	SCS215a	20100706.094424	20100706.094553	8	0.013312	60	0	60-180	60	120	NoGap	1	11	2	1	1	target	1	1080	460	4643	13.328	12.935	13.721
ProbeTrackDT01	10	ProbeTrack	10.4	SCS215a	20100706.094424	20100706.094559	8	0.013312	60	0	60-180	60	154	NoGap	1	12	2	2	1	target	1	853	574	5217	13.328	12.945	13.710
ProbeTrackDT01	10	ProbeTrack	10.4	SCS215a	20100706.094424	20100706.094605	8	0.013312	60	0	60-180	60	104	NoGap	1	13	2	1	0	distractor	1	667	667	5884	13.328	13.074	13.580
ProbeTrackDT01	10	ProbeTrack	10.4	SCS215a	20100706.094424	20100706.094610	8	0.013312	60	0	60-180	60	135	NoGap	1	14	2	75	1	target	1	720	640	6524	13.836	12.999	40.477
ProbeTrackDT01	10	ProbeTrack	10.4	SCS215a	20100706.094424	20100706.094617	8	0.013312	60	0	60-180	60	90	NoGap	1	15	2	0	0	distractor	1	987	507	7031	13.328	13.288	13.369
ProbeTrackDT01	10	ProbeTrack	10.4	SCS215a	20100706.094424	20100706.094623	8	0.013312	60	0	60-180	60	88	NoGap	1	16	2	75	1	target	1	680	660	7691	13.328	13.293	13.363
ProbeTrackDT01	10	ProbeTrack	10.4	SCS215a	20100706.094424	20100706.094629	8	0.013312	60	0	60-180	60	171	NoGap	1	17	2	2	1	target	1	640	680	8371	13.328	13.293	13.364
ProbeTrackDT01	10	ProbeTrack	10.4	SCS215a	20100706.094424	20100706.094635	8	0.013312	60	0	60-180	60	136	NoGap	1	18	2	75	1	target	1	640	680	9051	13.328	13.293	13.363
ProbeTrackDT01	10	ProbeTrack	10.4	SCS215a	20100706.094424	20100706.094642	8	0.013312	60	0	60-180	60	156	NoGap	1	19	2	0	1	target	1	614	693	9744	13.328	13.109	13.545
ProbeTrackDT01	10	ProbeTrack	10.4	SCS215a	20100706.094424	20100706.094648	8	0.013312	60	0	60-180	60	128	NoGap	1	20	2	4	1	target	1	547	727	10471	13.328	12.978	13.678
ProbeTrackDT01	10	ProbeTrack	10.4	SCS215a	20100706.094424	20100706.094653	8	0.013312	60	0	60-180	60	69	NoGap	1	21	2	4	1	target	1	654	673	11144	13.328	13.293	13.363
ProbeTrackDT01	10	ProbeTrack	10.4	SCS215a	20100706.094424	20100706.094658	8	0.013312	60	0	60-180	60	76	NoGap	1	22	2	0	0	distractor	1	587	707	11851	13.328	13.293	13.363
ProbeTrackDT01	10	ProbeTrack	10.4	SCS215a	20100706.094424	20100706.094703	8	0.013312	60	0	60-180	60	160	NoGap	1	23	2	2	0	distractor	1	574	713	12564	13.328	13.186	13.437
ProbeTrackDT01	10	ProbeTrack	10.4	SCS215a	20100706.094424	20100706.094709	8	0.013312	60	0	60-180	60	114	NoGap	1	24	2	2	0	distractor	1	707	647	13211	13.328	13.232	13.423
ProbeTrackDT01	10	ProbeTrack	10.4	SCS215a	20100706.094424	20100706.094715	8	0.013312	60	0	60-180	60	113	NoGap	1	25	2	4	0	distractor	1	667	667	13878	13.328	13.078	13.602
ProbeTrackDT01	10	ProbeTrack	10.4	SCS215a	20100706.094424	20100706.094720	8	0.013312	60	0	60-180	60	147	NoGap	1	26	2	1	0	distractor	1	574	713	14591	13.328	13.041	13.580
ProbeTrackDT01	10	ProbeTrack	10.4	SCS215a	20100706.094424	20100706.094726	8	0.013312	60	0	60-180	60	156	NoGap	1	27	2	2	0	distractor	1	547	727	15318	13.328	13.133	13.523
ProbeTrackDT01	10	ProbeTrack	10.4	SCS215a	20100706.094424	20100706.094732	8	0.013312	60	0	60-180	60	105	NoGap	1	28	2	4	1	distractor	0	600	-1000	14318	13.328	13.033	13.621
ProbeTrackDT01	10	ProbeTrack	10.4	SCS215a	20100706.094424	20100706.094737	8	0.013312	60	0	60-180	60	180	NoGap	1	29	2	75	0	distractor	1	680	660	14978	13.676	13.071	40.018
ProbeTrackDT01	10	ProbeTrack	10.4	SCS215a	20100706.094424	20100706.094744	8	0.013312	60	0	60-180	60	149	NoGap	1	30	2	1	0	distractor	1	680	660	15638	13.328	13.293	13.363
ProbeTrackDT01	10	ProbeTrack	10.4	SCS215a	20100706.094424	20100706.094750	8	0.013312	60	0	60-180	60	77	NoGap	1	31	2	2	1	target	1	654	673	16311	13.328	13.294	13.363
ProbeTrackDT01	10	ProbeTrack	10.4	SCS215a	20100706.094424	20100706.094755	8	0.013312	60	0	60-180	60	119	NoGap	1	32	2	4	0	distractor	1	1280	360	16671	13.328	13.293	13.363
ProbeTrackDT01	10	ProbeTrack	10.4	SCS215a	20100706.094424	20100706.094802	8	0.013312	60	0	60-180	60	173	NoGap	1	33	2	75	0	distractor	1	720	640	17311	13.328	13.284	13.366
ProbeTrackDT01	10	ProbeTrack	10.4	SCS215a	20100706.094424	20100706.094809	8	0.013312	60	0	60-180	60	150	NoGap	1	34	2	4	0	distractor	1	720	640	17951	13.328	13.293	13.363
ProbeTrackDT01	10	ProbeTrack	10.4	SCS215a	20100706.094424	20100706.094815	8	0.013312	60	0	60-180	60	63	NoGap	1	35	2	75	0	distractor	1	680	660	18611	13.328	13.292	13.363
ProbeTrackDT01	10	ProbeTrack	10.4	SCS215a	20100706.094424	20100706.094821	8	0.013312	60	0	60-180	60	65	NoGap	1	36	2	0	1	target	1	760	620	19231	13.328	13.290	13.363
ProbeTrackDT01	10	ProbeTrack	10.4	SCS215a	20100706.094424	20100706.094825	8	0.013312	60	0	60-180	60	120	NoGap	1	37	2	0	0	distractor	1	680	660	19891	13.328	13.293	13.363
ProbeTrackDT01	10	ProbeTrack	10.4	SCS215a	20100706.094424	20100706.094831	8	0.013312	60	0	60-180	60	156	NoGap	1	38	2	0	1	target	1	480	760	20651	13.377	13.052	27.161
ProbeTrackDT01	10	ProbeTrack	10.4	SCS215a	20100706.094424	20100706.094837	8	0.013312	60	0	60-180	60	178	NoGap	1	39	2	1	0	distractor	1	667	667	21318	13.328	13.293	13.363
ProbeTrackDT01	10	ProbeTrack	10.4	SCS215a	20100706.094424	20100706.094843	8	0.013312	60	0	60-180	60	77	NoGap	1	40	2	4	1	target	1	600	700	22018	13.328	13.293	13.363
ProbeTrackDT01	10	ProbeTrack	10.4	SCS215a	20100706.094937	20100706.094946	8	0.013328	60	10	60-180	60	125	GapPrac	1	1	2	4	1	target	1	800	600	22618	13.328	13.288	13.366
ProbeTrackDT01	10	ProbeTrack	10.4	SCS215a	20100706.094937	20100706.094952	8	0.013328	60	10	60-180	60	122	GapPrac	1	2	2	2	1	distractor	0	1480	-1000	21618	13.328	13.293	13.363
ProbeTrackDT01	10	ProbeTrack	10.4	SCS215a	20100706.094937	20100706.094959	8	0.013328	60	10	60-180	60	107	GapPrac	1	3	2	75	1	distractor	0	973	-1000	20618	13.328	13.293	13.363
ProbeTrackDT01	10	ProbeTrack	10.4	SCS215a	20100706.094937	20100706.095005	8	0.013328	60	10	60-180	60	110	GapPrac	1	4	2	2	0	target	0	1666	-1000	19618	13.328	13.293	13.363
ProbeTrackDT01	10	ProbeTrack	10.4	SCS215a	20100706.094937	20100706.095012	8	0.013328	60	10	60-180	60	111	GapPrac	1	5	2	2	1	target	1	907	547	20165	13.328	13.293	13.363
ProbeTrackDT01	10	ProbeTrack	10.4	SCS215a	20100706.094937	20100706.095018	8	0.013328	60	10	60-180	60	92	GapPrac	1	6	2	0	0	distractor	1	733	634	20799	13.328	13.254	13.411
ProbeTrackDT01	10	ProbeTrack	10.4	SCS215a	20100706.094937	20100706.095023	8	0.013328	60	10	60-180	60	111	GapPrac	1	7	2	0	1	distractor	0	2066	-1000	19799	13.328	13.292	13.363
ProbeTrackDT01	10	ProbeTrack	10.4	SCS215a	20100706.094937	20100706.095030	8	0.013328	60	10	60-180	60	128	GapPrac	1	8	2	75	1	target	1	813	594	20393	13.328	13.293	13.363
ProbeTrackDT01	10	ProbeTrack	10.4	SCS215a	20100706.094937	20100706.095037	8	0.013328	60	10	60-180	60	129	GapPrac	1	9	2	4	0	distractor	1	627	687	21080	13.328	12.880	13.775
ProbeTrackDT01	10	ProbeTrack	10.4	SCS215a	20100706.094937	20100706.095043	8	0.013328	60	10	60-180	60	86	GapPrac	1	10	2	1	0	distractor	1	1187	407	21487	13.385	13.244	26.622
ProbeTrackDT01	10	ProbeTrack	10.4	SCS215a	20100706.094937	20100706.095049	8	0.013328	60	10	60-180	60	162	GapPrac	1	11	2	4	1	distractor	0	1573	-1000	20487	13.371	13.188	26.809
ProbeTrackDT01	10	ProbeTrack	10.4	SCS215a	20100706.094937	20100706.095056	8	0.013328	60	10	60-180	60	73	GapPrac	1	12	2	75	0	target	0	1133	-1000	19487	13.328	13.026	13.664
ProbeTrackDT01	10	ProbeTrack	10.4	SCS215a	20100706.094937	20100706.095102	8	0.013328	60	10	60-180	60	163	GapPrac	1	13	2	0	1	target	1	867	567	20054	13.328	13.100	13.590
ProbeTrackDT01	10	ProbeTrack	10.4	SCS215a	20100706.094937	20100706.095109	8	0.013328	60	10	60-180	60	177	GapPrac	1	14	2	75	0	distractor	1	720	640	20694	13.328	13.012	13.644
ProbeTrackDT01	10	ProbeTrack	10.4	SCS215a	20100706.094937	20100706.095116	8	0.013328	60	10	60-180	60	153	GapPrac	1	15	2	1	1	target	1	3226	0	20694	13.328	13.293	13.364
ProbeTrackDT01	10	ProbeTrack	10.4	SCS215a	20100706.094937	20100706.095125	8	0.013328	60	10	60-180	60	114	GapPrac	1	16	2	0	0	distractor	1	1293	354	21048	13.328	13.293	13.363
ProbeTrackDT01	10	ProbeTrack	10.4	SCS215a	20100706.094937	20100706.095131	8	0.013328	60	10	60-180	60	112	GapPrac	1	17	2	1	0	distractor	1	813	594	21642	13.328	13.253	13.402
ProbeTrackDT01	10	ProbeTrack	10.4	SCS215a	20100706.094937	20100706.095137	8	0.013328	60	10	60-180	60	67	GapPrac	1	18	2	1	1	target	1	880	560	22202	13.328	13.158	13.421
ProbeTrackDT01	10	ProbeTrack	10.4	SCS215a	20100706.094937	20100706.095142	8	0.013328	60	10	60-180	60	120	GapPrac	1	19	2	2	0	distractor	1	787	607	22809	13.328	13.293	13.363
ProbeTrackDT01	10	ProbeTrack	10.4	SCS215a	20100706.094937	20100706.095148	8	0.013328	60	10	60-180	60	113	GapPrac	1	20	2	4	0	distractor	1	2466	0	22809	13.328	13.293	13.363
ProbeTrackDT01	10	ProbeTrack	10.4	SCS215a	20100706.095221	20100706.095225	8	0.013328	60	10	60-180	60	117	GapPrac	1	1	2	2	0	distractor	1	1573	214	23023	13.328	13.271	13.364
ProbeTrackDT01	10	ProbeTrack	10.4	SCS215a	20100706.095221	20100706.095231	8	0.013328	60	10	60-180	60	175	GapPrac	1	2	2	1	0	target	0	1466	-1000	22023	13.328	13.293	13.363
ProbeTrackDT01	10	ProbeTrack	10.4	SCS215a	20100706.095221	20100706.095239	8	0.013328	60	10	60-180	60	76	GapPrac	1	3	2	0	0	target	0	1067	-1000	21023	13.328	13.211	13.480
ProbeTrackDT01	10	ProbeTrack	10.4	SCS215a	20100706.095221	20100706.095244	8	0.013328	60	10	60-180	60	128	GapPrac	1	4	2	2	1	target	1	693	654	21677	13.328	13.293	13.366
ProbeTrackDT01	10	ProbeTrack	10.4	SCS215a	20100706.095221	20100706.095250	8	0.013328	60	10	60-180	60	85	GapPrac	1	5	2	75	1	target	1	707	647	22324	13.328	13.263	13.364
ProbeTrackDT01	10	ProbeTrack	10.4	SCS215a	20100706.095221	20100706.095256	8	0.013328	60	10	60-180	60	172	GapPrac	1	6	2	0	0	distractor	1	627	687	23011	13.328	13.293	13.363
ProbeTrackDT01	10	ProbeTrack	10.4	SCS215a	20100706.095221	20100706.095302	8	0.013328	60	10	60-180	60	89	GapPrac	1	7	2	4	1	target	1	520	740	23751	13.328	13.160	13.470
ProbeTrackDT01	10	ProbeTrack	10.4	SCS215a	20100706.095221	20100706.095308	8	0.013328	60	10	60-180	60	172	GapPrac	1	8	2	1	0	distractor	1	587	707	24458	13.328	13.247	13.409
ProbeTrackDT01	10	ProbeTrack	10.4	SCS215a	20100706.095221	20100706.095314	8	0.013328	60	10	60-180	60	136	GapPrac	1	9	2	1	1	target	1	787	607	25065	13.328	13.251	13.405
ProbeTrackDT01	10	ProbeTrack	10.4	SCS215a	20100706.095221	20100706.095320	8	0.013328	60	10	60-180	60	69	GapPrac	1	10	2	2	1	target	1	680	660	25725	13.328	13.293	13.363
ProbeTrackDT01	10	ProbeTrack	10.4	SCS215a	20100706.095221	20100706.095325	8	0.013328	60	10	60-180	60	149	GapPrac	1	11	2	4	0	distractor	1	574	713	26438	13.328	13.289	13.366
ProbeTrackDT01	10	ProbeTrack	10.4	SCS215a	20100706.095221	20100706.095331	8	0.013328	60	10	60-180	60	97	GapPrac	1	12	2	1	1	target	1	587	707	27145	13.328	13.293	13.367
ProbeTrackDT01	10	ProbeTrack	10.4	SCS215a	20100706.095221	20100706.095336	8	0.013328	60	10	60-180	60	112	GapPrac	1	13	2	75	0	distractor	1	654	673	27818	13.328	13.293	13.363
ProbeTrackDT01	10	ProbeTrack	10.4	SCS215a	20100706.095221	20100706.095343	8	0.013328	60	10	60-180	60	123	GapPrac	1	14	2	4	0	distractor	1	760	620	28438	13.328	13.292	13.363
ProbeTrackDT01	10	ProbeTrack	10.4	SCS215a	20100706.095221	20100706.095349	8	0.013328	60	10	60-180	60	159	GapPrac	1	15	2	0	1	target	1	707	647	29085	13.328	13.212	13.478
ProbeTrackDT01	10	ProbeTrack	10.4	SCS215a	20100706.095221	20100706.095355	8	0.013328	60	10	60-180	60	77	GapPrac	1	16	2	2	0	distractor	1	787	607	29692	13.328	13.291	13.363
ProbeTrackDT01	10	ProbeTrack	10.4	SCS215a	20100706.095221	20100706.095400	8	0.013328	60	10	60-180	60	64	GapPrac	1	17	2	0	1	target	1	693	654	30346	13.328	13.293	13.363
ProbeTrackDT01	10	ProbeTrack	10.4	SCS215a	20100706.095221	20100706.095405	8	0.013328	60	10	60-180	60	74	GapPrac	1	18	2	75	0	distractor	1	773	614	30960	13.328	13.230	13.459
ProbeTrackDT01	10	ProbeTrack	10.4	SCS215a	20100706.095221	20100706.095411	8	0.013328	60	10	60-180	60	171	GapPrac	1	19	2	75	1	target	1	693	654	31614	13.328	13.280	13.376
ProbeTrackDT01	10	ProbeTrack	10.4	SCS215a	20100706.095221	20100706.095419	8	0.013328	60	10	60-180	60	140	GapPrac	1	20	2	4	1	target	1	853	574	32188	13.328	12.970	13.685
ProbeTrackDT01	10	ProbeTrack	10.4	SCS215a	20100706.095549	20100706.095605	8	0.013328	60	10	60-180	60	170	GapExp	1	1	2	0	1	target	1	1666	167	32355	13.328	13.293	13.363
ProbeTrackDT01	10	ProbeTrack	10.4	SCS215a	20100706.095549	20100706.095612	8	0.013328	60	10	60-180	60	155	GapExp	1	2	2	0	0	distractor	1	653	674	33029	13.328	13.015	13.674
ProbeTrackDT01	10	ProbeTrack	10.4	SCS215a	20100706.095549	20100706.095618	8	0.013328	60	10	60-180	60	172	GapExp	1	3	2	75	0	distractor	1	4998	0	33029	13.328	13.150	13.475
ProbeTrackDT01	10	ProbeTrack	10.4	SCS215a	20100706.095549	20100706.095630	8	0.013328	60	10	60-180	60	163	GapExp	1	4	2	4	0	target	0	2639	-1000	32029	13.328	13.293	13.363
ProbeTrackDT01	10	ProbeTrack	10.4	SCS215a	20100706.095549	20100706.095638	8	0.013328	60	10	60-180	60	154	GapExp	1	5	2	4	1	distractor	0	5012	-1000	31029	13.328	13.293	13.363
ProbeTrackDT01	10	ProbeTrack	10.4	SCS215a	20100706.095549	20100706.095649	8	0.013328	60	10	60-180	60	179	GapExp	1	6	2	2	0	distractor	1	3492	0	31029	13.328	13.293	13.363
ProbeTrackDT01	10	ProbeTrack	10.4	SCS215a	20100706.095549	20100706.095658	8	0.013328	60	10	60-180	60	89	GapExp	1	7	2	75	1	target	1	1840	80	31109	13.328	13.293	13.363
ProbeTrackDT01	10	ProbeTrack	10.4	SCS215a	20100706.095549	20100706.095706	8	0.013328	60	10	60-180	60	179	GapExp	1	8	2	1	0	distractor	1	3132	0	31109	13.328	13.293	13.385
ProbeTrackDT01	10	ProbeTrack	10.4	SCS215a	20100706.095549	20100706.095714	8	0.013328	60	10	60-180	60	158	GapExp	1	9	2	2	1	target	1	2453	0	31109	13.328	13.293	13.363
ProbeTrackDT01	10	ProbeTrack	10.4	SCS215a	20100706.095549	20100706.095722	8	0.013328	60	10	60-180	60	168	GapExp	1	10	2	1	1	distractor	0	11356	-1000	30109	13.328	13.293	13.363
ProbeTrackDT01	10	ProbeTrack	10.4	SCS215a	20100706.095549	20100706.095740	8	0.013328	60	10	60-180	60	116	GapExp	0	11	2	2	0	distractor	1	3772	0	30109	13.328	13.104	13.585
ProbeTrackDT01	10	ProbeTrack	10.4	SCS215a	20100706.095549	20100706.095748	8	0.013328	60	10	60-180	60	106	GapExp	0	12	2	4	1	target	1	3439	0	30109	13.328	13.202	13.452
ProbeTrackDT01	10	ProbeTrack	10.4	SCS215a	20100706.095549	20100706.095757	8	0.013328	60	10	60-180	60	99	GapExp	0	13	2	1	1	distractor	0	3146	-1000	29109	13.328	13.017	13.639
ProbeTrackDT01	10	ProbeTrack	10.4	SCS215a	20100706.095549	20100706.095804	8	0.013328	60	10	60-180	60	113	GapExp	0	14	2	0	1	target	1	4892	0	29109	13.328	13.293	13.363
ProbeTrackDT01	10	ProbeTrack	10.4	SCS215a	20100706.095549	20100706.095814	8	0.013328	60	10	60-180	60	129	GapExp	0	15	2	0	1	target	1	2826	0	29109	13.328	13.293	13.363
ProbeTrackDT01	10	ProbeTrack	10.4	SCS215a	20100706.095549	20100706.095822	8	0.013328	60	10	60-180	60	120	GapExp	0	16	2	4	1	target	1	11915	0	29109	13.328	13.293	13.363
ProbeTrackDT01	10	ProbeTrack	10.4	SCS215a	20100706.095549	20100706.095839	8	0.013328	60	10	60-180	60	173	GapExp	0	17	2	2	1	distractor	0	2453	-1000	28109	13.328	13.293	13.363
ProbeTrackDT01	10	ProbeTrack	10.4	SCS215a	20100706.095549	20100706.095847	8	0.013328	60	10	60-180	60	166	GapExp	0	18	2	75	0	target	0	2746	-1000	27109	13.328	13.289	13.366
ProbeTrackDT01	10	ProbeTrack	10.4	SCS215a	20100706.095549	20100706.095857	8	0.013328	60	10	60-180	60	175	GapExp	0	19	2	0	1	target	1	5665	0	27109	13.328	12.987	13.668
ProbeTrackDT01	10	ProbeTrack	10.4	SCS215a	20100706.095549	20100706.095908	8	0.013328	60	10	60-180	60	75	GapExp	0	20	2	4	0	distractor	1	1973	14	27123	13.328	13.293	13.362
ProbeTrackDT01	10	ProbeTrack	10.4	SCS215a	20100706.095549	20100706.095915	8	0.013328	60	10	60-180	60	149	GapExp	0	21	2	4	1	target	1	2693	0	27123	13.328	13.109	13.579
ProbeTrackDT01	10	ProbeTrack	10.4	SCS215a	20100706.095549	20100706.095923	8	0.013328	60	10	60-180	60	103	GapExp	0	22	2	75	1	target	1	9130	0	27123	13.328	13.290	13.366
ProbeTrackDT01	10	ProbeTrack	10.4	SCS215a	20100706.095549	20100706.095938	8	0.013328	60	10	60-180	60	86	GapExp	0	23	2	1	0	distractor	1	3932	0	27123	13.328	13.293	13.363
ProbeTrackDT01	10	ProbeTrack	10.4	SCS215a	20100706.095549	20100706.095946	8	0.013328	60	10	60-180	60	174	GapExp	0	24	2	75	0	distractor	1	5265	0	27123	13.328	13.293	13.363
ProbeTrackDT01	10	ProbeTrack	10.4	SCS215a	20100706.095549	20100706.095958	8	0.013328	60	10	60-180	60	148	GapExp	0	25	2	4	1	distractor	0	2706	-1000	26123	13.328	13.289	13.365
ProbeTrackDT01	10	ProbeTrack	10.4	SCS215a	20100706.095549	20100706.100006	8	0.013328	60	10	60-180	60	89	GapExp	0	26	2	75	1	target	1	4865	0	26123	13.328	12.959	13.696
ProbeTrackDT01	10	ProbeTrack	10.4	SCS215a	20100706.095549	20100706.100017	8	0.013328	60	10	60-180	60	62	GapExp	0	27	2	2	0	target	0	3759	-1000	25123	13.328	13.293	13.363
ProbeTrackDT01	10	ProbeTrack	10.4	SCS215a	20100706.095549	20100706.100025	8	0.013328	60	10	60-180	60	161	GapExp	0	28	2	2	1	distractor	0	5225	-1000	24123	13.328	13.204	13.417
ProbeTrackDT01	10	ProbeTrack	10.4	SCS215a	20100706.095549	20100706.100036	8	0.013328	60	10	60-180	60	85	GapExp	0	29	2	75	0	distractor	1	3452	0	24123	13.328	13.288	13.400
ProbeTrackDT01	10	ProbeTrack	10.4	SCS215a	20100706.095549	20100706.100045	8	0.013328	60	10	60-180	60	176	GapExp	0	30	2	2	0	distractor	1	3972	0	24123	13.328	13.171	13.485
ProbeTrackDT01	10	ProbeTrack	10.4	SCS215a	20100706.095549	20100706.100054	8	0.013328	60	10	60-180	60	104	GapExp	0	31	2	75	1	target	1	3479	0	24123	13.328	13.293	13.363
ProbeTrackDT01	10	ProbeTrack	10.4	SCS215a	20100706.095549	20100706.100104	8	0.013328	60	10	60-180	60	85	GapExp	0	32	2	1	1	target	1	4239	0	24123	13.328	13.293	13.363
ProbeTrackDT01	10	ProbeTrack	10.4	SCS215a	20100706.095549	20100706.100112	8	0.013328	60	10	60-180	60	95	GapExp	0	33	2	2	1	target	1	2746	0	24123	13.328	13.059	13.596
ProbeTrackDT01	10	ProbeTrack	10.4	SCS215a	20100706.095549	20100706.100120	8	0.013328	60	10	60-180	60	98	GapExp	0	34	2	75	0	distractor	1	3492	0	24123	13.328	13.293	13.363
ProbeTrackDT01	10	ProbeTrack	10.4	SCS215a	20100706.095549	20100706.100129	8	0.013328	60	10	60-180	60	180	GapExp	0	35	2	4	1	target	1	3599	0	24123	13.328	13.293	13.363
ProbeTrackDT01	10	ProbeTrack	10.4	SCS215a	20100706.095549	20100706.100139	8	0.013328	60	10	60-180	60	135	GapExp	0	36	2	1	0	target	0	5065	-1000	23123	13.328	13.166	13.489
ProbeTrackDT01	10	ProbeTrack	10.4	SCS215a	20100706.095549	20100706.100149	8	0.013328	60	10	60-180	60	135	GapExp	0	37	2	4	0	distractor	1	4385	0	23123	13.328	13.293	13.363
ProbeTrackDT01	10	ProbeTrack	10.4	SCS215a	20100706.095549	20100706.100158	8	0.013328	60	10	60-180	60	180	GapExp	0	38	2	2	0	distractor	1	4585	0	23123	13.328	13.238	13.419
ProbeTrackDT01	10	ProbeTrack	10.4	SCS215a	20100706.095549	20100706.100209	8	0.013328	60	10	60-180	60	158	GapExp	0	39	2	1	1	target	1	2813	0	23123	13.328	13.190	13.500
ProbeTrackDT01	10	ProbeTrack	10.4	SCS215a	20100706.095549	20100706.100217	8	0.013328	60	10	60-180	60	118	GapExp	0	40	2	2	1	target	1	8650	0	23123	13.328	13.293	13.363
ProbeTrackDT01	10	ProbeTrack	10.4	SCS215a	20100706.095549	20100706.100231	8	0.013328	60	10	60-180	60	179	GapExp	0	41	2	0	1	target	1	9716	0	23123	13.328	13.293	13.363
ProbeTrackDT01	10	ProbeTrack	10.4	SCS215a	20100706.095549	20100706.100246	8	0.013328	60	10	60-180	60	173	GapExp	0	42	2	75	0	distractor	1	6944	0	23123	13.328	13.289	13.366
ProbeTrackDT01	10	ProbeTrack	10.4	SCS215a	20100706.095549	20100706.100300	8	0.013328	60	10	60-180	60	90	GapExp	0	43	2	2	0	target	0	5571	-1000	22123	13.328	13.255	13.390
ProbeTrackDT01	10	ProbeTrack	10.4	SCS215a	20100706.095549	20100706.100310	8	0.013328	60	10	60-180	60	112	GapExp	0	44	2	2	1	target	1	7411	0	22123	13.328	13.195	13.461
ProbeTrackDT01	10	ProbeTrack	10.4	SCS215a	20100706.095549	20100706.100323	8	0.013328	60	10	60-180	60	116	GapExp	0	45	2	2	0	distractor	1	6065	0	22123	13.328	13.293	13.363
ProbeTrackDT01	10	ProbeTrack	10.4	SCS215a	20100706.095549	20100706.100334	8	0.013328	60	10	60-180	60	74	GapExp	0	46	2	4	1	target	1	6318	0	22123	13.328	13.186	13.468
ProbeTrackDT01	10	ProbeTrack	10.4	SCS215a	20100706.095549	20100706.100344	8	0.013328	60	10	60-180	60	170	GapExp	0	47	2	2	0	target	0	5331	-1000	21123	13.328	13.293	13.363
ProbeTrackDT01	10	ProbeTrack	10.4	SCS215a	20100706.095549	20100706.100355	8	0.013328	60	10	60-180	60	115	GapExp	0	48	2	75	1	target	1	3972	0	21123	13.328	13.293	13.363
ProbeTrackDT01	10	ProbeTrack	10.4	SCS215a	20100706.095549	20100706.100405	8	0.013328	60	10	60-180	60	180	GapExp	0	49	2	2	1	target	1	5531	0	21123	13.328	13.206	13.416
ProbeTrackDT01	10	ProbeTrack	10.4	SCS215a	20100706.095549	20100706.100417	8	0.013328	60	10	60-180	60	176	GapExp	0	50	2	0	0	distractor	1	5225	0	21123	13.328	13.289	13.366
ProbeTrackDT01	10	ProbeTrack	10.4	SCS215a	20100706.095549	20100706.100440	8	0.013328	60	10	60-180	60	149	GapExp	0	51	2	0	1	target	1	6331	0	21123	13.328	13.074	13.582
ProbeTrackDT01	10	ProbeTrack	10.4	SCS215a	20100706.095549	20100706.100451	8	0.013328	60	10	60-180	60	159	GapExp	0	52	2	2	0	distractor	1	8224	0	21123	13.328	13.289	13.368
ProbeTrackDT01	10	ProbeTrack	10.4	SCS215a	20100706.095549	20100706.100505	8	0.013328	60	10	60-180	60	164	GapExp	0	53	2	4	0	distractor	1	4199	0	21123	13.328	13.285	13.370
ProbeTrackDT01	10	ProbeTrack	10.4	SCS215a	20100706.095549	20100706.100515	8	0.013328	60	10	60-180	60	118	GapExp	0	54	2	0	0	distractor	1	4545	0	21123	13.328	13.293	13.364
ProbeTrackDT01	10	ProbeTrack	10.4	SCS215a	20100706.095549	20100706.100525	8	0.013328	60	10	60-180	60	164	GapExp	0	55	2	75	1	target	1	4745	0	21123	13.328	13.293	13.363
ProbeTrackDT01	10	ProbeTrack	10.4	SCS215a	20100706.095549	20100706.100536	8	0.013328	60	10	60-180	60	62	GapExp	0	56	2	4	0	distractor	1	5318	0	21123	13.328	13.293	13.364
ProbeTrackDT01	10	ProbeTrack	10.4	SCS215a	20100706.095549	20100706.100546	8	0.013328	60	10	60-180	60	121	GapExp	0	57	2	4	1	target	1	3492	0	21123	13.328	12.994	13.627
ProbeTrackDT01	10	ProbeTrack	10.4	SCS215a	20100706.095549	20100706.100554	8	0.013328	60	10	60-180	60	74	GapExp	0	58	2	4	0	distractor	1	4958	0	21123	13.328	13.293	13.363
ProbeTrackDT01	10	ProbeTrack	10.4	SCS215a	20100706.095549	20100706.100604	8	0.013328	60	10	60-180	60	81	GapExp	0	59	2	2	0	distractor	1	5291	0	21123	13.328	13.292	13.363
ProbeTrackDT01	10	ProbeTrack	10.4	SCS215a	20100706.095549	20100706.100613	8	0.013328	60	10	60-180	60	105	GapExp	0	60	2	1	0	distractor	1	5905	0	21123	13.328	13.293	13.363
ProbeTrackDT01	10	ProbeTrack	10.4	SCS215a	20100706.095549	20100706.100624	8	0.013328	60	10	60-180	60	144	GapExp	0	61	2	75	0	target	0	4199	-1000	20123	13.328	13.234	13.399
ProbeTrackDT01	10	ProbeTrack	10.4	SCS215a	20100706.095549	20100706.100635	8	0.013328	60	10	60-180	60	154	GapExp	0	62	2	4	0	distractor	1	5065	0	20123	13.328	13.293	13.376
ProbeTrackDT01	10	ProbeTrack	10.4	SCS215a	20100706.095549	20100706.100645	8	0.013328	60	10	60-180	60	144	GapExp	0	63	2	1	0	distractor	1	4852	0	20123	13.328	13.273	13.388
ProbeTrackDT01	10	ProbeTrack	10.4	SCS215a	20100706.095549	20100706.100655	8	0.013328	60	10	60-180	60	116	GapExp	0	64	2	1	0	distractor	1	6171	0	20123	13.328	13.130	13.528
ProbeTrackDT01	10	ProbeTrack	10.4	SCS215a	20100706.095549	20100706.100707	8	0.013328	60	10	60-180	60	71	GapExp	0	65	2	75	0	target	0	2186	-1000	19123	13.374	12.835	26.234
ProbeTrackDT01	10	ProbeTrack	10.4	SCS215a	20100706.095549	20100706.100714	8	0.013328	60	10	60-180	60	88	GapExp	0	66	2	0	0	distractor	1	5238	0	19123	13.328	13.293	13.363
ProbeTrackDT01	10	ProbeTrack	10.4	SCS215a	20100706.095549	20100706.100724	8	0.013328	60	10	60-180	60	90	GapExp	0	67	2	2	1	target	1	3719	0	19123	13.328	13.293	13.363
ProbeTrackDT01	10	ProbeTrack	10.4	SCS215a	20100706.095549	20100706.100732	8	0.013328	60	10	60-180	60	125	GapExp	0	68	2	75	0	distractor	1	2519	0	19123	13.328	13.197	13.425
ProbeTrackDT01	10	ProbeTrack	10.4	SCS215a	20100706.095549	20100706.100741	8	0.013328	60	10	60-180	60	88	GapExp	0	69	2	0	0	distractor	1	6411	0	19123	13.328	13.232	13.503
ProbeTrackDT01	10	ProbeTrack	10.4	SCS215a	20100706.095549	20100706.100752	8	0.013328	60	10	60-180	60	86	GapExp	0	70	2	0	0	distractor	1	3705	0	19123	13.328	13.293	13.363
ProbeTrackDT01	10	ProbeTrack	10.4	SCS215a	20100706.095549	20100706.100800	8	0.013328	60	10	60-180	60	121	GapExp	0	71	2	0	1	target	1	4785	0	19123	13.328	13.293	13.363
ProbeTrackDT01	10	ProbeTrack	10.4	SCS215a	20100706.095549	20100706.100810	8	0.013328	60	10	60-180	60	148	GapExp	0	72	2	1	1	target	1	5478	0	19123	13.328	13.169	13.453
ProbeTrackDT01	10	ProbeTrack	10.4	SCS215a	20100706.095549	20100706.100821	8	0.013328	60	10	60-180	60	118	GapExp	0	73	2	4	1	target	1	3052	0	19123	13.328	13.056	13.632
ProbeTrackDT01	10	ProbeTrack	10.4	SCS215a	20100706.095549	20100706.100829	8	0.013328	60	10	60-180	60	130	GapExp	0	74	2	75	1	target	1	2280	0	19123	13.328	12.977	13.683
ProbeTrackDT01	10	ProbeTrack	10.4	SCS215a	20100706.095549	20100706.100837	8	0.013328	60	10	60-180	60	125	GapExp	0	75	2	4	0	distractor	1	5571	0	19123	13.328	13.215	13.408
ProbeTrackDT01	10	ProbeTrack	10.4	SCS215a	20100706.095549	20100706.100848	8	0.013328	60	10	60-180	60	162	GapExp	0	76	2	4	0	distractor	1	6584	0	19123	13.328	12.966	13.689
ProbeTrackDT01	10	ProbeTrack	10.4	SCS215a	20100706.095549	20100706.100900	8	0.013328	60	10	60-180	60	152	GapExp	0	77	2	1	0	distractor	1	6038	0	19123	13.328	13.292	13.363
ProbeTrackDT01	10	ProbeTrack	10.4	SCS215a	20100706.095549	20100706.100912	8	0.013328	60	10	60-180	60	123	GapExp	0	78	2	2	0	distractor	1	4612	0	19123	13.328	13.100	13.556
ProbeTrackDT01	10	ProbeTrack	10.4	SCS215a	20100706.095549	20100706.100921	8	0.013328	60	10	60-180	60	75	GapExp	0	79	2	2	1	target	1	4105	0	19123	13.868	12.880	40.346
ProbeTrackDT01	10	ProbeTrack	10.4	SCS215a	20100706.095549	20100706.100930	8	0.013328	60	10	60-180	60	121	GapExp	0	80	2	75	0	distractor	1	8997	0	19123	13.328	13.246	13.409
ProbeTrackDT01	10	ProbeTrack	10.4	SCS215a	20100706.095549	20100706.100945	8	0.013328	60	10	60-180	60	115	GapExp	0	81	2	1	0	distractor	1	3172	0	19123	13.328	12.989	13.699
ProbeTrackDT01	10	ProbeTrack	10.4	SCS215a	20100706.095549	20100706.100953	8	0.013328	60	10	60-180	60	180	GapExp	0	82	2	4	1	target	1	3732	0	19123	13.328	13.293	13.363
ProbeTrackDT01	10	ProbeTrack	10.4	SCS215a	20100706.095549	20100706.101003	8	0.013328	60	10	60-180	60	70	GapExp	0	83	2	4	1	target	1	7864	0	19123	13.328	13.293	13.364
ProbeTrackDT01	10	ProbeTrack	10.4	SCS215a	20100706.095549	20100706.101015	8	0.013328	60	10	60-180	60	132	GapExp	0	84	2	4	0	distractor	1	6864	0	19123	13.328	13.083	13.571
ProbeTrackDT01	10	ProbeTrack	10.4	SCS215a	20100706.095549	20100706.101027	8	0.013328	60	10	60-180	60	64	GapExp	0	85	2	75	0	distractor	1	6185	0	19123	13.328	13.282	13.372
ProbeTrackDT01	10	ProbeTrack	10.4	SCS215a	20100706.095549	20100706.101039	8	0.013328	60	10	60-180	60	156	GapExp	0	86	2	0	0	distractor	1	2919	0	19123	13.328	13.095	13.528
ProbeTrackDT01	10	ProbeTrack	10.4	SCS215a	20100706.095549	20100706.101047	8	0.013328	60	10	60-180	60	122	GapExp	0	87	2	0	1	target	1	20752	0	19123	13.328	13.022	13.666
ProbeTrackDT01	10	ProbeTrack	10.4	SCS215a	20100706.095549	20100706.101113	8	0.013328	60	10	60-180	60	156	GapExp	0	88	2	2	1	target	1	4478	0	19123	13.328	13.293	13.365
ProbeTrackDT01	10	ProbeTrack	10.4	SCS215a	20100706.095549	20100706.101123	8	0.013328	60	10	60-180	60	179	GapExp	0	89	2	2	1	target	1	3386	0	19123	13.450	13.070	26.826
ProbeTrackDT01	10	ProbeTrack	10.4	SCS215a	20100706.095549	20100706.101132	8	0.013328	60	10	60-180	60	74	GapExp	0	90	2	1	1	target	1	3799	0	19123	13.328	13.291	13.364
ProbeTrackDT01	10	ProbeTrack	10.4	SCS215a	20100706.095549	20100706.101140	8	0.013328	60	10	60-180	60	104	GapExp	0	91	2	4	1	target	1	5132	0	19123	13.328	13.235	13.455
ProbeTrackDT01	10	ProbeTrack	10.4	SCS215a	20100706.095549	20100706.101150	8	0.013328	60	10	60-180	60	149	GapExp	0	92	2	1	1	distractor	0	6691	-1000	18123	13.328	13.233	13.390
ProbeTrackDT01	10	ProbeTrack	10.4	SCS215a	20100706.095549	20100706.101202	8	0.013328	60	10	60-180	60	72	GapExp	0	93	2	75	0	distractor	1	5505	0	18123	13.328	13.293	13.363
ProbeTrackDT01	10	ProbeTrack	10.4	SCS215a	20100706.095549	20100706.101213	8	0.013328	60	10	60-180	60	103	GapExp	0	94	2	1	0	distractor	1	5451	0	18123	13.702	12.896	39.888
ProbeTrackDT01	10	ProbeTrack	10.4	SCS215a	20100706.095549	20100706.101223	8	0.013328	60	10	60-180	60	167	GapExp	0	95	2	4	1	target	1	2119	0	18123	13.328	13.268	13.369
ProbeTrackDT01	10	ProbeTrack	10.4	SCS215a	20100706.095549	20100706.101231	8	0.013328	60	10	60-180	60	99	GapExp	0	96	2	75	1	target	1	4585	0	18123	13.328	13.076	13.579
ProbeTrackDT01	10	ProbeTrack	10.4	SCS215a	20100706.095549	20100706.101242	8	0.013328	60	10	60-180	60	126	GapExp	0	97	2	2	1	target	1	4905	0	18123	13.328	13.293	13.363
ProbeTrackDT01	10	ProbeTrack	10.4	SCS215a	20100706.095549	20100706.101252	8	0.013328	60	10	60-180	60	118	GapExp	0	98	2	0	1	target	1	4345	0	18123	13.328	13.293	13.363
ProbeTrackDT01	10	ProbeTrack	10.4	SCS215a	20100706.095549	20100706.101301	8	0.013328	60	10	60-180	60	75	GapExp	0	99	2	1	1	target	1	4332	0	18123	13.328	13.279	13.363
ProbeTrackDT01	10	ProbeTrack	10.4	SCS215a	20100706.095549	20100706.101310	8	0.013328	60	10	60-180	60	76	GapExp	0	100	2	0	0	distractor	1	12275	0	18123	13.328	13.293	13.363
ProbeTrackDT01	10	ProbeTrack	10.4	SCS215a	20100706.095549	20100706.101400	8	0.013328	60	10	60-180	60	119	GapExp	0	101	2	4	0	distractor	1	3652	0	18123	13.328	13.293	13.363
ProbeTrackDT01	10	ProbeTrack	10.4	SCS215a	20100706.095549	20100706.101408	8	0.013328	60	10	60-180	60	99	GapExp	0	102	2	75	1	target	1	5385	0	18123	13.328	13.293	13.366
ProbeTrackDT01	10	ProbeTrack	10.4	SCS215a	20100706.095549	20100706.101419	8	0.013328	60	10	60-180	60	86	GapExp	0	103	2	0	1	target	1	3985	0	18123	13.328	13.293	13.363
ProbeTrackDT01	10	ProbeTrack	10.4	SCS215a	20100706.095549	20100706.101428	8	0.013328	60	10	60-180	60	164	GapExp	0	104	2	1	1	target	1	2719	0	18123	13.328	13.200	13.456
ProbeTrackDT01	10	ProbeTrack	10.4	SCS215a	20100706.095549	20100706.101436	8	0.013328	60	10	60-180	60	78	GapExp	0	105	2	4	0	distractor	1	5012	0	18123	13.328	13.281	13.375
ProbeTrackDT01	10	ProbeTrack	10.4	SCS215a	20100706.095549	20100706.101446	8	0.013328	60	10	60-180	60	154	GapExp	0	106	2	0	1	target	1	3825	0	18123	13.328	13.293	13.363
ProbeTrackDT01	10	ProbeTrack	10.4	SCS215a	20100706.095549	20100706.101455	8	0.013328	60	10	60-180	60	88	GapExp	0	107	2	0	1	target	1	3932	0	18123	13.328	13.293	13.363
ProbeTrackDT01	10	ProbeTrack	10.4	SCS215a	20100706.095549	20100706.101504	8	0.013328	60	10	60-180	60	106	GapExp	0	108	2	1	1	target	1	4385	0	18123	13.328	12.984	13.672
ProbeTrackDT01	10	ProbeTrack	10.4	SCS215a	20100706.095549	20100706.101513	8	0.013328	60	10	60-180	60	179	GapExp	0	109	2	0	0	distractor	1	6238	0	18123	13.328	13.293	13.363
ProbeTrackDT01	10	ProbeTrack	10.4	SCS215a	20100706.095549	20100706.101525	8	0.013328	60	10	60-180	60	73	GapExp	0	110	2	75	1	target	1	4412	0	18123	13.328	13.293	13.363
ProbeTrackDT01	10	ProbeTrack	10.4	SCS215a	20100706.095549	20100706.101535	8	0.013328	60	10	60-180	60	65	GapExp	0	111	2	75	1	target	1	933	534	18657	13.328	13.278	13.411
ProbeTrackDT01	10	ProbeTrack	10.4	SCS215a	20100706.095549	20100706.101541	8	0.013328	60	10	60-180	60	107	GapExp	0	112	2	75	1	target	1	867	567	19224	13.328	13.204	13.451
ProbeTrackDT01	10	ProbeTrack	10.4	SCS215a	20100706.095549	20100706.101548	8	0.013328	60	10	60-180	60	76	GapExp	0	113	2	1	0	distractor	1	3959	0	19224	13.328	13.242	13.448
ProbeTrackDT01	10	ProbeTrack	10.4	SCS215a	20100706.095549	20100706.101556	8	0.013328	60	10	60-180	60	113	GapExp	0	114	2	75	0	distractor	1	9490	0	19224	13.328	13.159	13.530
ProbeTrackDT01	10	ProbeTrack	10.4	SCS215a	20100706.095549	20100706.101611	8	0.013328	60	10	60-180	60	158	GapExp	0	115	2	4	1	target	1	2093	0	19224	13.328	13.293	13.363
ProbeTrackDT01	10	ProbeTrack	10.4	SCS215a	20100706.095549	20100706.101619	8	0.013328	60	10	60-180	60	134	GapExp	0	116	2	75	1	target	1	4412	0	19224	13.328	13.256	13.399
ProbeTrackDT01	10	ProbeTrack	10.4	SCS215a	20100706.095549	20100706.101630	8	0.013328	60	10	60-180	60	172	GapExp	0	117	2	0	0	target	0	2719	-1000	18224	13.328	13.292	13.363
ProbeTrackDT01	10	ProbeTrack	10.4	SCS215a	20100706.095549	20100706.101638	8	0.013328	60	10	60-180	60	177	GapExp	0	118	2	1	0	distractor	1	3492	0	18224	13.328	13.183	13.440
ProbeTrackDT01	10	ProbeTrack	10.4	SCS215a	20100706.095549	20100706.101647	8	0.013328	60	10	60-180	60	169	GapExp	0	119	2	2	0	distractor	1	840	580	18804	13.328	13.289	13.363
ProbeTrackDT01	10	ProbeTrack	10.4	SCS215a	20100706.095549	20100706.101654	8	0.013328	60	10	60-180	60	99	GapExp	0	120	2	1	1	target	1	4225	0	18804	13.328	13.041	13.615
ProbeTrackDT01	10	ProbeTrack	10.4	SCS215a	20100706.095549	20100706.101703	8	0.013328	60	10	60-180	60	121	GapExp	0	121	2	4	1	distractor	0	2959	-1000	17804	13.328	13.247	13.443
ProbeTrackDT01	10	ProbeTrack	10.4	SCS215a	20100706.095549	20100706.101711	8	0.013328	60	10	60-180	60	140	GapExp	0	122	2	75	0	distractor	1	6691	0	17804	13.328	13.293	13.376
ProbeTrackDT01	10	ProbeTrack	10.4	SCS215a	20100706.095549	20100706.101724	8	0.013328	60	10	60-180	60	126	GapExp	0	123	2	4	0	distractor	1	4878	0	17804	13.328	13.250	13.372
ProbeTrackDT01	10	ProbeTrack	10.4	SCS215a	20100706.095549	20100706.101734	8	0.013328	60	10	60-180	60	64	GapExp	0	124	2	75	1	target	1	2093	0	17804	13.328	13.293	13.364
ProbeTrackDT01	10	ProbeTrack	10.4	SCS215a	20100706.095549	20100706.101741	8	0.013328	60	10	60-180	60	76	GapExp	0	125	2	2	1	target	1	4532	0	17804	13.328	13.271	13.384
ProbeTrackDT01	10	ProbeTrack	10.4	SCS215a	20100706.095549	20100706.101750	8	0.013328	60	10	60-180	60	150	GapExp	0	126	2	0	0	distractor	1	1680	160	17964	13.328	13.163	13.494
ProbeTrackDT01	10	ProbeTrack	10.4	SCS215a	20100706.095549	20100706.101757	8	0.013328	60	10	60-180	60	74	GapExp	0	127	2	2	1	target	1	2426	0	17964	13.328	13.293	13.362
ProbeTrackDT01	10	ProbeTrack	10.4	SCS215a	20100706.095549	20100706.101804	8	0.013328	60	10	60-180	60	146	GapExp	0	128	2	2	0	distractor	1	1733	134	18098	13.328	13.293	13.363
ProbeTrackDT01	10	ProbeTrack	10.4	SCS215a	20100706.095549	20100706.101811	8	0.013328	60	10	60-180	60	143	GapExp	0	129	2	75	1	target	1	3359	0	18098	13.328	13.158	13.532
ProbeTrackDT01	10	ProbeTrack	10.4	SCS215a	20100706.095549	20100706.101821	8	0.013328	60	10	60-180	60	130	GapExp	0	130	2	4	1	target	1	3492	0	18098	13.328	13.141	13.516
ProbeTrackDT01	10	ProbeTrack	10.4	SCS215a	20100706.095549	20100706.101829	8	0.013328	60	10	60-180	60	137	GapExp	0	131	2	4	0	distractor	1	4399	0	18098	13.328	13.293	13.363
ProbeTrackDT01	10	ProbeTrack	10.4	SCS215a	20100706.095549	20100706.101839	8	0.013328	60	10	60-180	60	102	GapExp	0	132	2	75	1	target	1	1866	67	18165	13.328	13.077	13.545
ProbeTrackDT01	10	ProbeTrack	10.4	SCS215a	20100706.095549	20100706.101847	8	0.013328	60	10	60-180	60	96	GapExp	0	133	2	2	0	distractor	1	4572	0	18165	13.328	13.292	13.363
ProbeTrackDT01	10	ProbeTrack	10.4	SCS215a	20100706.095549	20100706.101856	8	0.013328	60	10	60-180	60	79	GapExp	0	134	2	0	0	distractor	1	3132	0	18165	13.328	13.292	13.363
ProbeTrackDT01	10	ProbeTrack	10.4	SCS215a	20100706.095549	20100706.101904	8	0.013328	60	10	60-180	60	145	GapExp	0	135	2	2	0	distractor	1	627	687	18852	13.328	12.984	13.673
ProbeTrackDT01	10	ProbeTrack	10.4	SCS215a	20100706.095549	20100706.101910	8	0.013328	60	10	60-180	60	139	GapExp	0	136	2	0	1	distractor	0	3119	-1000	17852	13.328	13.255	13.434
ProbeTrackDT01	10	ProbeTrack	10.4	SCS215a	20100706.095549	20100706.101918	8	0.013328	60	10	60-180	60	99	GapExp	0	137	2	75	1	target	1	1413	294	18146	13.328	13.278	13.378
ProbeTrackDT01	10	ProbeTrack	10.4	SCS215a	20100706.095549	20100706.101925	8	0.013328	60	10	60-180	60	179	GapExp	0	138	2	4	1	target	1	7157	0	18146	13.328	13.293	13.363
ProbeTrackDT01	10	ProbeTrack	10.4	SCS215a	20100706.095549	20100706.101938	8	0.013328	60	10	60-180	60	127	GapExp	0	139	2	0	1	target	1	2879	0	18146	13.328	13.293	13.363
ProbeTrackDT01	10	ProbeTrack	10.4	SCS215a	20100706.095549	20100706.101946	8	0.013328	60	10	60-180	60	174	GapExp	0	140	2	75	0	distractor	1	1560	220	18366	13.328	13.293	13.372
ProbeTrackDT01	10	ProbeTrack	10.4	SCS215a	20100706.095549	20100706.101955	8	0.013328	60	10	60-180	60	147	GapExp	0	141	2	2	1	target	1	2026	0	18366	13.328	13.146	13.510
ProbeTrackDT01	10	ProbeTrack	10.4	SCS215a	20100706.095549	20100706.102002	8	0.013328	60	10	60-180	60	96	GapExp	0	142	2	75	1	target	1	947	527	18893	13.328	13.244	13.429
ProbeTrackDT01	10	ProbeTrack	10.4	SCS215a	20100706.095549	20100706.102009	8	0.013328	60	10	60-180	60	148	GapExp	0	143	2	4	0	distractor	1	6918	0	18893	13.328	13.293	13.364
ProbeTrackDT01	10	ProbeTrack	10.4	SCS215a	20100706.095549	20100706.102021	8	0.013328	60	10	60-180	60	80	GapExp	0	144	2	1	1	target	1	3332	0	18893	13.328	13.214	13.441
ProbeTrackDT01	10	ProbeTrack	10.4	SCS215a	20100706.095549	20100706.102029	8	0.013328	60	10	60-180	60	178	GapExp	0	145	2	1	1	target	1	2413	0	18893	13.328	13.181	13.476
ProbeTrackDT01	10	ProbeTrack	10.4	SCS215a	20100706.095549	20100706.102037	8	0.013328	60	10	60-180	60	87	GapExp	0	146	2	0	0	distractor	1	3972	0	18893	13.328	13.073	13.618
ProbeTrackDT01	10	ProbeTrack	10.4	SCS215a	20100706.095549	20100706.102045	8	0.013328	60	10	60-180	60	175	GapExp	0	147	2	2	1	target	1	1147	427	19320	13.328	12.979	13.677
ProbeTrackDT01	10	ProbeTrack	10.4	SCS215a	20100706.095549	20100706.102052	8	0.013328	60	10	60-180	60	106	GapExp	0	148	2	1	1	target	1	3239	0	19320	13.328	13.293	13.364
ProbeTrackDT01	10	ProbeTrack	10.4	SCS215a	20100706.095549	20100706.102100	8	0.013328	60	10	60-180	60	138	GapExp	0	149	2	2	1	target	1	4279	0	19320	13.328	13.052	13.569
ProbeTrackDT01	10	ProbeTrack	10.4	SCS215a	20100706.095549	20100706.102110	8	0.013328	60	10	60-180	60	113	GapExp	0	150	2	0	1	target	1	2013	0	19320	13.328	13.196	13.426
ProbeTrackDT01	10	ProbeTrack	10.4	SCS215a	20100706.095549	20100706.102124	8	0.013328	60	10	60-180	60	119	GapExp	0	151	2	4	1	distractor	0	7984	-1000	18320	13.328	13.267	13.388
ProbeTrackDT01	10	ProbeTrack	10.4	SCS215a	20100706.095549	20100706.102137	8	0.013328	60	10	60-180	60	149	GapExp	0	152	2	2	1	target	1	3652	0	18320	13.328	13.293	13.364
ProbeTrackDT01	10	ProbeTrack	10.4	SCS215a	20100706.095549	20100706.102146	8	0.013328	60	10	60-180	60	147	GapExp	0	153	2	4	1	target	1	2293	0	18320	13.328	13.293	13.363
ProbeTrackDT01	10	ProbeTrack	10.4	SCS215a	20100706.095549	20100706.102154	8	0.013328	60	10	60-180	60	100	GapExp	0	154	2	0	1	target	1	2972	0	18320	13.328	13.293	13.363
ProbeTrackDT01	10	ProbeTrack	10.4	SCS215a	20100706.095549	20100706.102202	8	0.013328	60	10	60-180	60	149	GapExp	0	155	2	75	0	distractor	1	5025	0	18320	13.328	13.199	13.421
ProbeTrackDT01	10	ProbeTrack	10.4	SCS215a	20100706.095549	20100706.102213	8	0.013328	60	10	60-180	60	136	GapExp	0	156	2	1	0	distractor	1	787	607	18927	13.328	13.293	13.363
ProbeTrackDT01	10	ProbeTrack	10.4	SCS215a	20100706.095549	20100706.102219	8	0.013328	60	10	60-180	60	103	GapExp	0	157	2	4	1	target	1	2493	0	18927	13.328	13.293	13.363
ProbeTrackDT01	10	ProbeTrack	10.4	SCS215a	20100706.095549	20100706.102226	8	0.013328	60	10	60-180	60	109	GapExp	0	158	2	0	1	target	1	4012	0	18927	13.328	13.133	13.555
ProbeTrackDT01	10	ProbeTrack	10.4	SCS215a	20100706.095549	20100706.102235	8	0.013328	60	10	60-180	60	129	GapExp	0	159	2	0	0	distractor	1	2079	0	18927	13.328	13.289	13.367
ProbeTrackDT01	10	ProbeTrack	10.4	SCS215a	20100706.095549	20100706.102242	8	0.013328	60	10	60-180	60	88	GapExp	0	160	2	2	0	distractor	1	8024	0	18927	13.328	13.292	13.364
ProbeTrackDT01	10	ProbeTrack	10.4	SCS215a	20100706.095549	20100706.102255	8	0.013328	60	10	60-180	60	174	GapExp	0	161	2	0	1	target	1	800	600	19527	13.328	13.230	13.392
ProbeTrackDT01	10	ProbeTrack	10.4	SCS215a	20100706.095549	20100706.102302	8	0.013328	60	10	60-180	60	120	GapExp	0	162	2	4	0	distractor	1	2693	0	19527	13.329	13.262	13.363
ProbeTrackDT01	10	ProbeTrack	10.4	SCS215a	20100706.095549	20100706.102309	8	0.013328	60	10	60-180	60	156	GapExp	0	163	2	1	0	distractor	1	5571	0	19527	13.328	13.293	13.363
ProbeTrackDT01	10	ProbeTrack	10.4	SCS215a	20100706.095549	20100706.102320	8	0.013328	60	10	60-180	60	122	GapExp	0	164	2	4	0	distractor	1	5571	0	19527	13.328	13.270	13.420
ProbeTrackDT01	10	ProbeTrack	10.4	SCS215a	20100706.095549	20100706.102331	8	0.013328	60	10	60-180	60	79	GapExp	0	165	2	1	1	target	1	640	680	20207	13.328	13.293	13.363
ProbeTrackDT01	10	ProbeTrack	10.4	SCS215a	20100706.095549	20100706.102336	8	0.013328	60	10	60-180	60	152	GapExp	0	166	2	0	0	distractor	1	1826	87	20294	13.328	13.293	13.393
ProbeTrackDT01	10	ProbeTrack	10.4	SCS215a	20100706.095549	20100706.102343	8	0.013328	60	10	60-180	60	123	GapExp	0	167	2	2	0	target	0	2719	-1000	19294	13.328	13.293	13.363
ProbeTrackDT01	10	ProbeTrack	10.4	SCS215a	20100706.095549	20100706.102351	8	0.013328	60	10	60-180	60	64	GapExp	0	168	2	2	0	distractor	1	3932	0	19294	13.328	13.039	13.581
ProbeTrackDT01	10	ProbeTrack	10.4	SCS215a	20100706.095549	20100706.102359	8	0.013328	60	10	60-180	60	139	GapExp	0	169	2	0	0	distractor	1	3999	0	19294	13.328	13.292	13.363
ProbeTrackDT01	10	ProbeTrack	10.4	SCS215a	20100706.095549	20100706.102409	8	0.013328	60	10	60-180	60	109	GapExp	0	170	2	75	0	distractor	1	1600	200	19494	13.328	13.292	13.363
ProbeTrackDT01	10	ProbeTrack	10.4	SCS215a	20100706.095549	20100706.102416	8	0.013328	60	10	60-180	60	154	GapExp	0	171	2	0	1	target	1	4625	0	19494	13.328	13.063	13.593
ProbeTrackDT01	10	ProbeTrack	10.4	SCS215a	20100706.095549	20100706.102426	8	0.013328	60	10	60-180	60	126	GapExp	0	172	2	1	0	distractor	1	3785	0	19494	13.328	13.160	13.531
ProbeTrackDT01	10	ProbeTrack	10.4	SCS215a	20100706.095549	20100706.102435	8	0.013328	60	10	60-180	60	171	GapExp	0	173	2	4	0	distractor	1	2053	0	19494	13.328	13.178	13.477
ProbeTrackDT01	10	ProbeTrack	10.4	SCS215a	20100706.095549	20100706.102443	8	0.013328	60	10	60-180	60	113	GapExp	0	174	2	75	1	distractor	0	2306	-1000	18494	13.328	13.289	13.363
ProbeTrackDT01	10	ProbeTrack	10.4	SCS215a	20100706.095549	20100706.102451	8	0.013328	60	10	60-180	60	151	GapExp	0	175	2	1	0	distractor	1	1107	447	18941	13.328	13.293	13.363
ProbeTrackDT01	10	ProbeTrack	10.4	SCS215a	20100706.095549	20100706.102457	8	0.013328	60	10	60-180	60	179	GapExp	0	176	2	1	1	target	1	1866	67	19008	13.328	13.293	13.367
ProbeTrackDT01	10	ProbeTrack	10.4	SCS215a	20100706.095549	20100706.102505	8	0.013328	60	10	60-180	60	178	GapExp	0	177	2	1	0	distractor	1	747	627	19635	13.328	13.293	13.363
ProbeTrackDT01	10	ProbeTrack	10.4	SCS215a	20100706.095549	20100706.102512	8	0.013328	60	10	60-180	60	81	GapExp	0	178	2	4	0	distractor	1	4785	0	19635	13.328	13.242	13.379
ProbeTrackDT01	10	ProbeTrack	10.4	SCS215a	20100706.095549	20100706.102521	8	0.013328	60	10	60-180	60	101	GapExp	0	179	2	1	1	target	1	3132	0	19635	13.328	13.293	13.363
ProbeTrackDT01	10	ProbeTrack	10.4	SCS215a	20100706.095549	20100706.102529	8	0.013328	60	10	60-180	60	170	GapExp	0	180	2	1	0	target	0	1493	-1000	18635	13.328	13.029	13.626
ProbeTrackDT01	10	ProbeTrack	10.4	SCS215a	20100706.095549	20100706.102536	8	0.013328	60	10	60-180	60	176	GapExp	0	181	2	0	0	distractor	1	1866	67	18702	13.328	13.292	13.363
ProbeTrackDT01	10	ProbeTrack	10.4	SCS215a	20100706.095549	20100706.102544	8	0.013328	60	10	60-180	60	101	GapExp	0	182	2	75	1	target	1	3879	0	18702	13.328	13.293	13.367
ProbeTrackDT01	10	ProbeTrack	10.4	SCS215a	20100706.095549	20100706.102553	8	0.013328	60	10	60-180	60	175	GapExp	0	183	2	0	1	target	1	1906	47	18749	13.328	13.293	13.363
ProbeTrackDT01	10	ProbeTrack	10.4	SCS215a	20100706.095549	20100706.102601	8	0.013328	60	10	60-180	60	146	GapExp	0	184	2	4	1	target	1	3039	0	18749	13.328	13.293	13.363
ProbeTrackDT01	10	ProbeTrack	10.4	SCS215a	20100706.095549	20100706.102609	8	0.013328	60	10	60-180	60	108	GapExp	0	185	2	75	0	distractor	1	3066	0	18749	13.328	13.018	13.604
ProbeTrackDT01	10	ProbeTrack	10.4	SCS215a	20100706.095549	20100706.102618	8	0.013328	60	10	60-180	60	120	GapExp	0	186	2	1	0	distractor	1	3999	0	18749	13.328	13.293	13.364
ProbeTrackDT01	10	ProbeTrack	10.4	SCS215a	20100706.095549	20100706.102627	8	0.013328	60	10	60-180	60	125	GapExp	0	187	2	1	1	target	1	2866	0	18749	13.328	13.293	13.363
ProbeTrackDT01	10	ProbeTrack	10.4	SCS215a	20100706.095549	20100706.102635	8	0.013328	60	10	60-180	60	110	GapExp	0	188	2	0	0	distractor	1	2972	0	18749	13.328	13.293	13.363
ProbeTrackDT01	10	ProbeTrack	10.4	SCS215a	20100706.095549	20100706.102643	8	0.013328	60	10	60-180	60	169	GapExp	0	189	2	1	0	distractor	1	6371	0	18749	13.328	13.289	13.363
ProbeTrackDT01	10	ProbeTrack	10.4	SCS215a	20100706.095549	20100706.102655	8	0.013328	60	10	60-180	60	119	GapExp	0	190	2	1	0	distractor	1	1213	394	19143	13.328	13.293	13.363
ProbeTrackDT01	10	ProbeTrack	10.4	SCS215a	20100706.095549	20100706.102701	8	0.013328	60	10	60-180	60	65	GapExp	0	191	2	1	1	target	1	2373	0	19143	13.391	13.293	26.321
ProbeTrackDT01	10	ProbeTrack	10.4	SCS215a	20100706.095549	20100706.102708	8	0.013328	60	10	60-180	60	163	GapExp	0	192	2	2	0	target	0	2506	-1000	18143	13.328	13.288	13.363
ProbeTrackDT01	10	ProbeTrack	10.4	SCS215a	20100706.095549	20100706.102716	8	0.013328	60	10	60-180	60	98	GapExp	0	193	2	2	1	target	1	3106	0	18143	13.328	13.283	13.371
ProbeTrackDT01	10	ProbeTrack	10.4	SCS215a	20100706.095549	20100706.102724	8	0.013328	60	10	60-180	60	94	GapExp	0	194	2	0	0	distractor	1	3546	0	18143	13.328	13.292	13.363
ProbeTrackDT01	10	ProbeTrack	10.4	SCS215a	20100706.095549	20100706.102732	8	0.013328	60	10	60-180	60	92	GapExp	0	195	2	1	1	target	1	5025	0	18143	13.328	13.293	13.363
ProbeTrackDT01	10	ProbeTrack	10.4	SCS215a	20100706.095549	20100706.102741	8	0.013328	60	10	60-180	60	86	GapExp	0	196	2	75	0	distractor	1	2932	0	18143	13.328	13.293	13.363
ProbeTrackDT01	10	ProbeTrack	10.4	SCS215a	20100706.095549	20100706.102750	8	0.013328	60	10	60-180	60	158	GapExp	0	197	2	2	1	target	1	787	607	18750	13.328	13.142	13.513
ProbeTrackDT01	10	ProbeTrack	10.4	SCS215a	20100706.095549	20100706.102756	8	0.013328	60	10	60-180	60	177	GapExp	0	198	2	0	0	distractor	1	893	554	19304	13.328	13.257	13.375
ProbeTrackDT01	10	ProbeTrack	10.4	SCS215a	20100706.095549	20100706.102803	8	0.013328	60	10	60-180	60	119	GapExp	0	199	2	4	0	distractor	1	1440	280	19584	13.328	13.293	13.363
ProbeTrackDT01	10	ProbeTrack	10.4	SCS215a	20100706.095549	20100706.102809	8	0.013328	60	10	60-180	60	92	GapExp	0	200	2	75	1	target	1	707	647	20231	13.328	13.293	13.363
ProbeTrackDT01	10	ProbeTrack	10.4	SCS215a	20100706.095549	20100706.102825	8	0.013328	60	10	60-180	60	103	GapExp	0	201	2	0	1	target	1	1080	460	20691	13.328	13.293	13.363
ProbeTrackDT01	10	ProbeTrack	10.4	SCS215a	20100706.095549	20100706.102831	8	0.013328	60	10	60-180	60	130	GapExp	0	202	2	0	0	distractor	1	3399	0	20691	13.328	13.293	13.363
ProbeTrackDT01	10	ProbeTrack	10.4	SCS215a	20100706.095549	20100706.102840	8	0.013328	60	10	60-180	60	126	GapExp	0	203	2	75	0	distractor	1	720	640	21331	13.328	13.201	13.455
ProbeTrackDT01	10	ProbeTrack	10.4	SCS215a	20100706.095549	20100706.102847	8	0.013328	60	10	60-180	60	174	GapExp	0	204	2	4	0	distractor	1	787	607	21938	13.328	13.177	13.480
ProbeTrackDT01	10	ProbeTrack	10.4	SCS215a	20100706.095549	20100706.102853	8	0.013328	60	10	60-180	60	179	GapExp	0	205	2	1	0	target	0	1346	-1000	20938	13.328	13.200	13.456
ProbeTrackDT01	10	ProbeTrack	10.4	SCS215a	20100706.095549	20100706.102900	8	0.013328	60	10	60-180	60	130	GapExp	0	206	2	1	1	target	1	3058	0	20938	13.424	12.974	26.612
ProbeTrackDT01	10	ProbeTrack	10.4	SCS215a	20100706.095549	20100706.102908	8	0.013328	60	10	60-180	60	126	GapExp	0	207	2	2	0	distractor	1	1160	420	21358	13.328	13.293	13.363
ProbeTrackDT01	10	ProbeTrack	10.4	SCS215a	20100706.095549	20100706.102915	8	0.013328	60	10	60-180	60	77	GapExp	0	208	2	2	1	target	1	1986	7	21365	13.328	13.252	13.395
ProbeTrackDT01	10	ProbeTrack	10.4	SCS215a	20100706.095549	20100706.102921	8	0.013328	60	10	60-180	60	119	GapExp	0	209	2	75	0	distractor	1	2066	0	21365	13.328	13.293	13.363
ProbeTrackDT01	10	ProbeTrack	10.4	SCS215a	20100706.095549	20100706.102929	8	0.013328	60	10	60-180	60	85	GapExp	0	210	2	2	0	distractor	1	2279	0	21365	13.328	13.293	13.395
