exp	sub	code	rev	comp	runtime	trialtime	nstim	refreshdur	cuedur	gapdur	gapOnsetRange	durPostProbe	gapOnsetTime	blocktype	prac	trial	ntargets	soa	probeTarget	resp	acc	rt	pts	tpts	meanFrameDur	minFrameDur	maxFrameDur
ProbeTrackDT01	5	ProbeTrackDT01	10.3	SCS215a	20100519.143643	20100519.143727	8	0.013328	60	0	60-180	60	162	NoGap	1	1	3	2	0	distractor	1	2173	0	0	13.328	13.162	13.478
ProbeTrackDT01	5	ProbeTrackDT01	10.3	SCS215a	20100519.143643	20100519.143734	8	0.013328	60	0	60-180	60	133	NoGap	1	2	3	75	1	distractor	0	2546	-1000	-1000	13.328	13.207	13.450
ProbeTrackDT01	5	ProbeTrackDT01	10.3	SCS215a	20100519.143643	20100519.143743	8	0.013328	60	0	60-180	60	172	NoGap	1	3	3	75	0	distractor	1	1720	140	-860	13.328	13.293	13.363
ProbeTrackDT01	5	ProbeTrackDT01	10.3	SCS215a	20100519.143643	20100519.143751	8	0.013328	60	0	60-180	60	161	NoGap	1	4	3	0	1	distractor	0	1186	-1000	-1860	13.328	13.259	13.383
ProbeTrackDT01	5	ProbeTrackDT01	10.3	SCS215a	20100519.143643	20100519.143758	8	0.013328	60	0	60-180	60	154	NoGap	1	5	3	0	1	target	1	1720	140	-1720	13.374	13.228	26.584
ProbeTrackDT01	5	ProbeTrackDT01	10.3	SCS215a	20100519.143643	20100519.143805	8	0.013328	60	0	60-180	60	163	NoGap	1	6	3	1	0	distractor	1	667	667	-1053	13.328	13.084	13.571
ProbeTrackDT01	5	ProbeTrackDT01	10.3	SCS215a	20100519.143643	20100519.143811	8	0.013328	60	0	60-180	60	142	NoGap	1	7	3	0	1	target	1	760	620	-433	13.328	13.293	13.363
ProbeTrackDT01	5	ProbeTrackDT01	10.3	SCS215a	20100519.143643	20100519.143817	8	0.013328	60	0	60-180	60	96	NoGap	1	8	3	0	0	distractor	1	813	594	161	13.328	13.076	13.580
ProbeTrackDT01	5	ProbeTrackDT01	10.3	SCS215a	20100519.143643	20100519.143823	8	0.013328	60	0	60-180	60	70	NoGap	1	9	3	75	1	target	1	867	567	728	13.328	13.066	13.557
ProbeTrackDT01	5	ProbeTrackDT01	10.3	SCS215a	20100519.143643	20100519.143829	8	0.013328	60	0	60-180	60	132	NoGap	1	10	3	4	0	target	0	1187	-1000	-272	13.328	13.293	13.363
ProbeTrackDT01	5	ProbeTrackDT01	10.3	SCS215a	20100519.143643	20100519.143835	8	0.013328	60	0	60-180	60	175	NoGap	1	11	3	1	1	target	1	720	640	368	13.328	13.293	13.363
ProbeTrackDT01	5	ProbeTrackDT01	10.3	SCS215a	20100519.143643	20100519.143841	8	0.013328	60	0	60-180	60	180	NoGap	1	12	3	2	0	distractor	1	867	567	935	13.328	13.292	13.363
ProbeTrackDT01	5	ProbeTrackDT01	10.3	SCS215a	20100519.143643	20100519.143848	8	0.013328	60	0	60-180	60	98	NoGap	1	13	3	1	0	distractor	1	827	587	1522	13.328	13.293	13.363
ProbeTrackDT01	5	ProbeTrackDT01	10.3	SCS215a	20100519.143643	20100519.143853	8	0.013328	60	0	60-180	60	167	NoGap	1	14	3	4	0	distractor	1	893	554	2076	13.328	13.293	13.363
ProbeTrackDT01	5	ProbeTrackDT01	10.3	SCS215a	20100519.143643	20100519.143900	8	0.013328	60	0	60-180	60	170	NoGap	1	15	3	4	1	target	1	547	727	2803	13.328	13.293	13.363
ProbeTrackDT01	5	ProbeTrackDT01	10.3	SCS215a	20100519.143643	20100519.143906	8	0.013328	60	0	60-180	60	118	NoGap	1	16	3	2	1	target	1	480	760	3563	13.328	13.292	13.363
ProbeTrackDT01	5	ProbeTrackDT01	10.3	SCS215a	20100519.143643	20100519.143911	8	0.013328	60	0	60-180	60	180	NoGap	1	17	3	2	0	distractor	1	787	607	4170	13.328	13.293	13.363
ProbeTrackDT01	5	ProbeTrackDT01	10.3	SCS215a	20100519.143643	20100519.143918	8	0.013328	60	0	60-180	60	118	NoGap	1	18	3	2	1	target	1	480	760	4930	13.328	13.293	13.363
ProbeTrackDT01	5	ProbeTrackDT01	10.3	SCS215a	20100519.143643	20100519.143923	8	0.013328	60	0	60-180	60	101	NoGap	1	19	3	1	1	target	1	547	727	5657	13.328	13.293	13.363
ProbeTrackDT01	5	ProbeTrackDT01	10.3	SCS215a	20100519.143643	20100519.143928	8	0.013328	60	0	60-180	60	159	NoGap	1	20	3	4	0	distractor	1	587	707	6364	13.328	13.292	13.363
ProbeTrackDT01	5	ProbeTrackDT01	10.3	SCS215a	20100519.143643	20100519.143934	8	0.013328	60	0	60-180	60	123	NoGap	1	21	3	75	0	distractor	1	720	640	7004	13.328	13.293	13.363
ProbeTrackDT01	5	ProbeTrackDT01	10.3	SCS215a	20100519.143643	20100519.143941	8	0.013328	60	0	60-180	60	102	NoGap	1	22	3	75	1	target	1	600	700	7704	13.328	13.293	13.363
ProbeTrackDT01	5	ProbeTrackDT01	10.3	SCS215a	20100519.143643	20100519.143947	8	0.013328	60	0	60-180	60	145	NoGap	1	23	3	0	1	target	1	467	767	8471	13.328	13.293	13.363
ProbeTrackDT01	5	ProbeTrackDT01	10.3	SCS215a	20100519.143643	20100519.143953	8	0.013328	60	0	60-180	60	71	NoGap	1	24	3	1	0	distractor	1	707	647	9118	13.328	13.292	13.362
ProbeTrackDT01	5	ProbeTrackDT01	10.3	SCS215a	20100519.143643	20100519.143958	8	0.013328	60	0	60-180	60	84	NoGap	1	25	3	1	1	target	1	853	574	9692	13.328	13.293	13.363
ProbeTrackDT01	5	ProbeTrackDT01	10.3	SCS215a	20100519.143643	20100519.144003	8	0.013328	60	0	60-180	60	101	NoGap	1	26	3	0	0	distractor	1	1826	87	9779	13.328	13.293	13.365
ProbeTrackDT01	5	ProbeTrackDT01	10.3	SCS215a	20100519.143643	20100519.144010	8	0.013328	60	0	60-180	60	76	NoGap	1	27	3	2	1	target	1	520	740	10519	13.328	13.289	13.367
ProbeTrackDT01	5	ProbeTrackDT01	10.3	SCS215a	20100519.143643	20100519.144015	8	0.013328	60	0	60-180	60	138	NoGap	1	28	3	4	1	distractor	0	614	-1000	9519	13.328	13.293	13.363
ProbeTrackDT01	5	ProbeTrackDT01	10.3	SCS215a	20100519.143643	20100519.144020	8	0.013328	60	0	60-180	60	155	NoGap	1	29	3	2	0	target	0	760	-1000	8519	13.328	13.293	13.363
ProbeTrackDT01	5	ProbeTrackDT01	10.3	SCS215a	20100519.143643	20100519.144027	8	0.013328	60	0	60-180	60	113	NoGap	1	30	3	4	0	distractor	1	1093	454	8973	13.328	13.293	13.363
ProbeTrackDT01	5	ProbeTrackDT01	10.3	SCS215a	20100519.143643	20100519.144032	8	0.013328	60	0	60-180	60	147	NoGap	1	31	3	0	0	distractor	1	560	720	9693	13.328	13.293	13.363
ProbeTrackDT01	5	ProbeTrackDT01	10.3	SCS215a	20100519.143643	20100519.144038	8	0.013328	60	0	60-180	60	135	NoGap	1	32	3	2	1	target	1	387	807	10500	13.328	13.291	13.363
ProbeTrackDT01	5	ProbeTrackDT01	10.3	SCS215a	20100519.143643	20100519.144044	8	0.013328	60	0	60-180	60	127	NoGap	1	33	3	0	0	distractor	1	587	707	11207	13.328	13.293	13.363
ProbeTrackDT01	5	ProbeTrackDT01	10.3	SCS215a	20100519.143643	20100519.144049	8	0.013328	60	0	60-180	60	109	NoGap	1	34	3	75	1	target	1	414	793	12000	13.328	13.292	13.363
ProbeTrackDT01	5	ProbeTrackDT01	10.3	SCS215a	20100519.143643	20100519.144056	8	0.013328	60	0	60-180	60	150	NoGap	1	35	3	4	1	target	1	494	753	12753	13.328	13.175	13.502
ProbeTrackDT01	5	ProbeTrackDT01	10.3	SCS215a	20100519.143643	20100519.144101	8	0.013328	60	0	60-180	60	95	NoGap	1	36	3	1	0	distractor	1	720	640	13393	13.445	13.292	26.688
ProbeTrackDT01	5	ProbeTrackDT01	10.3	SCS215a	20100519.143643	20100519.144107	8	0.013328	60	0	60-180	60	109	NoGap	1	37	3	4	1	target	1	454	773	14166	13.328	13.293	13.363
ProbeTrackDT01	5	ProbeTrackDT01	10.3	SCS215a	20100519.143643	20100519.144112	8	0.013328	60	0	60-180	60	109	NoGap	1	38	3	75	0	distractor	1	680	660	14826	13.328	13.293	13.363
ProbeTrackDT01	5	ProbeTrackDT01	10.3	SCS215a	20100519.143643	20100519.144118	8	0.013328	60	0	60-180	60	91	NoGap	1	39	3	1	1	target	1	534	733	15559	13.328	13.293	13.363
ProbeTrackDT01	5	ProbeTrackDT01	10.3	SCS215a	20100519.143643	20100519.144123	8	0.013328	60	0	60-180	60	151	NoGap	1	40	3	75	0	distractor	1	680	660	16219	13.328	13.293	13.363
ProbeTrackDT01	5	ProbeTrackDT01	10.3	SCS215a	20100519.144211	20100519.144218	8	0.013327	60	10	60-180	60	114	GapPrac	1	1	3	75	0	distractor	1	5171	0	16219	13.328	13.293	13.364
ProbeTrackDT01	5	ProbeTrackDT01	10.3	SCS215a	20100519.144211	20100519.144229	8	0.013327	60	10	60-180	60	161	GapPrac	1	2	3	2	1	target	1	2119	0	16219	13.328	13.292	13.363
ProbeTrackDT01	5	ProbeTrackDT01	10.3	SCS215a	20100519.144211	20100519.144236	8	0.013327	60	10	60-180	60	72	GapPrac	1	3	3	1	1	distractor	0	1093	-1000	15219	13.328	13.293	13.363
ProbeTrackDT01	5	ProbeTrackDT01	10.3	SCS215a	20100519.144211	20100519.144242	8	0.013327	60	10	60-180	60	142	GapPrac	1	4	3	4	0	distractor	1	2439	0	15219	13.328	13.284	13.363
ProbeTrackDT01	5	ProbeTrackDT01	10.3	SCS215a	20100519.144211	20100519.144250	8	0.013327	60	10	60-180	60	132	GapPrac	1	5	3	75	0	distractor	1	1586	207	15426	13.328	13.292	13.363
ProbeTrackDT01	5	ProbeTrackDT01	10.3	SCS215a	20100519.144211	20100519.144257	8	0.013327	60	10	60-180	60	131	GapPrac	1	6	3	0	0	distractor	1	1400	300	15726	13.328	13.293	13.363
ProbeTrackDT01	5	ProbeTrackDT01	10.3	SCS215a	20100519.144211	20100519.144304	8	0.013327	60	10	60-180	60	134	GapPrac	1	7	3	75	1	target	1	1506	247	15973	13.328	13.293	13.363
ProbeTrackDT01	5	ProbeTrackDT01	10.3	SCS215a	20100519.144211	20100519.144312	8	0.013327	60	10	60-180	60	169	GapPrac	1	8	3	1	1	target	1	1266	367	16340	13.328	13.290	13.363
ProbeTrackDT01	5	ProbeTrackDT01	10.3	SCS215a	20100519.144211	20100519.144318	8	0.013327	60	10	60-180	60	117	GapPrac	1	9	3	0	0	target	0	1346	-1000	15340	13.328	13.293	13.363
ProbeTrackDT01	5	ProbeTrackDT01	10.3	SCS215a	20100519.144211	20100519.144325	8	0.013327	60	10	60-180	60	106	GapPrac	1	10	3	4	1	distractor	0	1720	-1000	14340	13.328	13.293	13.363
ProbeTrackDT01	5	ProbeTrackDT01	10.3	SCS215a	20100519.144211	20100519.144331	8	0.013327	60	10	60-180	60	102	GapPrac	1	11	3	4	1	target	1	1080	460	14800	13.328	13.293	13.363
ProbeTrackDT01	5	ProbeTrackDT01	10.3	SCS215a	20100519.144211	20100519.144337	8	0.013327	60	10	60-180	60	84	GapPrac	1	12	3	4	0	target	0	1240	-1000	13800	13.328	13.293	13.363
ProbeTrackDT01	5	ProbeTrackDT01	10.3	SCS215a	20100519.144211	20100519.144343	8	0.013327	60	10	60-180	60	165	GapPrac	1	13	3	2	0	target	0	960	-1000	12800	13.328	13.292	13.363
ProbeTrackDT01	5	ProbeTrackDT01	10.3	SCS215a	20100519.144211	20100519.144350	8	0.013327	60	10	60-180	60	70	GapPrac	1	14	3	2	1	target	1	1373	314	13114	13.328	13.293	13.362
ProbeTrackDT01	5	ProbeTrackDT01	10.3	SCS215a	20100519.144211	20100519.144355	8	0.013327	60	10	60-180	60	83	GapPrac	1	15	3	75	1	target	1	1187	407	13521	13.328	13.293	13.363
ProbeTrackDT01	5	ProbeTrackDT01	10.3	SCS215a	20100519.144211	20100519.144402	8	0.013327	60	10	60-180	60	118	GapPrac	1	16	3	1	0	distractor	1	1346	327	13848	13.328	13.280	13.397
ProbeTrackDT01	5	ProbeTrackDT01	10.3	SCS215a	20100519.144211	20100519.144408	8	0.013327	60	10	60-180	60	102	GapPrac	1	17	3	2	0	target	0	1147	-1000	12848	13.328	13.291	13.363
ProbeTrackDT01	5	ProbeTrackDT01	10.3	SCS215a	20100519.144211	20100519.144414	8	0.013327	60	10	60-180	60	162	GapPrac	1	18	3	0	1	target	1	920	540	13388	13.328	13.292	13.363
ProbeTrackDT01	5	ProbeTrackDT01	10.3	SCS215a	20100519.144211	20100519.144421	8	0.013327	60	10	60-180	60	80	GapPrac	1	19	3	1	0	target	0	987	-1000	12388	13.328	13.097	13.558
ProbeTrackDT01	5	ProbeTrackDT01	10.3	SCS215a	20100519.144211	20100519.144426	8	0.013327	60	10	60-180	60	74	GapPrac	1	20	3	0	1	target	1	320	840	13228	13.328	13.293	13.364
ProbeTrackDT01	5	ProbeTrackDT01	10.3	SCS215a	20100519.144512	20100519.144609	8	0.013328	60	10	60-180	60	90	GapPrac	1	1	3	0	0	target	0	1213	-1000	12228	13.328	13.293	13.366
ProbeTrackDT01	5	ProbeTrackDT01	10.3	SCS215a	20100519.144512	20100519.144615	8	0.013328	60	10	60-180	60	82	GapPrac	1	2	3	0	1	target	1	933	534	12762	13.328	13.293	13.363
ProbeTrackDT01	5	ProbeTrackDT01	10.3	SCS215a	20100519.144512	20100519.144621	8	0.013328	60	10	60-180	60	174	GapPrac	1	3	3	1	1	distractor	0	2213	-1000	11762	13.328	13.293	13.363
ProbeTrackDT01	5	ProbeTrackDT01	10.3	SCS215a	20100519.144512	20100519.144629	8	0.013328	60	10	60-180	60	157	GapPrac	1	4	3	4	0	target	0	2241	-1000	10762	13.328	13.293	13.363
ProbeTrackDT01	5	ProbeTrackDT01	10.3	SCS215a	20100519.144512	20100519.144636	8	0.013328	60	10	60-180	60	163	GapPrac	1	5	3	4	1	target	1	1226	387	11149	13.328	13.292	13.365
ProbeTrackDT01	5	ProbeTrackDT01	10.3	SCS215a	20100519.144512	20100519.144643	8	0.013328	60	10	60-180	60	114	GapPrac	1	6	3	1	0	target	0	813	-1000	10149	13.328	13.270	13.372
ProbeTrackDT01	5	ProbeTrackDT01	10.3	SCS215a	20100519.144512	20100519.144649	8	0.013328	60	10	60-180	60	108	GapPrac	1	7	3	2	0	target	0	600	-1000	9149	13.438	13.114	26.605
ProbeTrackDT01	5	ProbeTrackDT01	10.3	SCS215a	20100519.144512	20100519.144654	8	0.013328	60	10	60-180	60	160	GapPrac	1	8	3	2	1	target	1	853	574	9723	13.328	13.155	13.496
ProbeTrackDT01	5	ProbeTrackDT01	10.3	SCS215a	20100519.144512	20100519.144701	8	0.013328	60	10	60-180	60	74	GapPrac	1	9	3	1	0	target	0	3359	-1000	8723	13.328	13.293	13.363
ProbeTrackDT01	5	ProbeTrackDT01	10.3	SCS215a	20100519.144512	20100519.144709	8	0.013328	60	10	60-180	60	146	GapPrac	1	10	3	4	0	target	0	1560	-1000	7723	13.328	13.046	13.642
ProbeTrackDT01	5	ProbeTrackDT01	10.3	SCS215a	20100519.144512	20100519.144715	8	0.013328	60	10	60-180	60	95	GapPrac	1	11	3	1	1	target	1	1373	314	8037	13.328	13.293	13.363
ProbeTrackDT01	5	ProbeTrackDT01	10.3	SCS215a	20100519.144512	20100519.144721	8	0.013328	60	10	60-180	60	158	GapPrac	1	12	3	4	1	distractor	0	1960	-1000	7037	13.501	12.808	27.118
ProbeTrackDT01	5	ProbeTrackDT01	10.3	SCS215a	20100519.144512	20100519.144729	8	0.013328	60	10	60-180	60	133	GapPrac	1	13	3	0	1	target	1	720	640	7677	13.328	13.230	13.457
ProbeTrackDT01	5	ProbeTrackDT01	10.3	SCS215a	20100519.144512	20100519.144735	8	0.013328	60	10	60-180	60	174	GapPrac	1	14	3	75	1	distractor	0	1093	-1000	6677	13.362	13.293	26.458
ProbeTrackDT01	5	ProbeTrackDT01	10.3	SCS215a	20100519.144512	20100519.144743	8	0.013328	60	10	60-180	60	165	GapPrac	1	15	3	0	0	target	0	747	-1000	5677	13.328	13.290	13.364
ProbeTrackDT01	5	ProbeTrackDT01	10.3	SCS215a	20100519.144512	20100519.144749	8	0.013328	60	10	60-180	60	108	GapPrac	1	16	3	2	1	target	1	720	640	6317	13.328	13.293	13.364
ProbeTrackDT01	5	ProbeTrackDT01	10.3	SCS215a	20100519.144512	20100519.144755	8	0.013328	60	10	60-180	60	125	GapPrac	1	17	3	75	1	target	1	507	747	7064	13.328	13.293	13.363
ProbeTrackDT01	5	ProbeTrackDT01	10.3	SCS215a	20100519.144512	20100519.144801	8	0.013328	60	10	60-180	60	85	GapPrac	1	18	3	75	0	target	0	640	-1000	6064	13.328	13.244	13.377
ProbeTrackDT01	5	ProbeTrackDT01	10.3	SCS215a	20100519.144512	20100519.144807	8	0.013328	60	10	60-180	60	120	GapPrac	1	19	3	2	0	target	0	1027	-1000	5064	13.328	13.293	13.363
ProbeTrackDT01	5	ProbeTrackDT01	10.3	SCS215a	20100519.144512	20100519.144813	8	0.013328	60	10	60-180	60	138	GapPrac	1	20	3	75	0	distractor	1	907	547	5611	13.328	13.292	13.363
ProbeTrackDT01	5	ProbeTrackDT01	10.3	SCS215a	20100519.144901	20100519.144921	8	0.013328	60	10	60-180	60	92	GapExp	1	1	3	4	0	distractor	1	2253	0	5611	13.328	13.126	13.562
ProbeTrackDT01	5	ProbeTrackDT01	10.3	SCS215a	20100519.144901	20100519.144928	8	0.013328	60	10	60-180	60	121	GapExp	1	2	3	1	1	target	1	1720	140	5751	13.328	13.144	13.512
ProbeTrackDT01	5	ProbeTrackDT01	10.3	SCS215a	20100519.144901	20100519.144935	8	0.013328	60	10	60-180	60	68	GapExp	1	3	3	4	1	target	1	480	760	6511	13.328	13.126	13.530
ProbeTrackDT01	5	ProbeTrackDT01	10.3	SCS215a	20100519.144901	20100519.144940	8	0.013328	60	10	60-180	60	142	GapExp	1	4	3	1	0	distractor	1	467	767	7278	13.328	13.293	13.363
ProbeTrackDT01	5	ProbeTrackDT01	10.3	SCS215a	20100519.144901	20100519.144946	8	0.013328	60	10	60-180	60	107	GapExp	1	5	3	2	1	target	1	547	727	8005	13.328	13.169	13.454
ProbeTrackDT01	5	ProbeTrackDT01	10.3	SCS215a	20100519.144901	20100519.144951	8	0.013328	60	10	60-180	60	95	GapExp	1	6	3	0	0	target	0	520	-1000	7005	13.328	13.189	13.500
ProbeTrackDT01	5	ProbeTrackDT01	10.3	SCS215a	20100519.144901	20100519.144956	8	0.013328	60	10	60-180	60	133	GapExp	1	7	3	2	0	distractor	1	1240	380	7385	13.328	13.246	13.443
ProbeTrackDT01	5	ProbeTrackDT01	10.3	SCS215a	20100519.144901	20100519.145003	8	0.013328	60	10	60-180	60	84	GapExp	1	8	3	75	0	distractor	1	427	787	8172	13.328	13.293	13.363
ProbeTrackDT01	5	ProbeTrackDT01	10.3	SCS215a	20100519.144901	20100519.145009	8	0.013328	60	10	60-180	60	95	GapExp	1	9	3	0	1	target	1	600	700	8872	13.328	13.174	13.481
ProbeTrackDT01	5	ProbeTrackDT01	10.3	SCS215a	20100519.144901	20100519.145014	8	0.013328	60	10	60-180	60	147	GapExp	1	10	3	75	1	target	1	707	647	9519	13.328	13.172	13.483
ProbeTrackDT01	5	ProbeTrackDT01	10.3	SCS215a	20100519.144901	20100519.145021	8	0.013328	60	10	60-180	60	122	GapExp	0	11	3	2	0	target	0	935	-1000	8519	13.328	13.291	13.391
ProbeTrackDT01	5	ProbeTrackDT01	10.3	SCS215a	20100519.144901	20100519.145027	8	0.013328	60	10	60-180	60	84	GapExp	0	12	3	4	0	target	0	2186	-1000	7519	13.328	13.213	13.475
ProbeTrackDT01	5	ProbeTrackDT01	10.3	SCS215a	20100519.144901	20100519.145034	8	0.013328	60	10	60-180	60	128	GapExp	0	13	3	1	0	distractor	1	2746	0	7519	13.328	13.125	13.528
ProbeTrackDT01	5	ProbeTrackDT01	10.3	SCS215a	20100519.144901	20100519.145042	8	0.013328	60	10	60-180	60	157	GapExp	0	14	3	2	1	target	1	800	600	8119	13.328	13.208	13.481
ProbeTrackDT01	5	ProbeTrackDT01	10.3	SCS215a	20100519.144901	20100519.145048	8	0.013328	60	10	60-180	60	164	GapExp	0	15	3	1	0	target	0	3546	-1000	7119	13.328	12.998	13.658
ProbeTrackDT01	5	ProbeTrackDT01	10.3	SCS215a	20100519.144901	20100519.145057	8	0.013328	60	10	60-180	60	79	GapExp	0	16	3	2	0	distractor	1	787	607	7726	13.328	13.159	13.463
ProbeTrackDT01	5	ProbeTrackDT01	10.3	SCS215a	20100519.144901	20100519.145102	8	0.013328	60	10	60-180	60	147	GapExp	0	17	3	0	0	target	0	827	-1000	6726	13.328	13.263	13.427
ProbeTrackDT01	5	ProbeTrackDT01	10.3	SCS215a	20100519.144901	20100519.145108	8	0.013328	60	10	60-180	60	87	GapExp	0	18	3	75	0	distractor	1	880	560	7286	13.328	13.293	13.363
ProbeTrackDT01	5	ProbeTrackDT01	10.3	SCS215a	20100519.144901	20100519.145115	8	0.013328	60	10	60-180	60	174	GapExp	0	19	3	75	1	target	1	520	740	8026	13.328	13.233	13.456
ProbeTrackDT01	5	ProbeTrackDT01	10.3	SCS215a	20100519.144901	20100519.145122	8	0.013328	60	10	60-180	60	168	GapExp	0	20	3	2	0	target	0	720	-1000	7026	13.328	13.293	13.363
ProbeTrackDT01	5	ProbeTrackDT01	10.3	SCS215a	20100519.144901	20100519.145129	8	0.013328	60	10	60-180	60	171	GapExp	0	21	3	1	0	distractor	1	2893	0	7026	13.328	13.164	13.457
ProbeTrackDT01	5	ProbeTrackDT01	10.3	SCS215a	20100519.144901	20100519.145137	8	0.013328	60	10	60-180	60	142	GapExp	0	22	3	1	0	target	0	853	-1000	6026	13.328	13.293	13.363
ProbeTrackDT01	5	ProbeTrackDT01	10.3	SCS215a	20100519.144901	20100519.145143	8	0.013328	60	10	60-180	60	129	GapExp	0	23	3	4	1	target	1	534	733	6759	13.328	13.133	13.523
ProbeTrackDT01	5	ProbeTrackDT01	10.3	SCS215a	20100519.144901	20100519.145149	8	0.013328	60	10	60-180	60	92	GapExp	0	24	3	2	0	target	0	547	-1000	5759	13.328	13.292	13.363
ProbeTrackDT01	5	ProbeTrackDT01	10.3	SCS215a	20100519.144901	20100519.145154	8	0.013328	60	10	60-180	60	87	GapExp	0	25	3	1	1	target	1	693	654	6413	13.328	13.293	13.363
ProbeTrackDT01	5	ProbeTrackDT01	10.3	SCS215a	20100519.144901	20100519.145159	8	0.013328	60	10	60-180	60	106	GapExp	0	26	3	2	1	target	1	2559	0	6413	13.328	13.116	13.506
ProbeTrackDT01	5	ProbeTrackDT01	10.3	SCS215a	20100519.144901	20100519.145207	8	0.013328	60	10	60-180	60	84	GapExp	0	27	3	2	1	target	1	720	640	7053	13.328	13.293	13.364
ProbeTrackDT01	5	ProbeTrackDT01	10.3	SCS215a	20100519.144901	20100519.145212	8	0.013328	60	10	60-180	60	81	GapExp	0	28	3	1	0	target	0	840	-1000	6053	13.328	13.293	13.363
ProbeTrackDT01	5	ProbeTrackDT01	10.3	SCS215a	20100519.144901	20100519.145217	8	0.013328	60	10	60-180	60	80	GapExp	0	29	3	2	0	distractor	1	1160	420	6473	13.328	13.241	13.381
ProbeTrackDT01	5	ProbeTrackDT01	10.3	SCS215a	20100519.144901	20100519.145223	8	0.013328	60	10	60-180	60	173	GapExp	0	30	3	0	1	distractor	0	400	-1000	5473	13.328	13.158	13.531
ProbeTrackDT01	5	ProbeTrackDT01	10.3	SCS215a	20100519.144901	20100519.145229	8	0.013328	60	10	60-180	60	115	GapExp	0	31	3	75	0	target	0	773	-1000	4473	13.328	13.270	13.365
ProbeTrackDT01	5	ProbeTrackDT01	10.3	SCS215a	20100519.144901	20100519.145236	8	0.013328	60	10	60-180	60	94	GapExp	0	32	3	75	0	target	0	1133	-1000	3473	13.328	13.293	13.363
ProbeTrackDT01	5	ProbeTrackDT01	10.3	SCS215a	20100519.144901	20100519.145243	8	0.013328	60	10	60-180	60	134	GapExp	0	33	3	1	1	target	1	1293	354	3827	13.328	13.290	13.367
ProbeTrackDT01	5	ProbeTrackDT01	10.3	SCS215a	20100519.144901	20100519.145249	8	0.013328	60	10	60-180	60	87	GapExp	0	34	3	75	1	target	1	414	793	4620	13.328	13.191	13.465
ProbeTrackDT01	5	ProbeTrackDT01	10.3	SCS215a	20100519.144901	20100519.145255	8	0.013328	60	10	60-180	60	97	GapExp	0	35	3	75	1	target	1	480	760	5380	13.328	13.293	13.363
ProbeTrackDT01	5	ProbeTrackDT01	10.3	SCS215a	20100519.144901	20100519.145301	8	0.013328	60	10	60-180	60	124	GapExp	0	36	3	2	1	target	1	654	673	6053	13.328	13.172	13.483
ProbeTrackDT01	5	ProbeTrackDT01	10.3	SCS215a	20100519.144901	20100519.145307	8	0.013328	60	10	60-180	60	89	GapExp	0	37	3	75	1	target	1	360	820	6873	13.328	13.293	13.363
ProbeTrackDT01	5	ProbeTrackDT01	10.3	SCS215a	20100519.144901	20100519.145313	8	0.013328	60	10	60-180	60	79	GapExp	0	38	3	4	0	target	0	774	-1000	5873	13.328	13.254	13.402
ProbeTrackDT01	5	ProbeTrackDT01	10.3	SCS215a	20100519.144901	20100519.145318	8	0.013328	60	10	60-180	60	64	GapExp	0	39	3	4	1	target	1	1467	267	6140	13.328	13.167	13.489
ProbeTrackDT01	5	ProbeTrackDT01	10.3	SCS215a	20100519.144901	20100519.145324	8	0.013328	60	10	60-180	60	143	GapExp	0	40	3	0	1	target	1	920	540	6680	13.328	13.287	13.364
ProbeTrackDT01	5	ProbeTrackDT01	10.3	SCS215a	20100519.144901	20100519.145330	8	0.013328	60	10	60-180	60	80	GapExp	0	41	3	4	1	target	1	2413	0	6680	13.328	13.293	13.362
ProbeTrackDT01	5	ProbeTrackDT01	10.3	SCS215a	20100519.144901	20100519.145337	8	0.013328	60	10	60-180	60	65	GapExp	0	42	3	2	0	target	0	1173	-1000	5680	13.328	13.235	13.388
ProbeTrackDT01	5	ProbeTrackDT01	10.3	SCS215a	20100519.144901	20100519.145343	8	0.013328	60	10	60-180	60	129	GapExp	0	43	3	4	0	target	0	1626	-1000	4680	13.328	13.262	13.393
ProbeTrackDT01	5	ProbeTrackDT01	10.3	SCS215a	20100519.144901	20100519.145350	8	0.013328	60	10	60-180	60	172	GapExp	0	44	3	2	1	target	1	640	680	5360	13.328	13.207	13.448
ProbeTrackDT01	5	ProbeTrackDT01	10.3	SCS215a	20100519.144901	20100519.145356	8	0.013328	60	10	60-180	60	151	GapExp	0	45	3	4	0	target	0	1107	-1000	4360	13.328	13.293	13.363
ProbeTrackDT01	5	ProbeTrackDT01	10.3	SCS215a	20100519.144901	20100519.145403	8	0.013328	60	10	60-180	60	153	GapExp	0	46	3	2	1	distractor	0	1027	-1000	3360	13.328	13.292	13.363
ProbeTrackDT01	5	ProbeTrackDT01	10.3	SCS215a	20100519.144901	20100519.145409	8	0.013328	60	10	60-180	60	125	GapExp	0	47	3	75	0	target	0	2359	-1000	2360	13.328	13.013	13.676
ProbeTrackDT01	5	ProbeTrackDT01	10.3	SCS215a	20100519.144901	20100519.145418	8	0.013328	60	10	60-180	60	135	GapExp	0	48	3	4	0	target	0	800	-1000	1360	13.328	13.293	13.363
ProbeTrackDT01	5	ProbeTrackDT01	10.3	SCS215a	20100519.144901	20100519.145424	8	0.013328	60	10	60-180	60	75	GapExp	0	49	3	2	1	distractor	0	3985	-1000	360	13.328	13.293	13.372
ProbeTrackDT01	5	ProbeTrackDT01	10.3	SCS215a	20100519.144901	20100519.145432	8	0.013328	60	10	60-180	60	145	GapExp	0	50	3	1	1	target	1	627	687	1047	13.328	13.218	13.404
ProbeTrackDT01	5	ProbeTrackDT01	10.3	SCS215a	20100519.144901	20100519.145505	8	0.013328	60	10	60-180	60	89	GapExp	0	51	3	0	1	target	1	1920	40	1087	13.328	13.293	13.363
ProbeTrackDT01	5	ProbeTrackDT01	10.3	SCS215a	20100519.144901	20100519.145511	8	0.013328	60	10	60-180	60	160	GapExp	0	52	3	1	1	target	1	653	674	1761	13.328	13.293	13.363
ProbeTrackDT01	5	ProbeTrackDT01	10.3	SCS215a	20100519.144901	20100519.145518	8	0.013328	60	10	60-180	60	155	GapExp	0	53	3	75	1	target	1	427	787	2548	13.328	13.293	13.363
ProbeTrackDT01	5	ProbeTrackDT01	10.3	SCS215a	20100519.144901	20100519.145524	8	0.013328	60	10	60-180	60	97	GapExp	0	54	3	75	0	distractor	1	507	747	3295	13.328	13.289	13.363
ProbeTrackDT01	5	ProbeTrackDT01	10.3	SCS215a	20100519.144901	20100519.145531	8	0.013328	60	10	60-180	60	66	GapExp	0	55	3	0	0	target	0	1307	-1000	2295	13.328	13.173	13.450
ProbeTrackDT01	5	ProbeTrackDT01	10.3	SCS215a	20100519.144901	20100519.145536	8	0.013328	60	10	60-180	60	64	GapExp	0	56	3	75	0	distractor	1	614	693	2988	13.328	13.292	13.365
ProbeTrackDT01	5	ProbeTrackDT01	10.3	SCS215a	20100519.144901	20100519.145542	8	0.013328	60	10	60-180	60	67	GapExp	0	57	3	0	0	target	0	1133	-1000	1988	13.328	13.293	13.363
ProbeTrackDT01	5	ProbeTrackDT01	10.3	SCS215a	20100519.144901	20100519.145548	8	0.013328	60	10	60-180	60	74	GapExp	0	58	3	75	0	target	0	3212	-1000	988	13.328	13.167	13.522
ProbeTrackDT01	5	ProbeTrackDT01	10.3	SCS215a	20100519.144901	20100519.145556	8	0.013328	60	10	60-180	60	94	GapExp	0	59	3	2	1	distractor	0	1440	-1000	-12	13.328	13.284	13.371
ProbeTrackDT01	5	ProbeTrackDT01	10.3	SCS215a	20100519.144901	20100519.145602	8	0.013328	60	10	60-180	60	88	GapExp	0	60	3	2	1	target	1	2906	0	-12	13.328	13.027	13.631
ProbeTrackDT01	5	ProbeTrackDT01	10.3	SCS215a	20100519.144901	20100519.145610	8	0.013328	60	10	60-180	60	170	GapExp	0	61	3	0	1	target	1	494	753	741	13.328	13.284	13.363
ProbeTrackDT01	5	ProbeTrackDT01	10.3	SCS215a	20100519.144901	20100519.145616	8	0.013328	60	10	60-180	60	73	GapExp	0	62	3	4	0	target	0	933	-1000	-259	13.328	13.292	13.363
ProbeTrackDT01	5	ProbeTrackDT01	10.3	SCS215a	20100519.144901	20100519.145621	8	0.013328	60	10	60-180	60	114	GapExp	0	63	3	2	1	target	1	480	760	501	13.328	13.293	13.363
ProbeTrackDT01	5	ProbeTrackDT01	10.3	SCS215a	20100519.144901	20100519.145627	8	0.013328	60	10	60-180	60	147	GapExp	0	64	3	75	1	target	1	3012	0	501	13.328	13.293	13.363
ProbeTrackDT01	5	ProbeTrackDT01	10.3	SCS215a	20100519.144901	20100519.145636	8	0.013328	60	10	60-180	60	155	GapExp	0	65	3	2	1	target	1	1346	327	828	13.328	13.106	13.550
ProbeTrackDT01	5	ProbeTrackDT01	10.3	SCS215a	20100519.144901	20100519.145643	8	0.013328	60	10	60-180	60	87	GapExp	0	66	3	75	1	target	1	1120	440	1268	13.328	13.253	13.370
ProbeTrackDT01	5	ProbeTrackDT01	10.3	SCS215a	20100519.144901	20100519.145650	8	0.013328	60	10	60-180	60	179	GapExp	0	67	3	75	1	target	1	2119	0	1268	13.328	13.249	13.407
ProbeTrackDT01	5	ProbeTrackDT01	10.3	SCS215a	20100519.144901	20100519.145659	8	0.013328	60	10	60-180	60	129	GapExp	0	68	3	2	0	distractor	1	2546	0	1268	13.328	13.247	13.410
ProbeTrackDT01	5	ProbeTrackDT01	10.3	SCS215a	20100519.144901	20100519.145706	8	0.013328	60	10	60-180	60	145	GapExp	0	69	3	0	1	target	1	3905	0	1268	13.328	13.105	13.551
ProbeTrackDT01	5	ProbeTrackDT01	10.3	SCS215a	20100519.144901	20100519.145715	8	0.013328	60	10	60-180	60	108	GapExp	0	70	3	2	0	target	0	733	-1000	268	13.328	13.293	13.363
ProbeTrackDT01	5	ProbeTrackDT01	10.3	SCS215a	20100519.144901	20100519.145721	8	0.013328	60	10	60-180	60	118	GapExp	0	71	3	4	1	target	1	2733	0	268	13.328	13.292	13.364
ProbeTrackDT01	5	ProbeTrackDT01	10.3	SCS215a	20100519.144901	20100519.145729	8	0.013328	60	10	60-180	60	114	GapExp	0	72	3	75	0	target	0	1946	-1000	-732	13.328	13.293	13.363
ProbeTrackDT01	5	ProbeTrackDT01	10.3	SCS215a	20100519.144901	20100519.145737	8	0.013328	60	10	60-180	60	76	GapExp	0	73	3	1	0	target	0	560	-1000	-1732	13.328	13.293	13.363
ProbeTrackDT01	5	ProbeTrackDT01	10.3	SCS215a	20100519.144901	20100519.145742	8	0.013328	60	10	60-180	60	154	GapExp	0	74	3	1	0	target	0	600	-1000	-2732	13.328	13.293	13.363
ProbeTrackDT01	5	ProbeTrackDT01	10.3	SCS215a	20100519.144901	20100519.145748	8	0.013328	60	10	60-180	60	162	GapExp	0	75	3	2	1	target	1	147	927	-1805	13.328	13.293	13.363
ProbeTrackDT01	5	ProbeTrackDT01	10.3	SCS215a	20100519.144901	20100519.145753	8	0.013328	60	10	60-180	60	103	GapExp	0	76	3	4	0	target	0	2159	-1000	-2805	13.328	13.293	13.363
ProbeTrackDT01	5	ProbeTrackDT01	10.3	SCS215a	20100519.144901	20100519.145800	8	0.013328	60	10	60-180	60	117	GapExp	0	77	3	4	1	distractor	0	2319	-1000	-3805	13.328	13.293	13.363
ProbeTrackDT01	5	ProbeTrackDT01	10.3	SCS215a	20100519.144901	20100519.145808	8	0.013328	60	10	60-180	60	140	GapExp	0	78	3	0	0	distractor	1	2613	0	-3805	13.328	13.242	13.415
ProbeTrackDT01	5	ProbeTrackDT01	10.3	SCS215a	20100519.144901	20100519.145816	8	0.013328	60	10	60-180	60	85	GapExp	0	79	3	75	1	target	1	3372	0	-3805	13.328	13.293	13.366
ProbeTrackDT01	5	ProbeTrackDT01	10.3	SCS215a	20100519.144901	20100519.145825	8	0.013328	60	10	60-180	60	174	GapExp	0	80	3	2	1	distractor	0	2146	-1000	-4805	13.328	13.293	13.363
ProbeTrackDT01	5	ProbeTrackDT01	10.3	SCS215a	20100519.144901	20100519.145832	8	0.013328	60	10	60-180	60	96	GapExp	0	81	3	75	0	distractor	1	667	667	-4138	13.328	13.291	13.363
ProbeTrackDT01	5	ProbeTrackDT01	10.3	SCS215a	20100519.144901	20100519.145839	8	0.013328	60	10	60-180	60	124	GapExp	0	82	3	4	0	distractor	1	933	534	-3604	13.328	13.293	13.363
ProbeTrackDT01	5	ProbeTrackDT01	10.3	SCS215a	20100519.144901	20100519.145845	8	0.013328	60	10	60-180	60	167	GapExp	0	83	3	75	0	distractor	1	573	714	-2890	13.328	13.156	13.482
ProbeTrackDT01	5	ProbeTrackDT01	10.3	SCS215a	20100519.144901	20100519.145852	8	0.013328	60	10	60-180	60	88	GapExp	0	84	3	4	0	distractor	1	907	547	-2343	13.328	13.138	13.518
ProbeTrackDT01	5	ProbeTrackDT01	10.3	SCS215a	20100519.144901	20100519.145858	8	0.013328	60	10	60-180	60	94	GapExp	0	85	3	0	1	target	1	2199	0	-2343	13.328	13.266	13.388
ProbeTrackDT01	5	ProbeTrackDT01	10.3	SCS215a	20100519.144901	20100519.145905	8	0.013328	60	10	60-180	60	105	GapExp	0	86	3	4	1	target	1	760	620	-1723	13.328	13.293	13.363
ProbeTrackDT01	5	ProbeTrackDT01	10.3	SCS215a	20100519.144901	20100519.145910	8	0.013328	60	10	60-180	60	64	GapExp	0	87	3	4	0	distractor	1	960	520	-1203	13.328	13.155	13.467
ProbeTrackDT01	5	ProbeTrackDT01	10.3	SCS215a	20100519.144901	20100519.145915	8	0.013328	60	10	60-180	60	159	GapExp	0	88	3	1	1	distractor	0	920	-1000	-2203	13.328	13.168	13.454
ProbeTrackDT01	5	ProbeTrackDT01	10.3	SCS215a	20100519.144901	20100519.145922	8	0.013328	60	10	60-180	60	115	GapExp	0	89	3	2	1	target	1	2386	0	-2203	13.328	13.293	13.363
ProbeTrackDT01	5	ProbeTrackDT01	10.3	SCS215a	20100519.144901	20100519.145929	8	0.013328	60	10	60-180	60	97	GapExp	0	90	3	0	1	target	1	760	620	-1583	13.328	13.293	13.363
ProbeTrackDT01	5	ProbeTrackDT01	10.3	SCS215a	20100519.144901	20100519.145935	8	0.013328	60	10	60-180	60	137	GapExp	0	91	3	2	0	target	0	1653	-1000	-2583	13.328	13.293	13.363
ProbeTrackDT01	5	ProbeTrackDT01	10.3	SCS215a	20100519.144901	20100519.145941	8	0.013328	60	10	60-180	60	101	GapExp	0	92	3	75	1	distractor	0	1227	-1000	-3583	13.328	13.293	13.363
ProbeTrackDT01	5	ProbeTrackDT01	10.3	SCS215a	20100519.144901	20100519.145948	8	0.013328	60	10	60-180	60	109	GapExp	0	93	3	0	0	target	0	2226	-1000	-4583	13.328	13.293	13.363
ProbeTrackDT01	5	ProbeTrackDT01	10.3	SCS215a	20100519.144901	20100519.145955	8	0.013328	60	10	60-180	60	73	GapExp	0	94	3	0	0	distractor	1	880	560	-4023	13.328	13.293	13.363
ProbeTrackDT01	5	ProbeTrackDT01	10.3	SCS215a	20100519.144901	20100519.150001	8	0.013328	60	10	60-180	60	63	GapExp	0	95	3	4	1	target	1	1000	500	-3523	13.328	13.070	13.586
ProbeTrackDT01	5	ProbeTrackDT01	10.3	SCS215a	20100519.144901	20100519.150006	8	0.013328	60	10	60-180	60	148	GapExp	0	96	3	75	1	target	1	693	654	-2869	13.328	13.201	13.489
ProbeTrackDT01	5	ProbeTrackDT01	10.3	SCS215a	20100519.144901	20100519.150013	8	0.013328	60	10	60-180	60	75	GapExp	0	97	3	0	0	distractor	1	2812	0	-2869	13.328	13.293	13.363
ProbeTrackDT01	5	ProbeTrackDT01	10.3	SCS215a	20100519.144901	20100519.150020	8	0.013328	60	10	60-180	60	140	GapExp	0	98	3	0	0	target	0	3372	-1000	-3869	13.328	13.293	13.363
ProbeTrackDT01	5	ProbeTrackDT01	10.3	SCS215a	20100519.144901	20100519.150029	8	0.013328	60	10	60-180	60	127	GapExp	0	99	3	0	1	target	1	1107	447	-3422	13.328	13.293	13.363
ProbeTrackDT01	5	ProbeTrackDT01	10.3	SCS215a	20100519.144901	20100519.150035	8	0.013328	60	10	60-180	60	121	GapExp	0	100	3	4	0	distractor	1	507	747	-2675	13.328	13.293	13.363
ProbeTrackDT01	5	ProbeTrackDT01	10.3	SCS215a	20100519.144901	20100519.150113	8	0.013328	60	10	60-180	60	120	GapExp	0	101	3	4	1	distractor	0	2986	-1000	-3675	13.328	13.292	13.363
ProbeTrackDT01	5	ProbeTrackDT01	10.3	SCS215a	20100519.144901	20100519.150121	8	0.013328	60	10	60-180	60	84	GapExp	0	102	3	0	0	target	0	880	-1000	-4675	13.328	13.292	13.363
ProbeTrackDT01	5	ProbeTrackDT01	10.3	SCS215a	20100519.144901	20100519.150126	8	0.013328	60	10	60-180	60	62	GapExp	0	103	3	2	0	target	0	3772	-1000	-5675	13.328	13.293	13.363
ProbeTrackDT01	5	ProbeTrackDT01	10.3	SCS215a	20100519.144901	20100519.150134	8	0.013328	60	10	60-180	60	105	GapExp	0	104	3	4	1	distractor	0	2319	-1000	-6675	13.380	13.213	26.690
ProbeTrackDT01	5	ProbeTrackDT01	10.3	SCS215a	20100519.144901	20100519.150141	8	0.013328	60	10	60-180	60	92	GapExp	0	105	3	0	1	target	1	1786	107	-6568	13.328	13.293	13.363
ProbeTrackDT01	5	ProbeTrackDT01	10.3	SCS215a	20100519.144901	20100519.150148	8	0.013328	60	10	60-180	60	130	GapExp	0	106	3	0	1	target	1	427	787	-5781	13.328	13.144	13.478
ProbeTrackDT01	5	ProbeTrackDT01	10.3	SCS215a	20100519.144901	20100519.150153	8	0.013328	60	10	60-180	60	151	GapExp	0	107	3	0	1	target	1	534	733	-5048	13.328	13.293	13.363
ProbeTrackDT01	5	ProbeTrackDT01	10.3	SCS215a	20100519.144901	20100519.150159	8	0.013328	60	10	60-180	60	67	GapExp	0	108	3	2	0	target	0	2119	-1000	-6048	13.328	13.213	13.475
ProbeTrackDT01	5	ProbeTrackDT01	10.3	SCS215a	20100519.144901	20100519.150206	8	0.013328	60	10	60-180	60	136	GapExp	0	109	3	1	1	distractor	0	3106	-1000	-7048	13.328	13.292	13.363
ProbeTrackDT01	5	ProbeTrackDT01	10.3	SCS215a	20100519.144901	20100519.150214	8	0.013328	60	10	60-180	60	74	GapExp	0	110	3	1	1	target	1	800	600	-6448	13.328	13.265	13.363
ProbeTrackDT01	5	ProbeTrackDT01	10.3	SCS215a	20100519.144901	20100519.150219	8	0.013328	60	10	60-180	60	95	GapExp	0	111	3	1	0	target	0	867	-1000	-7448	13.328	13.293	13.364
ProbeTrackDT01	5	ProbeTrackDT01	10.3	SCS215a	20100519.144901	20100519.150225	8	0.013328	60	10	60-180	60	126	GapExp	0	112	3	0	0	target	0	2079	-1000	-8448	13.328	13.293	13.363
ProbeTrackDT01	5	ProbeTrackDT01	10.3	SCS215a	20100519.144901	20100519.150232	8	0.013328	60	10	60-180	60	86	GapExp	0	113	3	1	0	target	0	4372	-1000	-9448	13.328	13.291	13.363
ProbeTrackDT01	5	ProbeTrackDT01	10.3	SCS215a	20100519.144901	20100519.150241	8	0.013328	60	10	60-180	60	108	GapExp	0	114	3	4	1	distractor	0	427	-1000	-10448	13.328	13.293	13.363
ProbeTrackDT01	5	ProbeTrackDT01	10.3	SCS215a	20100519.144901	20100519.150246	8	0.013328	60	10	60-180	60	98	GapExp	0	115	3	75	0	target	0	813	-1000	-11448	13.328	13.293	13.363
ProbeTrackDT01	5	ProbeTrackDT01	10.3	SCS215a	20100519.144901	20100519.150253	8	0.013328	60	10	60-180	60	138	GapExp	0	116	3	75	0	distractor	1	1240	380	-11068	13.328	13.293	13.364
ProbeTrackDT01	5	ProbeTrackDT01	10.3	SCS215a	20100519.144901	20100519.150300	8	0.013328	60	10	60-180	60	94	GapExp	0	117	3	75	1	distractor	0	320	-1000	-12068	13.328	13.293	13.363
ProbeTrackDT01	5	ProbeTrackDT01	10.3	SCS215a	20100519.144901	20100519.150306	8	0.013328	60	10	60-180	60	77	GapExp	0	118	3	4	0	target	0	534	-1000	-13068	13.328	13.293	13.363
ProbeTrackDT01	5	ProbeTrackDT01	10.3	SCS215a	20100519.144901	20100519.150311	8	0.013328	60	10	60-180	60	118	GapExp	0	119	3	75	1	target	1	2013	0	-13068	13.328	13.292	13.363
ProbeTrackDT01	5	ProbeTrackDT01	10.3	SCS215a	20100519.144901	20100519.150319	8	0.013328	60	10	60-180	60	98	GapExp	0	120	3	2	0	distractor	1	973	514	-12554	13.328	13.293	13.363
ProbeTrackDT01	5	ProbeTrackDT01	10.3	SCS215a	20100519.144901	20100519.150325	8	0.013328	60	10	60-180	60	141	GapExp	0	121	3	4	1	distractor	0	560	-1000	-13554	13.328	13.159	13.497
ProbeTrackDT01	5	ProbeTrackDT01	10.3	SCS215a	20100519.144901	20100519.150331	8	0.013328	60	10	60-180	60	76	GapExp	0	122	3	4	0	target	0	653	-1000	-14554	13.328	13.236	13.410
ProbeTrackDT01	5	ProbeTrackDT01	10.3	SCS215a	20100519.144901	20100519.150336	8	0.013328	60	10	60-180	60	179	GapExp	0	123	3	2	0	target	0	1213	-1000	-15554	13.328	13.293	13.363
ProbeTrackDT01	5	ProbeTrackDT01	10.3	SCS215a	20100519.144901	20100519.150343	8	0.013328	60	10	60-180	60	140	GapExp	0	124	3	0	0	distractor	1	3705	0	-15554	13.328	13.132	13.489
ProbeTrackDT01	5	ProbeTrackDT01	10.3	SCS215a	20100519.144901	20100519.150352	8	0.013328	60	10	60-180	60	109	GapExp	0	125	3	2	0	target	0	720	-1000	-16554	13.328	13.293	13.363
ProbeTrackDT01	5	ProbeTrackDT01	10.3	SCS215a	20100519.144901	20100519.150358	8	0.013328	60	10	60-180	60	72	GapExp	0	126	3	4	1	target	1	467	767	-15787	13.328	13.293	13.363
ProbeTrackDT01	5	ProbeTrackDT01	10.3	SCS215a	20100519.144901	20100519.150402	8	0.013328	60	10	60-180	60	156	GapExp	0	127	3	4	0	target	0	760	-1000	-16787	13.328	13.142	13.470
ProbeTrackDT01	5	ProbeTrackDT01	10.3	SCS215a	20100519.144901	20100519.150409	8	0.013328	60	10	60-180	60	142	GapExp	0	128	3	2	1	distractor	0	1600	-1000	-17787	13.328	13.293	13.363
ProbeTrackDT01	5	ProbeTrackDT01	10.3	SCS215a	20100519.144901	20100519.150416	8	0.013328	60	10	60-180	60	152	GapExp	0	129	3	1	1	target	1	374	813	-16974	13.328	13.293	13.363
ProbeTrackDT01	5	ProbeTrackDT01	10.3	SCS215a	20100519.144901	20100519.150422	8	0.013328	60	10	60-180	60	126	GapExp	0	130	3	1	0	target	0	534	-1000	-17974	13.328	13.293	13.363
ProbeTrackDT01	5	ProbeTrackDT01	10.3	SCS215a	20100519.144901	20100519.150427	8	0.013328	60	10	60-180	60	106	GapExp	0	131	3	4	1	distractor	0	2226	-1000	-18974	13.328	13.293	13.363
ProbeTrackDT01	5	ProbeTrackDT01	10.3	SCS215a	20100519.144901	20100519.150434	8	0.013328	60	10	60-180	60	133	GapExp	0	132	3	4	1	target	1	1240	380	-18594	13.328	13.292	13.363
ProbeTrackDT01	5	ProbeTrackDT01	10.3	SCS215a	20100519.144901	20100519.150441	8	0.013328	60	10	60-180	60	169	GapExp	0	133	3	1	0	distractor	1	427	787	-17807	13.328	13.291	13.363
ProbeTrackDT01	5	ProbeTrackDT01	10.3	SCS215a	20100519.144901	20100519.150447	8	0.013328	60	10	60-180	60	127	GapExp	0	134	3	1	0	target	0	2746	-1000	-18807	13.328	13.292	13.362
ProbeTrackDT01	5	ProbeTrackDT01	10.3	SCS215a	20100519.144901	20100519.150455	8	0.013328	60	10	60-180	60	162	GapExp	0	135	3	0	0	distractor	1	1706	147	-18660	13.328	13.293	13.363
ProbeTrackDT01	5	ProbeTrackDT01	10.3	SCS215a	20100519.144901	20100519.150502	8	0.013328	60	10	60-180	60	106	GapExp	0	136	3	1	0	target	0	1773	-1000	-19660	13.328	13.272	13.363
ProbeTrackDT01	5	ProbeTrackDT01	10.3	SCS215a	20100519.144901	20100519.150509	8	0.013328	60	10	60-180	60	118	GapExp	0	137	3	1	1	target	1	574	713	-18947	13.328	13.292	13.363
ProbeTrackDT01	5	ProbeTrackDT01	10.3	SCS215a	20100519.144901	20100519.150514	8	0.013328	60	10	60-180	60	140	GapExp	0	138	3	75	0	target	0	440	-1000	-19947	13.328	13.293	13.363
ProbeTrackDT01	5	ProbeTrackDT01	10.3	SCS215a	20100519.144901	20100519.150521	8	0.013328	60	10	60-180	60	81	GapExp	0	139	3	2	0	distractor	1	667	667	-19280	13.328	13.293	13.362
ProbeTrackDT01	5	ProbeTrackDT01	10.3	SCS215a	20100519.144901	20100519.150526	8	0.013328	60	10	60-180	60	142	GapExp	0	140	3	0	1	distractor	0	480	-1000	-20280	13.328	13.293	13.363
ProbeTrackDT01	5	ProbeTrackDT01	10.3	SCS215a	20100519.144901	20100519.150532	8	0.013328	60	10	60-180	60	116	GapExp	0	141	3	2	0	target	0	440	-1000	-21280	13.328	13.293	13.366
ProbeTrackDT01	5	ProbeTrackDT01	10.3	SCS215a	20100519.144901	20100519.150537	8	0.013328	60	10	60-180	60	174	GapExp	0	142	3	1	0	target	0	1800	-1000	-22280	13.328	13.292	13.363
ProbeTrackDT01	5	ProbeTrackDT01	10.3	SCS215a	20100519.144901	20100519.150545	8	0.013328	60	10	60-180	60	65	GapExp	0	143	3	0	1	target	1	733	634	-21646	13.328	13.256	13.429
ProbeTrackDT01	5	ProbeTrackDT01	10.3	SCS215a	20100519.144901	20100519.150550	8	0.013328	60	10	60-180	60	83	GapExp	0	144	3	75	0	distractor	1	400	800	-20846	13.328	13.293	13.363
ProbeTrackDT01	5	ProbeTrackDT01	10.3	SCS215a	20100519.144901	20100519.150556	8	0.013328	60	10	60-180	60	118	GapExp	0	145	3	75	0	target	0	2639	-1000	-21846	13.328	13.292	13.363
ProbeTrackDT01	5	ProbeTrackDT01	10.3	SCS215a	20100519.144901	20100519.150604	8	0.013328	60	10	60-180	60	169	GapExp	0	146	3	0	1	distractor	0	3346	-1000	-22846	13.328	13.112	13.576
ProbeTrackDT01	5	ProbeTrackDT01	10.3	SCS215a	20100519.144901	20100519.150614	8	0.013328	60	10	60-180	60	134	GapExp	0	147	3	0	1	target	1	1280	360	-22486	13.328	13.293	13.363
ProbeTrackDT01	5	ProbeTrackDT01	10.3	SCS215a	20100519.144901	20100519.150620	8	0.013328	60	10	60-180	60	75	GapExp	0	148	3	0	0	target	0	2839	-1000	-23486	13.328	13.293	13.363
ProbeTrackDT01	5	ProbeTrackDT01	10.3	SCS215a	20100519.144901	20100519.150627	8	0.013328	60	10	60-180	60	155	GapExp	0	149	3	2	1	distractor	0	3625	-1000	-24486	13.328	13.286	13.363
ProbeTrackDT01	5	ProbeTrackDT01	10.3	SCS215a	20100519.144901	20100519.150636	8	0.013328	60	10	60-180	60	111	GapExp	0	150	3	1	1	target	1	2759	0	-24486	13.328	13.293	13.363
ProbeTrackDT01	5	ProbeTrackDT01	10.3	SCS215a	20100519.144901	20100519.150743	8	0.013328	60	10	60-180	60	98	GapExp	0	151	3	4	1	target	1	1720	140	-24346	13.328	13.293	13.363
ProbeTrackDT01	5	ProbeTrackDT01	10.3	SCS215a	20100519.144901	20100519.150750	8	0.013328	60	10	60-180	60	129	GapExp	0	152	3	4	0	target	0	547	-1000	-25346	13.328	13.189	13.485
ProbeTrackDT01	5	ProbeTrackDT01	10.3	SCS215a	20100519.144901	20100519.150755	8	0.013328	60	10	60-180	60	103	GapExp	0	153	3	4	0	target	0	667	-1000	-26346	13.328	13.293	13.363
ProbeTrackDT01	5	ProbeTrackDT01	10.3	SCS215a	20100519.144901	20100519.150801	8	0.013328	60	10	60-180	60	97	GapExp	0	154	3	75	1	target	1	400	800	-25546	13.328	13.241	13.414
ProbeTrackDT01	5	ProbeTrackDT01	10.3	SCS215a	20100519.144901	20100519.150807	8	0.013328	60	10	60-180	60	158	GapExp	0	155	3	2	1	target	1	467	767	-24779	13.328	13.293	13.363
ProbeTrackDT01	5	ProbeTrackDT01	10.3	SCS215a	20100519.144901	20100519.150813	8	0.013328	60	10	60-180	60	62	GapExp	0	156	3	75	1	target	1	454	773	-24006	13.328	13.097	13.525
ProbeTrackDT01	5	ProbeTrackDT01	10.3	SCS215a	20100519.144901	20100519.150819	8	0.013328	60	10	60-180	60	101	GapExp	0	157	3	1	0	target	0	680	-1000	-25006	13.328	13.293	13.363
ProbeTrackDT01	5	ProbeTrackDT01	10.3	SCS215a	20100519.144901	20100519.150824	8	0.013328	60	10	60-180	60	87	GapExp	0	158	3	1	0	target	0	680	-1000	-26006	13.328	13.142	13.514
ProbeTrackDT01	5	ProbeTrackDT01	10.3	SCS215a	20100519.144901	20100519.150829	8	0.013328	60	10	60-180	60	129	GapExp	0	159	3	1	0	distractor	1	587	707	-25299	13.328	13.243	13.446
ProbeTrackDT01	5	ProbeTrackDT01	10.3	SCS215a	20100519.144901	20100519.150835	8	0.013328	60	10	60-180	60	166	GapExp	0	160	3	4	0	target	0	574	-1000	-26299	13.328	13.195	13.427
ProbeTrackDT01	5	ProbeTrackDT01	10.3	SCS215a	20100519.144901	20100519.150841	8	0.013328	60	10	60-180	60	111	GapExp	0	161	3	2	1	target	1	3652	0	-26299	13.328	13.203	13.418
ProbeTrackDT01	5	ProbeTrackDT01	10.3	SCS215a	20100519.144901	20100519.150850	8	0.013328	60	10	60-180	60	67	GapExp	0	162	3	2	1	distractor	0	3186	-1000	-27299	13.328	13.211	13.410
ProbeTrackDT01	5	ProbeTrackDT01	10.3	SCS215a	20100519.144901	20100519.150857	8	0.013328	60	10	60-180	60	128	GapExp	0	163	3	4	1	target	1	920	540	-26759	13.328	13.111	13.579
ProbeTrackDT01	5	ProbeTrackDT01	10.3	SCS215a	20100519.144901	20100519.150904	8	0.013328	60	10	60-180	60	147	GapExp	0	164	3	4	1	target	1	547	727	-26032	13.328	13.292	13.363
ProbeTrackDT01	5	ProbeTrackDT01	10.3	SCS215a	20100519.144901	20100519.150910	8	0.013328	60	10	60-180	60	65	GapExp	0	165	3	75	0	distractor	1	827	587	-25445	13.328	13.293	13.363
ProbeTrackDT01	5	ProbeTrackDT01	10.3	SCS215a	20100519.144901	20100519.150916	8	0.013328	60	10	60-180	60	67	GapExp	0	166	3	75	0	target	0	600	-1000	-26445	13.328	13.293	13.363
ProbeTrackDT01	5	ProbeTrackDT01	10.3	SCS215a	20100519.144901	20100519.150922	8	0.013328	60	10	60-180	60	124	GapExp	0	167	3	75	1	target	1	1253	374	-26071	13.328	13.285	13.371
ProbeTrackDT01	5	ProbeTrackDT01	10.3	SCS215a	20100519.144901	20100519.150929	8	0.013328	60	10	60-180	60	152	GapExp	0	168	3	1	1	target	1	3799	0	-26071	13.328	13.293	13.363
ProbeTrackDT01	5	ProbeTrackDT01	10.3	SCS215a	20100519.144901	20100519.150938	8	0.013328	60	10	60-180	60	104	GapExp	0	169	3	0	0	target	0	1213	-1000	-27071	13.328	13.289	13.363
ProbeTrackDT01	5	ProbeTrackDT01	10.3	SCS215a	20100519.144901	20100519.150944	8	0.013328	60	10	60-180	60	83	GapExp	0	170	3	2	0	distractor	1	1400	300	-26771	13.328	13.293	13.363
ProbeTrackDT01	5	ProbeTrackDT01	10.3	SCS215a	20100519.144901	20100519.150950	8	0.013328	60	10	60-180	60	133	GapExp	0	171	3	0	1	target	1	3919	0	-26771	13.328	13.293	13.363
ProbeTrackDT01	5	ProbeTrackDT01	10.3	SCS215a	20100519.144901	20100519.150959	8	0.013328	60	10	60-180	60	176	GapExp	0	172	3	0	1	distractor	0	1733	-1000	-27771	13.328	13.293	13.371
ProbeTrackDT01	5	ProbeTrackDT01	10.3	SCS215a	20100519.144901	20100519.151006	8	0.013328	60	10	60-180	60	148	GapExp	0	173	3	0	0	distractor	1	3319	0	-27771	13.328	13.288	13.368
ProbeTrackDT01	5	ProbeTrackDT01	10.3	SCS215a	20100519.144901	20100519.151015	8	0.013328	60	10	60-180	60	136	GapExp	0	174	3	1	0	distractor	1	3679	0	-27771	13.328	13.210	13.413
ProbeTrackDT01	5	ProbeTrackDT01	10.3	SCS215a	20100519.144901	20100519.151024	8	0.013328	60	10	60-180	60	120	GapExp	0	175	3	1	1	target	1	4225	0	-27771	13.328	13.253	13.402
ProbeTrackDT01	5	ProbeTrackDT01	10.3	SCS215a	20100519.144901	20100519.151033	8	0.013328	60	10	60-180	60	132	GapExp	0	176	3	1	1	target	1	1453	274	-27497	13.328	13.058	13.563
ProbeTrackDT01	5	ProbeTrackDT01	10.3	SCS215a	20100519.144901	20100519.151040	8	0.013328	60	10	60-180	60	103	GapExp	0	177	3	4	1	distractor	0	680	-1000	-28497	13.328	13.293	13.363
ProbeTrackDT01	5	ProbeTrackDT01	10.3	SCS215a	20100519.144901	20100519.151045	8	0.013328	60	10	60-180	60	126	GapExp	0	178	3	0	1	target	1	667	667	-27830	13.328	13.209	13.481
ProbeTrackDT01	5	ProbeTrackDT01	10.3	SCS215a	20100519.144901	20100519.151051	8	0.013328	60	10	60-180	60	79	GapExp	0	179	3	75	1	target	1	467	767	-27063	13.328	13.292	13.363
ProbeTrackDT01	5	ProbeTrackDT01	10.3	SCS215a	20100519.144901	20100519.151057	8	0.013328	60	10	60-180	60	111	GapExp	0	180	3	2	0	distractor	1	840	580	-26483	13.328	13.293	13.363
ProbeTrackDT01	5	ProbeTrackDT01	10.3	SCS215a	20100519.144901	20100519.151103	8	0.013328	60	10	60-180	60	109	GapExp	0	181	3	2	0	distractor	1	707	647	-25836	13.328	13.293	13.363
ProbeTrackDT01	5	ProbeTrackDT01	10.3	SCS215a	20100519.144901	20100519.151108	8	0.013328	60	10	60-180	60	147	GapExp	0	182	3	0	1	distractor	0	787	-1000	-26836	13.328	13.289	13.363
ProbeTrackDT01	5	ProbeTrackDT01	10.3	SCS215a	20100519.144901	20100519.151115	8	0.013328	60	10	60-180	60	143	GapExp	0	183	3	4	0	target	0	2333	-1000	-27836	13.328	13.175	13.481
ProbeTrackDT01	5	ProbeTrackDT01	10.3	SCS215a	20100519.144901	20100519.151122	8	0.013328	60	10	60-180	60	179	GapExp	0	184	3	1	1	target	1	4638	0	-27836	13.328	13.293	13.363
ProbeTrackDT01	5	ProbeTrackDT01	10.3	SCS215a	20100519.144901	20100519.151134	8	0.013328	60	10	60-180	60	106	GapExp	0	185	3	1	1	target	1	454	773	-27063	13.328	13.068	13.554
ProbeTrackDT01	5	ProbeTrackDT01	10.3	SCS215a	20100519.144901	20100519.151139	8	0.013328	60	10	60-180	60	102	GapExp	0	186	3	0	0	distractor	1	2013	0	-27063	13.328	13.293	13.395
ProbeTrackDT01	5	ProbeTrackDT01	10.3	SCS215a	20100519.144901	20100519.151146	8	0.013328	60	10	60-180	60	131	GapExp	0	187	3	0	1	target	1	2213	0	-27063	13.328	13.027	13.594
ProbeTrackDT01	5	ProbeTrackDT01	10.3	SCS215a	20100519.144901	20100519.151153	8	0.013328	60	10	60-180	60	129	GapExp	0	188	3	1	1	target	1	747	627	-26436	13.328	13.238	13.384
ProbeTrackDT01	5	ProbeTrackDT01	10.3	SCS215a	20100519.144901	20100519.151159	8	0.013328	60	10	60-180	60	124	GapExp	0	189	3	0	0	target	0	760	-1000	-27436	13.328	12.964	13.692
ProbeTrackDT01	5	ProbeTrackDT01	10.3	SCS215a	20100519.144901	20100519.151205	8	0.013328	60	10	60-180	60	81	GapExp	0	190	3	1	0	distractor	1	800	600	-26836	13.328	13.292	13.363
ProbeTrackDT01	5	ProbeTrackDT01	10.3	SCS215a	20100519.144901	20100519.151210	8	0.013328	60	10	60-180	60	115	GapExp	0	191	3	0	0	target	0	493	-1000	-27836	13.328	13.293	13.363
ProbeTrackDT01	5	ProbeTrackDT01	10.3	SCS215a	20100519.144901	20100519.151216	8	0.013328	60	10	60-180	60	140	GapExp	0	192	3	75	0	distractor	1	374	813	-27023	13.328	13.293	13.364
ProbeTrackDT01	5	ProbeTrackDT01	10.3	SCS215a	20100519.144901	20100519.151222	8	0.013328	60	10	60-180	60	99	GapExp	0	193	3	1	1	target	1	454	773	-26250	13.328	13.293	13.363
ProbeTrackDT01	5	ProbeTrackDT01	10.3	SCS215a	20100519.144901	20100519.151227	8	0.013328	60	10	60-180	60	172	GapExp	0	194	3	75	1	target	1	800	600	-25650	13.328	13.147	13.510
ProbeTrackDT01	5	ProbeTrackDT01	10.3	SCS215a	20100519.144901	20100519.151235	8	0.013328	60	10	60-180	60	104	GapExp	0	195	3	4	1	distractor	0	1186	-1000	-26650	13.328	13.293	13.363
ProbeTrackDT01	5	ProbeTrackDT01	10.3	SCS215a	20100519.144901	20100519.151241	8	0.013328	60	10	60-180	60	126	GapExp	0	196	3	1	0	target	0	534	-1000	-27650	13.328	13.132	13.556
ProbeTrackDT01	5	ProbeTrackDT01	10.3	SCS215a	20100519.144901	20100519.151247	8	0.013328	60	10	60-180	60	90	GapExp	0	197	3	0	0	target	0	760	-1000	-28650	13.328	12.863	13.792
ProbeTrackDT01	5	ProbeTrackDT01	10.3	SCS215a	20100519.144901	20100519.151252	8	0.013328	60	10	60-180	60	110	GapExp	0	198	3	1	1	distractor	0	334	-1000	-29650	13.328	13.293	13.363
ProbeTrackDT01	5	ProbeTrackDT01	10.3	SCS215a	20100519.144901	20100519.151257	8	0.013328	60	10	60-180	60	87	GapExp	0	199	3	4	1	target	1	600	700	-28950	13.328	13.168	13.471
ProbeTrackDT01	5	ProbeTrackDT01	10.3	SCS215a	20100519.144901	20100519.151302	8	0.013328	60	10	60-180	60	178	GapExp	0	200	3	75	1	13	-3	1786	-1000	-29950	13.328	13.204	13.453
ProbeTrackDT01	5	ProbeTrackDT01	10.3	SCS215a	20100519.144901	20100519.151415	8	0.013328	60	10	60-180	60	71	GapExp	0	201	3	2	1	target	1	2186	0	-29950	13.328	13.288	13.368
ProbeTrackDT01	5	ProbeTrackDT01	10.3	SCS215a	20100519.144901	20100519.151422	8	0.013328	60	10	60-180	60	103	GapExp	0	202	3	2	0	distractor	1	1933	34	-29916	13.328	13.293	13.363
ProbeTrackDT01	5	ProbeTrackDT01	10.3	SCS215a	20100519.144901	20100519.151429	8	0.013328	60	10	60-180	60	111	GapExp	0	203	3	1	1	distractor	0	1893	-1000	-30916	13.328	13.293	13.363
ProbeTrackDT01	5	ProbeTrackDT01	10.3	SCS215a	20100519.144901	20100519.151435	8	0.013328	60	10	60-180	60	171	GapExp	0	204	3	75	0	target	0	893	-1000	-31916	13.328	13.293	13.363
ProbeTrackDT01	5	ProbeTrackDT01	10.3	SCS215a	20100519.144901	20100519.151443	8	0.013328	60	10	60-180	60	139	GapExp	0	205	3	4	0	distractor	1	813	594	-31322	13.328	13.293	13.363
ProbeTrackDT01	5	ProbeTrackDT01	10.3	SCS215a	20100519.144901	20100519.151449	8	0.013328	60	10	60-180	60	132	GapExp	0	206	3	0	0	target	0	1573	-1000	-32322	13.328	13.134	13.522
ProbeTrackDT01	5	ProbeTrackDT01	10.3	SCS215a	20100519.144901	20100519.151456	8	0.013328	60	10	60-180	60	180	GapExp	0	207	3	75	0	distractor	1	827	587	-31735	13.328	13.211	13.446
ProbeTrackDT01	5	ProbeTrackDT01	10.3	SCS215a	20100519.144901	20100519.151503	8	0.013328	60	10	60-180	60	159	GapExp	0	208	3	75	1	distractor	0	1906	-1000	-32735	13.328	13.293	13.364
ProbeTrackDT01	5	ProbeTrackDT01	10.3	SCS215a	20100519.144901	20100519.151512	8	0.013328	60	10	60-180	60	112	GapExp	0	209	3	4	0	distractor	1	1000	500	-32235	13.328	13.291	13.366
ProbeTrackDT01	5	ProbeTrackDT01	10.3	SCS215a	20100519.144901	20100519.151518	8	0.013328	60	10	60-180	60	163	GapExp	0	210	3	1	1	distractor	0	2226	-1000	-33235	13.328	13.293	13.363
