exp	sub	code	rev	comp	runtime	trialtime	nstim	refreshdur	cuedur	gapdur	gapOnsetRange	durPostProbe	gapOnsetTime	blocktype	prac	trial	ntargets	soa	probeTarget	resp	acc	rt	pts	tpts	meanFrameDur	minFrameDur	maxFrameDur
ProbeTrackDT01	27	ProbeTrack	10.4	SCS215a	20100715.100013	20100715.100030	8	0.013328	60	0	60-180	60	131	NoGap	1	1	2	0	1	target	1	1440	280	280	13.378	12.857	27.144
ProbeTrackDT01	27	ProbeTrack	10.4	SCS215a	20100715.100013	20100715.100036	8	0.013328	60	0	60-180	60	124	NoGap	1	2	2	75	0	distractor	1	1067	467	747	13.328	13.251	13.371
ProbeTrackDT01	27	ProbeTrack	10.4	SCS215a	20100715.100013	20100715.100043	8	0.013328	60	0	60-180	60	133	NoGap	1	3	2	4	0	multi	-2	1266	-1000	-253	13.328	13.293	13.363
ProbeTrackDT01	27	ProbeTrack	10.4	SCS215a	20100715.100013	20100715.100050	8	0.013328	60	0	60-180	60	90	NoGap	1	4	2	75	0	distractor	1	1067	467	214	13.328	13.080	13.541
ProbeTrackDT01	27	ProbeTrack	10.4	SCS215a	20100715.100013	20100715.100056	8	0.013328	60	0	60-180	60	100	NoGap	1	5	2	2	0	distractor	1	1133	434	648	13.328	13.289	13.363
ProbeTrackDT01	27	ProbeTrack	10.4	SCS215a	20100715.100013	20100715.100102	8	0.013328	60	0	60-180	60	170	NoGap	1	6	2	75	1	target	1	853	574	1222	13.328	13.139	13.482
ProbeTrackDT01	27	ProbeTrack	10.4	SCS215a	20100715.100013	20100715.100109	8	0.013328	60	0	60-180	60	65	NoGap	1	7	2	1	0	distractor	1	973	514	1736	13.328	13.233	13.422
ProbeTrackDT01	27	ProbeTrack	10.4	SCS215a	20100715.100013	20100715.100114	8	0.013328	60	0	60-180	60	84	NoGap	1	8	2	0	0	distractor	1	1067	467	2203	13.328	13.065	13.609
ProbeTrackDT01	27	ProbeTrack	10.4	SCS215a	20100715.100013	20100715.100120	8	0.013328	60	0	60-180	60	83	NoGap	1	9	2	4	0	target	0	1133	-1000	1203	13.328	13.223	13.431
ProbeTrackDT01	27	ProbeTrack	10.4	SCS215a	20100715.100013	20100715.100125	8	0.013328	60	0	60-180	60	114	NoGap	1	10	2	0	1	target	1	1133	434	1637	13.328	13.293	13.363
ProbeTrackDT01	27	ProbeTrack	10.4	SCS215a	20100715.100013	20100715.100131	8	0.013328	60	0	60-180	60	64	NoGap	1	11	2	0	1	multi	-2	1227	-1000	637	13.328	13.115	13.510
ProbeTrackDT01	27	ProbeTrack	10.4	SCS215a	20100715.100013	20100715.100136	8	0.013328	60	0	60-180	60	77	NoGap	1	12	2	4	0	distractor	1	1000	500	1137	13.328	13.269	13.386
ProbeTrackDT01	27	ProbeTrack	10.4	SCS215a	20100715.100013	20100715.100142	8	0.013328	60	0	60-180	60	96	NoGap	1	13	2	75	1	target	1	667	667	1804	13.328	13.293	13.363
ProbeTrackDT01	27	ProbeTrack	10.4	SCS215a	20100715.100013	20100715.100148	8	0.013328	60	0	60-180	60	131	NoGap	1	14	2	2	1	target	1	720	640	2444	13.328	13.197	13.460
ProbeTrackDT01	27	ProbeTrack	10.4	SCS215a	20100715.100013	20100715.100154	8	0.013328	60	0	60-180	60	120	NoGap	1	15	2	0	0	distractor	1	720	640	3084	13.328	13.199	13.491
ProbeTrackDT01	27	ProbeTrack	10.4	SCS215a	20100715.100013	20100715.100159	8	0.013328	60	0	60-180	60	142	NoGap	1	16	2	1	0	distractor	1	773	614	3698	13.328	13.289	13.363
ProbeTrackDT01	27	ProbeTrack	10.4	SCS215a	20100715.100013	20100715.100205	8	0.013328	60	0	60-180	60	103	NoGap	1	17	2	4	1	target	1	600	700	4398	13.328	13.240	13.416
ProbeTrackDT01	27	ProbeTrack	10.4	SCS215a	20100715.100013	20100715.100210	8	0.013328	60	0	60-180	60	128	NoGap	1	18	2	0	1	target	1	627	687	5085	13.328	13.293	13.363
ProbeTrackDT01	27	ProbeTrack	10.4	SCS215a	20100715.100013	20100715.100216	8	0.013328	60	0	60-180	60	111	NoGap	1	19	2	2	1	target	1	747	627	5712	13.328	13.278	13.412
ProbeTrackDT01	27	ProbeTrack	10.4	SCS215a	20100715.100013	20100715.100222	8	0.013328	60	0	60-180	60	127	NoGap	1	20	2	0	0	distractor	1	693	654	6366	13.380	13.290	26.688
ProbeTrackDT01	27	ProbeTrack	10.4	SCS215a	20100715.100013	20100715.100227	8	0.013328	60	0	60-180	60	156	NoGap	1	21	2	2	0	target	0	720	-1000	5366	13.328	13.210	13.411
ProbeTrackDT01	27	ProbeTrack	10.4	SCS215a	20100715.100013	20100715.100233	8	0.013328	60	0	60-180	60	118	NoGap	1	22	2	75	0	distractor	1	680	660	6026	13.369	13.141	26.797
ProbeTrackDT01	27	ProbeTrack	10.4	SCS215a	20100715.100013	20100715.100240	8	0.013328	60	0	60-180	60	154	NoGap	1	23	2	1	0	distractor	1	920	540	6566	13.328	13.248	13.374
ProbeTrackDT01	27	ProbeTrack	10.4	SCS215a	20100715.100013	20100715.100246	8	0.013328	60	0	60-180	60	145	NoGap	1	24	2	75	1	191	-3	773	-1000	5566	13.328	13.293	13.362
ProbeTrackDT01	27	ProbeTrack	10.4	SCS215a	20100715.100013	20100715.100253	8	0.013328	60	0	60-180	60	101	NoGap	1	25	2	75	1	target	1	627	687	6253	13.328	13.293	13.363
ProbeTrackDT01	27	ProbeTrack	10.4	SCS215a	20100715.100013	20100715.100259	8	0.013328	60	0	60-180	60	138	NoGap	1	26	2	2	0	distractor	1	733	634	6887	13.328	13.113	13.543
ProbeTrackDT01	27	ProbeTrack	10.4	SCS215a	20100715.100013	20100715.100305	8	0.013328	60	0	60-180	60	114	NoGap	1	27	2	2	1	target	1	707	647	7534	13.328	13.036	13.586
ProbeTrackDT01	27	ProbeTrack	10.4	SCS215a	20100715.100013	20100715.100311	8	0.013328	60	0	60-180	60	179	NoGap	1	28	2	2	0	distractor	1	734	633	8167	13.328	13.209	13.446
ProbeTrackDT01	27	ProbeTrack	10.4	SCS215a	20100715.100013	20100715.100317	8	0.013328	60	0	60-180	60	106	NoGap	1	29	2	1	1	target	1	733	634	8801	13.328	13.161	13.461
ProbeTrackDT01	27	ProbeTrack	10.4	SCS215a	20100715.100013	20100715.100322	8	0.013328	60	0	60-180	60	72	NoGap	1	30	2	0	0	distractor	1	707	647	9448	13.328	13.293	13.363
ProbeTrackDT01	27	ProbeTrack	10.4	SCS215a	20100715.100013	20100715.100327	8	0.013328	60	0	60-180	60	151	NoGap	1	31	2	1	1	target	1	741	630	10078	13.328	13.038	13.652
ProbeTrackDT01	27	ProbeTrack	10.4	SCS215a	20100715.100013	20100715.100333	8	0.013328	60	0	60-180	60	74	NoGap	1	32	2	2	1	target	1	627	687	10765	13.328	13.115	13.507
ProbeTrackDT01	27	ProbeTrack	10.4	SCS215a	20100715.100013	20100715.100338	8	0.013328	60	0	60-180	60	142	NoGap	1	33	2	4	0	target	0	587	-1000	9765	13.328	13.046	13.644
ProbeTrackDT01	27	ProbeTrack	10.4	SCS215a	20100715.100013	20100715.100344	8	0.013328	60	0	60-180	60	130	NoGap	1	34	2	1	1	target	1	578	711	10476	13.328	13.239	13.416
ProbeTrackDT01	27	ProbeTrack	10.4	SCS215a	20100715.100013	20100715.100350	8	0.013328	60	0	60-180	60	171	NoGap	1	35	2	75	0	distractor	1	787	607	11083	13.398	13.227	39.949
ProbeTrackDT01	27	ProbeTrack	10.4	SCS215a	20100715.100013	20100715.100357	8	0.013328	60	0	60-180	60	146	NoGap	1	36	2	4	1	target	1	547	727	11810	13.328	13.293	13.363
ProbeTrackDT01	27	ProbeTrack	10.4	SCS215a	20100715.100013	20100715.100403	8	0.013328	60	0	60-180	60	101	NoGap	1	37	2	1	1	target	1	560	720	12530	13.328	13.180	13.474
ProbeTrackDT01	27	ProbeTrack	10.4	SCS215a	20100715.100013	20100715.100408	8	0.013328	60	0	60-180	60	144	NoGap	1	38	2	4	1	target	1	347	827	13357	13.328	13.291	13.363
ProbeTrackDT01	27	ProbeTrack	10.4	SCS215a	20100715.100013	20100715.100414	8	0.013328	60	0	60-180	60	126	NoGap	1	39	2	1	0	distractor	1	760	620	13977	13.328	13.293	13.363
ProbeTrackDT01	27	ProbeTrack	10.4	SCS215a	20100715.100013	20100715.100419	8	0.013328	60	0	60-180	60	171	NoGap	1	40	2	4	1	target	1	427	787	14764	13.328	13.293	13.365
ProbeTrackDT01	27	ProbeTrack	10.4	SCS215a	20100715.100526	20100715.100531	8	0.013328	60	10	60-180	60	140	GapPrac	1	1	2	4	1	target	1	960	520	15284	13.328	13.185	13.437
ProbeTrackDT01	27	ProbeTrack	10.4	SCS215a	20100715.100526	20100715.100538	8	0.013328	60	10	60-180	60	82	GapPrac	1	2	2	4	0	distractor	1	1093	454	15738	13.328	13.058	13.564
ProbeTrackDT01	27	ProbeTrack	10.4	SCS215a	20100715.100526	20100715.100543	8	0.013328	60	10	60-180	60	150	GapPrac	1	3	2	75	0	distractor	1	973	514	16252	13.328	13.040	13.583
ProbeTrackDT01	27	ProbeTrack	10.4	SCS215a	20100715.100526	20100715.100551	8	0.013328	60	10	60-180	60	151	GapPrac	1	4	2	4	0	distractor	1	680	660	16912	13.328	13.071	13.585
ProbeTrackDT01	27	ProbeTrack	10.4	SCS215a	20100715.100526	20100715.100557	8	0.013328	60	10	60-180	60	155	GapPrac	1	5	2	1	1	target	1	707	647	17559	13.328	13.093	13.530
ProbeTrackDT01	27	ProbeTrack	10.4	SCS215a	20100715.100526	20100715.100603	8	0.013328	60	10	60-180	60	134	GapPrac	1	6	2	1	0	distractor	1	707	647	18206	13.328	13.031	13.624
ProbeTrackDT01	27	ProbeTrack	10.4	SCS215a	20100715.100526	20100715.100609	8	0.013328	60	10	60-180	60	153	GapPrac	1	7	2	0	0	distractor	1	880	560	18766	13.328	13.132	13.553
ProbeTrackDT01	27	ProbeTrack	10.4	SCS215a	20100715.100526	20100715.100615	8	0.013328	60	10	60-180	60	133	GapPrac	1	8	2	75	0	target	0	787	-1000	17766	13.328	13.239	13.451
ProbeTrackDT01	27	ProbeTrack	10.4	SCS215a	20100715.100526	20100715.100622	8	0.013328	60	10	60-180	60	98	GapPrac	1	9	2	1	1	target	1	893	554	18320	13.328	13.068	13.604
ProbeTrackDT01	27	ProbeTrack	10.4	SCS215a	20100715.100526	20100715.100628	8	0.013328	60	10	60-180	60	69	GapPrac	1	10	2	0	0	multi	-2	1013	-1000	17320	13.328	13.293	13.363
ProbeTrackDT01	27	ProbeTrack	10.4	SCS215a	20100715.100526	20100715.100633	8	0.013328	60	10	60-180	60	110	GapPrac	1	11	2	75	1	target	1	893	554	17874	13.368	13.008	26.835
ProbeTrackDT01	27	ProbeTrack	10.4	SCS215a	20100715.100526	20100715.100640	8	0.013328	60	10	60-180	60	111	GapPrac	1	12	2	2	0	target	0	893	-1000	16874	13.328	13.233	13.423
ProbeTrackDT01	27	ProbeTrack	10.4	SCS215a	20100715.100526	20100715.100646	8	0.013328	60	10	60-180	60	84	GapPrac	1	13	2	0	1	target	1	760	620	17494	13.328	13.028	13.627
ProbeTrackDT01	27	ProbeTrack	10.4	SCS215a	20100715.100526	20100715.100651	8	0.013328	60	10	60-180	60	90	GapPrac	1	14	2	75	1	distractor	0	773	-1000	16494	13.328	13.086	13.535
ProbeTrackDT01	27	ProbeTrack	10.4	SCS215a	20100715.100526	20100715.100657	8	0.013328	60	10	60-180	60	92	GapPrac	1	15	2	0	1	target	1	787	607	17101	13.328	13.001	13.654
ProbeTrackDT01	27	ProbeTrack	10.4	SCS215a	20100715.100526	20100715.100703	8	0.013328	60	10	60-180	60	142	GapPrac	1	16	2	2	1	target	1	733	634	17735	13.328	13.216	13.439
ProbeTrackDT01	27	ProbeTrack	10.4	SCS215a	20100715.100526	20100715.100709	8	0.013328	60	10	60-180	60	70	GapPrac	1	17	2	1	0	target	0	800	-1000	16735	13.451	13.282	39.949
ProbeTrackDT01	27	ProbeTrack	10.4	SCS215a	20100715.100526	20100715.100714	8	0.013328	60	10	60-180	60	90	GapPrac	1	18	2	2	1	target	1	667	667	17402	13.444	13.177	39.983
ProbeTrackDT01	27	ProbeTrack	10.4	SCS215a	20100715.100526	20100715.100719	8	0.013328	60	10	60-180	60	132	GapPrac	1	19	2	2	0	distractor	1	787	607	18009	13.423	13.017	40.215
ProbeTrackDT01	27	ProbeTrack	10.4	SCS215a	20100715.100526	20100715.100725	8	0.013328	60	10	60-180	60	85	GapPrac	1	20	2	4	1	target	1	680	660	18669	13.328	13.274	13.414
ProbeTrackDT01	27	ProbeTrack	10.4	SCS215a	20100715.101046	20100715.101052	8	0.013328	60	10	60-180	60	63	GapPrac	1	1	2	75	0	distractor	1	1200	400	19069	13.350	13.040	13.615
ProbeTrackDT01	27	ProbeTrack	10.4	SCS215a	20100715.101046	20100715.101059	8	0.013328	60	10	60-180	60	146	GapPrac	1	2	2	0	0	distractor	1	893	554	19623	13.328	13.179	13.443
ProbeTrackDT01	27	ProbeTrack	10.4	SCS215a	20100715.101046	20100715.101105	8	0.013328	60	10	60-180	60	148	GapPrac	1	3	2	1	0	target	0	920	-1000	18623	13.328	13.109	13.546
ProbeTrackDT01	27	ProbeTrack	10.4	SCS215a	20100715.101046	20100715.101111	8	0.013328	60	10	60-180	60	136	GapPrac	1	4	2	2	1	target	1	853	574	19197	13.422	13.292	39.982
ProbeTrackDT01	27	ProbeTrack	10.4	SCS215a	20100715.101046	20100715.101117	8	0.013328	60	10	60-180	60	117	GapPrac	1	5	2	2	0	distractor	1	880	560	19757	13.328	13.151	13.505
ProbeTrackDT01	27	ProbeTrack	10.4	SCS215a	20100715.101046	20100715.101123	8	0.013328	60	10	60-180	60	139	GapPrac	1	6	2	2	1	target	1	787	607	20364	13.328	13.290	13.363
ProbeTrackDT01	27	ProbeTrack	10.4	SCS215a	20100715.101046	20100715.101129	8	0.013328	60	10	60-180	60	119	GapPrac	1	7	2	4	0	distractor	1	947	527	20891	13.328	13.245	13.375
ProbeTrackDT01	27	ProbeTrack	10.4	SCS215a	20100715.101046	20100715.101135	8	0.013328	60	10	60-180	60	86	GapPrac	1	8	2	4	0	distractor	1	760	620	21511	13.328	13.083	13.573
ProbeTrackDT01	27	ProbeTrack	10.4	SCS215a	20100715.101046	20100715.101141	8	0.013328	60	10	60-180	60	74	GapPrac	1	9	2	1	1	target	1	893	554	22065	13.328	13.183	13.472
ProbeTrackDT01	27	ProbeTrack	10.4	SCS215a	20100715.101046	20100715.101146	8	0.013328	60	10	60-180	60	84	GapPrac	1	10	2	1	1	target	1	733	634	22699	13.328	13.026	13.596
ProbeTrackDT01	27	ProbeTrack	10.4	SCS215a	20100715.101046	20100715.101151	8	0.013328	60	10	60-180	60	162	GapPrac	1	11	2	1	0	target	0	907	-1000	21699	13.328	13.093	13.596
ProbeTrackDT01	27	ProbeTrack	10.4	SCS215a	20100715.101046	20100715.101158	8	0.013328	60	10	60-180	60	109	GapPrac	1	12	2	0	1	target	1	853	574	22273	13.328	12.934	13.721
ProbeTrackDT01	27	ProbeTrack	10.4	SCS215a	20100715.101046	20100715.101203	8	0.013328	60	10	60-180	60	102	GapPrac	1	13	2	4	1	target	1	733	634	22907	13.328	13.095	13.594
ProbeTrackDT01	27	ProbeTrack	10.4	SCS215a	20100715.101046	20100715.101209	8	0.013328	60	10	60-180	60	132	GapPrac	1	14	2	75	1	target	1	867	567	23474	13.328	13.031	13.624
ProbeTrackDT01	27	ProbeTrack	10.4	SCS215a	20100715.101046	20100715.101216	8	0.013328	60	10	60-180	60	100	GapPrac	1	15	2	4	1	target	1	747	627	24101	13.328	13.007	13.614
ProbeTrackDT01	27	ProbeTrack	10.4	SCS215a	20100715.101046	20100715.101221	8	0.013328	60	10	60-180	60	104	GapPrac	1	16	2	75	1	target	1	760	620	24721	13.328	13.099	13.590
ProbeTrackDT01	27	ProbeTrack	10.4	SCS215a	20100715.101046	20100715.101228	8	0.013328	60	10	60-180	60	69	GapPrac	1	17	2	0	0	target	0	853	-1000	23721	13.328	13.013	13.642
ProbeTrackDT01	27	ProbeTrack	10.4	SCS215a	20100715.101046	20100715.101233	8	0.013328	60	10	60-180	60	127	GapPrac	1	18	2	0	1	target	1	813	594	24315	13.328	13.207	13.416
ProbeTrackDT01	27	ProbeTrack	10.4	SCS215a	20100715.101046	20100715.101239	8	0.013328	60	10	60-180	60	178	GapPrac	1	19	2	2	0	distractor	1	893	554	24869	13.369	13.055	26.623
ProbeTrackDT01	27	ProbeTrack	10.4	SCS215a	20100715.101046	20100715.101246	8	0.013328	60	10	60-180	60	101	GapPrac	1	20	2	75	0	distractor	1	1013	494	25363	13.328	13.293	13.363
ProbeTrackDT01	27	ProbeTrack	10.4	SCS215a	20100715.101339	20100715.101347	8	0.013328	60	10	60-180	60	81	GapExp	1	1	2	1	0	distractor	1	960	520	25883	13.328	13.293	13.363
ProbeTrackDT01	27	ProbeTrack	10.4	SCS215a	20100715.101339	20100715.101353	8	0.013328	60	10	60-180	60	76	GapExp	1	2	2	4	1	target	1	867	567	26450	13.328	13.122	13.567
ProbeTrackDT01	27	ProbeTrack	10.4	SCS215a	20100715.101339	20100715.101358	8	0.013328	60	10	60-180	60	128	GapExp	1	3	2	1	1	target	1	813	594	27044	13.376	12.980	26.653
ProbeTrackDT01	27	ProbeTrack	10.4	SCS215a	20100715.101339	20100715.101404	8	0.013328	60	10	60-180	60	143	GapExp	1	4	2	4	0	distractor	1	800	600	27644	13.328	13.292	13.363
ProbeTrackDT01	27	ProbeTrack	10.4	SCS215a	20100715.101339	20100715.101410	8	0.013328	60	10	60-180	60	155	GapExp	1	5	2	0	1	distractor	0	933	-1000	26644	13.328	12.893	13.728
ProbeTrackDT01	27	ProbeTrack	10.4	SCS215a	20100715.101339	20100715.101416	8	0.013328	60	10	60-180	60	148	GapExp	1	6	2	0	0	distractor	1	840	580	27224	13.373	13.101	26.621
ProbeTrackDT01	27	ProbeTrack	10.4	SCS215a	20100715.101339	20100715.101423	8	0.013328	60	10	60-180	60	101	GapExp	1	7	2	75	1	target	1	853	574	27798	13.369	13.149	26.655
ProbeTrackDT01	27	ProbeTrack	10.4	SCS215a	20100715.101339	20100715.101429	8	0.013328	60	10	60-180	60	89	GapExp	1	8	2	2	0	distractor	1	813	594	28392	13.384	13.264	26.657
ProbeTrackDT01	27	ProbeTrack	10.4	SCS215a	20100715.101339	20100715.101435	8	0.013328	60	10	60-180	60	107	GapExp	1	9	2	2	1	target	1	827	587	28979	13.328	13.157	13.531
ProbeTrackDT01	27	ProbeTrack	10.4	SCS215a	20100715.101339	20100715.101440	8	0.013328	60	10	60-180	60	112	GapExp	1	10	2	75	0	distractor	1	760	620	29599	13.328	13.293	13.363
ProbeTrackDT01	27	ProbeTrack	10.4	SCS215a	20100715.101339	20100715.101447	8	0.013328	60	10	60-180	60	113	GapExp	0	11	2	1	1	target	1	787	607	30206	13.328	12.966	13.689
ProbeTrackDT01	27	ProbeTrack	10.4	SCS215a	20100715.101339	20100715.101453	8	0.013328	60	10	60-180	60	149	GapExp	0	12	2	0	1	distractor	0	853	-1000	29206	13.373	13.104	26.654
ProbeTrackDT01	27	ProbeTrack	10.4	SCS215a	20100715.101339	20100715.101459	8	0.013328	60	10	60-180	60	118	GapExp	0	13	2	75	1	target	1	827	587	29793	13.367	13.159	26.779
ProbeTrackDT01	27	ProbeTrack	10.4	SCS215a	20100715.101339	20100715.101506	8	0.013328	60	10	60-180	60	107	GapExp	0	14	2	0	0	distractor	1	880	560	30353	13.381	13.292	26.688
ProbeTrackDT01	27	ProbeTrack	10.4	SCS215a	20100715.101339	20100715.101511	8	0.013328	60	10	60-180	60	70	GapExp	0	15	2	75	0	distractor	1	960	520	30873	13.374	13.183	26.689
ProbeTrackDT01	27	ProbeTrack	10.4	SCS215a	20100715.101339	20100715.101518	8	0.013328	60	10	60-180	60	167	GapExp	0	16	2	75	0	target	0	840	-1000	29873	13.328	13.043	13.613
ProbeTrackDT01	27	ProbeTrack	10.4	SCS215a	20100715.101339	20100715.101525	8	0.013328	60	10	60-180	60	72	GapExp	0	17	2	2	1	target	1	1027	487	30360	13.328	13.154	13.501
ProbeTrackDT01	27	ProbeTrack	10.4	SCS215a	20100715.101339	20100715.101531	8	0.013328	60	10	60-180	60	157	GapExp	0	18	2	2	0	distractor	1	787	607	30967	13.328	13.281	13.375
ProbeTrackDT01	27	ProbeTrack	10.4	SCS215a	20100715.101339	20100715.101537	8	0.013328	60	10	60-180	60	63	GapExp	0	19	2	4	1	target	1	840	580	31547	13.328	13.251	13.371
ProbeTrackDT01	27	ProbeTrack	10.4	SCS215a	20100715.101339	20100715.101542	8	0.013328	60	10	60-180	60	139	GapExp	0	20	2	4	1	target	1	733	634	32181	13.328	12.968	13.722
ProbeTrackDT01	27	ProbeTrack	10.4	SCS215a	20100715.101339	20100715.101548	8	0.013328	60	10	60-180	60	165	GapExp	0	21	2	1	0	distractor	1	787	607	32788	13.328	13.024	13.597
ProbeTrackDT01	27	ProbeTrack	10.4	SCS215a	20100715.101339	20100715.101554	8	0.013328	60	10	60-180	60	97	GapExp	0	22	2	4	0	target	0	853	-1000	31788	13.328	13.274	13.383
ProbeTrackDT01	27	ProbeTrack	10.4	SCS215a	20100715.101339	20100715.101600	8	0.013328	60	10	60-180	60	125	GapExp	0	23	2	2	0	distractor	1	907	547	32335	13.328	13.289	13.365
ProbeTrackDT01	27	ProbeTrack	10.4	SCS215a	20100715.101339	20100715.101606	8	0.013328	60	10	60-180	60	72	GapExp	0	24	2	0	0	target	0	1027	-1000	31335	13.328	13.293	13.363
ProbeTrackDT01	27	ProbeTrack	10.4	SCS215a	20100715.101339	20100715.101611	8	0.013328	60	10	60-180	60	130	GapExp	0	25	2	75	0	distractor	1	947	527	31862	13.366	13.293	26.690
ProbeTrackDT01	27	ProbeTrack	10.4	SCS215a	20100715.101339	20100715.101618	8	0.013328	60	10	60-180	60	97	GapExp	0	26	2	4	1	target	1	747	627	32489	13.328	13.293	13.363
ProbeTrackDT01	27	ProbeTrack	10.4	SCS215a	20100715.101339	20100715.101624	8	0.013328	60	10	60-180	60	72	GapExp	0	27	2	4	1	distractor	0	827	-1000	31489	13.328	13.265	13.424
ProbeTrackDT01	27	ProbeTrack	10.4	SCS215a	20100715.101339	20100715.101629	8	0.013328	60	10	60-180	60	130	GapExp	0	28	2	2	0	distractor	1	853	574	32063	13.376	13.014	26.969
ProbeTrackDT01	27	ProbeTrack	10.4	SCS215a	20100715.101339	20100715.101635	8	0.013328	60	10	60-180	60	121	GapExp	0	29	2	1	1	target	1	800	600	32663	13.377	13.200	26.784
ProbeTrackDT01	27	ProbeTrack	10.4	SCS215a	20100715.101339	20100715.101641	8	0.013328	60	10	60-180	60	160	GapExp	0	30	2	1	0	distractor	1	787	607	33270	13.328	13.143	13.479
ProbeTrackDT01	27	ProbeTrack	10.4	SCS215a	20100715.101339	20100715.101647	8	0.013328	60	10	60-180	60	124	GapExp	0	31	2	75	0	target	0	800	-1000	32270	13.328	13.040	13.582
ProbeTrackDT01	27	ProbeTrack	10.4	SCS215a	20100715.101339	20100715.101654	8	0.013328	60	10	60-180	60	81	GapExp	0	32	2	2	0	distractor	1	760	620	32890	13.328	13.293	13.363
ProbeTrackDT01	27	ProbeTrack	10.4	SCS215a	20100715.101339	20100715.101659	8	0.013328	60	10	60-180	60	136	GapExp	0	33	2	1	1	target	1	760	620	33510	13.328	13.293	13.365
ProbeTrackDT01	27	ProbeTrack	10.4	SCS215a	20100715.101339	20100715.101705	8	0.013328	60	10	60-180	60	130	GapExp	0	34	2	75	0	target	0	1280	-1000	32510	13.404	12.801	27.183
ProbeTrackDT01	27	ProbeTrack	10.4	SCS215a	20100715.101339	20100715.101713	8	0.013328	60	10	60-180	60	127	GapExp	0	35	2	0	0	target	0	933	-1000	31510	13.377	12.844	27.106
ProbeTrackDT01	27	ProbeTrack	10.4	SCS215a	20100715.101339	20100715.101719	8	0.013328	60	10	60-180	60	158	GapExp	0	36	2	4	1	target	1	947	527	32037	13.328	13.293	13.363
ProbeTrackDT01	27	ProbeTrack	10.4	SCS215a	20100715.101339	20100715.101725	8	0.013328	60	10	60-180	60	110	GapExp	0	37	2	75	0	distractor	1	867	567	32604	13.328	13.129	13.526
ProbeTrackDT01	27	ProbeTrack	10.4	SCS215a	20100715.101339	20100715.101732	8	0.013328	60	10	60-180	60	91	GapExp	0	38	2	4	0	distractor	1	867	567	33171	13.328	13.293	13.370
ProbeTrackDT01	27	ProbeTrack	10.4	SCS215a	20100715.101339	20100715.101738	8	0.013328	60	10	60-180	60	93	GapExp	0	39	2	0	1	target	1	813	594	33765	13.328	13.061	13.560
ProbeTrackDT01	27	ProbeTrack	10.4	SCS215a	20100715.101339	20100715.101743	8	0.013328	60	10	60-180	60	159	GapExp	0	40	2	4	1	target	1	840	580	34345	13.328	13.292	13.364
ProbeTrackDT01	27	ProbeTrack	10.4	SCS215a	20100715.101339	20100715.101749	8	0.013328	60	10	60-180	60	122	GapExp	0	41	2	2	0	distractor	1	788	606	34951	13.328	12.993	13.662
ProbeTrackDT01	27	ProbeTrack	10.4	SCS215a	20100715.101339	20100715.101755	8	0.013328	60	10	60-180	60	154	GapExp	0	42	2	2	1	distractor	0	867	-1000	33951	13.372	13.016	26.654
ProbeTrackDT01	27	ProbeTrack	10.4	SCS215a	20100715.101339	20100715.101802	8	0.013328	60	10	60-180	60	112	GapExp	0	43	2	75	1	target	1	827	587	34538	13.328	12.928	13.691
ProbeTrackDT01	27	ProbeTrack	10.4	SCS215a	20100715.101339	20100715.101808	8	0.013328	60	10	60-180	60	86	GapExp	0	44	2	2	0	distractor	1	747	627	35165	13.328	13.293	13.363
ProbeTrackDT01	27	ProbeTrack	10.4	SCS215a	20100715.101339	20100715.101814	8	0.013328	60	10	60-180	60	157	GapExp	0	45	2	4	1	target	1	840	580	35745	13.415	13.173	26.688
ProbeTrackDT01	27	ProbeTrack	10.4	SCS215a	20100715.101339	20100715.101820	8	0.013328	60	10	60-180	60	104	GapExp	0	46	2	75	1	target	1	747	627	36372	13.369	13.037	26.503
ProbeTrackDT01	27	ProbeTrack	10.4	SCS215a	20100715.101339	20100715.101827	8	0.013328	60	10	60-180	60	93	GapExp	0	47	2	4	0	distractor	1	680	660	37032	13.328	13.255	13.401
ProbeTrackDT01	27	ProbeTrack	10.4	SCS215a	20100715.101339	20100715.101832	8	0.013328	60	10	60-180	60	166	GapExp	0	48	2	1	0	distractor	1	827	587	37619	13.328	13.282	13.390
ProbeTrackDT01	27	ProbeTrack	10.4	SCS215a	20100715.101339	20100715.101838	8	0.013328	60	10	60-180	60	134	GapExp	0	49	2	0	0	distractor	1	760	620	38239	13.376	13.225	26.654
ProbeTrackDT01	27	ProbeTrack	10.4	SCS215a	20100715.101339	20100715.101844	8	0.013328	60	10	60-180	60	153	GapExp	0	50	2	4	1	target	1	813	594	38833	13.328	13.244	13.379
ProbeTrackDT01	27	ProbeTrack	10.4	SCS215a	20100715.101339	20100715.101919	8	0.013328	60	10	60-180	60	68	GapExp	0	51	2	0	0	81	-3	760	-1000	37833	13.328	13.109	13.524
ProbeTrackDT01	27	ProbeTrack	10.4	SCS215a	20100715.101339	20100715.101924	8	0.013328	60	10	60-180	60	120	GapExp	0	52	2	4	1	distractor	0	787	-1000	36833	13.328	13.120	13.535
ProbeTrackDT01	27	ProbeTrack	10.4	SCS215a	20100715.101339	20100715.101930	8	0.013328	60	10	60-180	60	150	GapExp	0	53	2	0	1	target	1	733	634	37467	13.328	12.999	13.656
ProbeTrackDT01	27	ProbeTrack	10.4	SCS215a	20100715.101339	20100715.101936	8	0.013328	60	10	60-180	60	157	GapExp	0	54	2	0	1	target	1	783	609	38076	13.328	13.087	13.568
ProbeTrackDT01	27	ProbeTrack	10.4	SCS215a	20100715.101339	20100715.101943	8	0.013328	60	10	60-180	60	92	GapExp	0	55	2	2	1	target	1	787	607	38683	13.328	13.112	13.542
ProbeTrackDT01	27	ProbeTrack	10.4	SCS215a	20100715.101339	20100715.101948	8	0.013328	60	10	60-180	60	115	GapExp	0	56	2	75	1	target	1	813	594	39277	13.328	13.293	13.363
ProbeTrackDT01	27	ProbeTrack	10.4	SCS215a	20100715.101339	20100715.101955	8	0.013328	60	10	60-180	60	109	GapExp	0	57	2	1	1	target	1	747	627	39904	13.328	13.292	13.363
ProbeTrackDT01	27	ProbeTrack	10.4	SCS215a	20100715.101339	20100715.102000	8	0.013328	60	10	60-180	60	68	GapExp	0	58	2	2	1	target	1	680	660	40564	13.328	13.293	13.363
ProbeTrackDT01	27	ProbeTrack	10.4	SCS215a	20100715.101339	20100715.102005	8	0.013328	60	10	60-180	60	122	GapExp	0	59	2	75	1	target	1	933	534	41098	13.328	12.994	13.695
ProbeTrackDT01	27	ProbeTrack	10.4	SCS215a	20100715.101339	20100715.102012	8	0.013328	60	10	60-180	60	138	GapExp	0	60	2	0	1	target	1	773	614	41712	13.328	13.018	13.638
ProbeTrackDT01	27	ProbeTrack	10.4	SCS215a	20100715.101339	20100715.102018	8	0.013328	60	10	60-180	60	88	GapExp	0	61	2	2	1	target	1	720	640	42352	13.328	13.087	13.535
ProbeTrackDT01	27	ProbeTrack	10.4	SCS215a	20100715.101339	20100715.102024	8	0.013328	60	10	60-180	60	115	GapExp	0	62	2	1	0	distractor	1	827	587	42939	13.328	13.023	13.632
ProbeTrackDT01	27	ProbeTrack	10.4	SCS215a	20100715.101339	20100715.102029	8	0.013328	60	10	60-180	60	106	GapExp	0	63	2	75	0	target	0	760	-1000	41939	13.328	13.032	13.590
ProbeTrackDT01	27	ProbeTrack	10.4	SCS215a	20100715.101339	20100715.102036	8	0.013328	60	10	60-180	60	149	GapExp	0	64	2	75	0	target	0	880	-1000	40939	13.328	12.946	13.709
ProbeTrackDT01	27	ProbeTrack	10.4	SCS215a	20100715.101339	20100715.102043	8	0.013328	60	10	60-180	60	104	GapExp	0	65	2	4	0	distractor	1	733	634	41573	13.328	12.997	13.624
ProbeTrackDT01	27	ProbeTrack	10.4	SCS215a	20100715.101339	20100715.102049	8	0.013328	60	10	60-180	60	126	GapExp	0	66	2	2	0	target	0	694	-1000	40573	13.328	13.137	13.520
ProbeTrackDT01	27	ProbeTrack	10.4	SCS215a	20100715.101339	20100715.102054	8	0.013328	60	10	60-180	60	178	GapExp	0	67	2	1	1	target	1	880	560	41133	13.328	13.012	13.644
ProbeTrackDT01	27	ProbeTrack	10.4	SCS215a	20100715.101339	20100715.102101	8	0.013328	60	10	60-180	60	86	GapExp	0	68	2	1	1	target	1	800	600	41733	13.328	12.978	13.645
ProbeTrackDT01	27	ProbeTrack	10.4	SCS215a	20100715.101339	20100715.102106	8	0.013328	60	10	60-180	60	84	GapExp	0	69	2	1	0	distractor	1	840	580	42313	13.328	13.046	13.643
ProbeTrackDT01	27	ProbeTrack	10.4	SCS215a	20100715.101339	20100715.102112	8	0.013328	60	10	60-180	60	82	GapExp	0	70	2	75	0	target	0	1013	-1000	41313	13.328	12.925	13.730
ProbeTrackDT01	27	ProbeTrack	10.4	SCS215a	20100715.101339	20100715.102118	8	0.013328	60	10	60-180	60	160	GapExp	0	71	2	2	0	distractor	1	773	614	41927	13.328	13.184	13.472
ProbeTrackDT01	27	ProbeTrack	10.4	SCS215a	20100715.101339	20100715.102125	8	0.013328	60	10	60-180	60	106	GapExp	0	72	2	75	1	target	1	751	625	42552	13.328	13.005	13.651
ProbeTrackDT01	27	ProbeTrack	10.4	SCS215a	20100715.101339	20100715.102131	8	0.013328	60	10	60-180	60	76	GapExp	0	73	2	0	0	distractor	1	827	587	43139	13.328	13.034	13.623
ProbeTrackDT01	27	ProbeTrack	10.4	SCS215a	20100715.101339	20100715.102136	8	0.013328	60	10	60-180	60	169	GapExp	0	74	2	75	1	target	1	1027	487	43626	13.328	13.154	13.502
ProbeTrackDT01	27	ProbeTrack	10.4	SCS215a	20100715.101339	20100715.102144	8	0.013328	60	10	60-180	60	167	GapExp	0	75	2	75	0	distractor	1	787	607	44233	13.328	13.117	13.537
ProbeTrackDT01	27	ProbeTrack	10.4	SCS215a	20100715.101339	20100715.102151	8	0.013328	60	10	60-180	60	142	GapExp	0	76	2	1	0	distractor	1	760	620	44853	13.328	12.994	13.660
ProbeTrackDT01	27	ProbeTrack	10.4	SCS215a	20100715.101339	20100715.102157	8	0.013328	60	10	60-180	60	98	GapExp	0	77	2	4	0	distractor	1	840	580	45433	13.328	12.998	13.657
ProbeTrackDT01	27	ProbeTrack	10.4	SCS215a	20100715.101339	20100715.102203	8	0.013328	60	10	60-180	60	77	GapExp	0	78	2	1	0	distractor	1	920	540	45973	13.328	13.056	13.565
ProbeTrackDT01	27	ProbeTrack	10.4	SCS215a	20100715.101339	20100715.102208	8	0.013328	60	10	60-180	60	91	GapExp	0	79	2	4	0	target	0	920	-1000	44973	13.328	13.202	13.487
ProbeTrackDT01	27	ProbeTrack	10.4	SCS215a	20100715.101339	20100715.102214	8	0.013328	60	10	60-180	60	160	GapExp	0	80	2	4	0	distractor	1	760	620	45593	13.328	12.945	13.711
ProbeTrackDT01	27	ProbeTrack	10.4	SCS215a	20100715.101339	20100715.102220	8	0.013328	60	10	60-180	60	143	GapExp	0	81	2	4	1	target	1	973	514	46107	13.328	12.987	13.669
ProbeTrackDT01	27	ProbeTrack	10.4	SCS215a	20100715.101339	20100715.102227	8	0.013328	60	10	60-180	60	120	GapExp	0	82	2	1	1	distractor	0	787	-1000	45107	13.328	13.115	13.540
ProbeTrackDT01	27	ProbeTrack	10.4	SCS215a	20100715.101339	20100715.102232	8	0.013328	60	10	60-180	60	96	GapExp	0	83	2	2	1	target	1	773	614	45721	13.328	12.983	13.684
ProbeTrackDT01	27	ProbeTrack	10.4	SCS215a	20100715.101339	20100715.102238	8	0.013328	60	10	60-180	60	143	GapExp	0	84	2	0	1	target	1	733	634	46355	13.328	12.990	13.666
ProbeTrackDT01	27	ProbeTrack	10.4	SCS215a	20100715.101339	20100715.102244	8	0.013328	60	10	60-180	60	104	GapExp	0	85	2	75	0	distractor	1	787	607	46962	13.328	12.934	13.688
ProbeTrackDT01	27	ProbeTrack	10.4	SCS215a	20100715.101339	20100715.102250	8	0.013328	60	10	60-180	60	179	GapExp	0	86	2	0	1	target	1	813	594	47556	13.328	12.983	13.672
ProbeTrackDT01	27	ProbeTrack	10.4	SCS215a	20100715.101339	20100715.102257	8	0.013328	60	10	60-180	60	122	GapExp	0	87	2	2	0	distractor	1	733	634	48190	13.328	12.951	13.705
ProbeTrackDT01	27	ProbeTrack	10.4	SCS215a	20100715.101339	20100715.102303	8	0.013328	60	10	60-180	60	115	GapExp	0	88	2	0	1	target	1	720	640	48830	13.328	13.149	13.473
ProbeTrackDT01	27	ProbeTrack	10.4	SCS215a	20100715.101339	20100715.102308	8	0.013328	60	10	60-180	60	178	GapExp	0	89	2	2	0	distractor	1	693	654	49484	13.328	12.957	13.731
ProbeTrackDT01	27	ProbeTrack	10.4	SCS215a	20100715.101339	20100715.102315	8	0.013328	60	10	60-180	60	68	GapExp	0	90	2	0	0	target	0	1120	-1000	48484	13.328	13.205	13.474
ProbeTrackDT01	27	ProbeTrack	10.4	SCS215a	20100715.101339	20100715.102320	8	0.013328	60	10	60-180	60	177	GapExp	0	91	2	75	1	target	1	733	634	49118	13.328	12.971	13.651
ProbeTrackDT01	27	ProbeTrack	10.4	SCS215a	20100715.101339	20100715.102328	8	0.013328	60	10	60-180	60	106	GapExp	0	92	2	2	1	target	1	800	600	49718	13.329	13.031	13.590
ProbeTrackDT01	27	ProbeTrack	10.4	SCS215a	20100715.101339	20100715.102333	8	0.013328	60	10	60-180	60	171	GapExp	0	93	2	2	0	distractor	1	9023	0	49718	13.328	13.128	13.494
ProbeTrackDT01	27	ProbeTrack	10.4	SCS215a	20100715.101339	20100715.102348	8	0.013328	60	10	60-180	60	122	GapExp	0	94	2	1	0	target	0	853	-1000	48718	13.328	13.072	13.616
ProbeTrackDT01	27	ProbeTrack	10.4	SCS215a	20100715.101339	20100715.102354	8	0.013328	60	10	60-180	60	65	GapExp	0	95	2	1	0	target	0	920	-1000	47718	13.328	13.132	13.493
ProbeTrackDT01	27	ProbeTrack	10.4	SCS215a	20100715.101339	20100715.102359	8	0.013328	60	10	60-180	60	75	GapExp	0	96	2	1	0	target	0	960	-1000	46718	13.328	13.078	13.578
ProbeTrackDT01	27	ProbeTrack	10.4	SCS215a	20100715.101339	20100715.102404	8	0.013328	60	10	60-180	60	167	GapExp	0	97	2	2	1	target	1	853	574	47292	13.328	12.947	13.709
ProbeTrackDT01	27	ProbeTrack	10.4	SCS215a	20100715.101339	20100715.102411	8	0.013328	60	10	60-180	60	73	GapExp	0	98	2	2	0	target	0	912	-1000	46292	13.328	13.025	13.629
ProbeTrackDT01	27	ProbeTrack	10.4	SCS215a	20100715.101339	20100715.102416	8	0.013328	60	10	60-180	60	135	GapExp	0	99	2	0	0	target	0	760	-1000	45292	13.328	13.039	13.583
ProbeTrackDT01	27	ProbeTrack	10.4	SCS215a	20100715.101339	20100715.102422	8	0.013328	60	10	60-180	60	171	GapExp	0	100	2	2	0	distractor	1	813	594	45886	13.328	13.193	13.429
ProbeTrackDT01	27	ProbeTrack	10.4	SCS215a	20100715.101339	20100715.102445	8	0.013328	60	10	60-180	60	114	GapExp	0	101	2	75	1	target	1	794	603	46489	13.328	13.099	13.557
ProbeTrackDT01	27	ProbeTrack	10.4	SCS215a	20100715.101339	20100715.102452	8	0.013328	60	10	60-180	60	102	GapExp	0	102	2	0	0	target	0	760	-1000	45489	13.328	13.054	13.601
ProbeTrackDT01	27	ProbeTrack	10.4	SCS215a	20100715.101339	20100715.102457	8	0.013328	60	10	60-180	60	62	GapExp	0	103	2	0	1	target	1	960	520	46009	13.328	13.186	13.437
ProbeTrackDT01	27	ProbeTrack	10.4	SCS215a	20100715.101339	20100715.102502	8	0.013328	60	10	60-180	60	133	GapExp	0	104	2	75	1	target	1	800	600	46609	13.328	13.069	13.586
ProbeTrackDT01	27	ProbeTrack	10.4	SCS215a	20100715.101339	20100715.102509	8	0.013328	60	10	60-180	60	180	GapExp	0	105	2	2	0	target	0	787	-1000	45609	13.328	13.245	13.446
ProbeTrackDT01	27	ProbeTrack	10.4	SCS215a	20100715.101339	20100715.102516	8	0.013328	60	10	60-180	60	165	GapExp	0	106	2	4	0	distractor	1	827	587	46196	13.328	12.989	13.633
ProbeTrackDT01	27	ProbeTrack	10.4	SCS215a	20100715.101339	20100715.102522	8	0.013328	60	10	60-180	60	83	GapExp	0	107	2	1	1	target	1	853	574	46770	13.328	13.156	13.500
ProbeTrackDT01	27	ProbeTrack	10.4	SCS215a	20100715.101339	20100715.102528	8	0.013328	60	10	60-180	60	113	GapExp	0	108	2	75	0	target	0	960	-1000	45770	13.328	12.979	13.677
ProbeTrackDT01	27	ProbeTrack	10.4	SCS215a	20100715.101339	20100715.102535	8	0.013328	60	10	60-180	60	109	GapExp	0	109	2	2	1	target	1	734	633	46403	13.328	13.151	13.538
ProbeTrackDT01	27	ProbeTrack	10.4	SCS215a	20100715.101339	20100715.102540	8	0.013328	60	10	60-180	60	171	GapExp	0	110	2	75	1	target	1	787	607	47010	13.328	12.981	13.675
ProbeTrackDT01	27	ProbeTrack	10.4	SCS215a	20100715.101339	20100715.102548	8	0.013328	60	10	60-180	60	128	GapExp	0	111	2	1	0	distractor	1	747	627	47637	13.328	13.032	13.658
ProbeTrackDT01	27	ProbeTrack	10.4	SCS215a	20100715.101339	20100715.102553	8	0.013328	60	10	60-180	60	160	GapExp	0	112	2	0	1	target	1	760	620	48257	13.328	13.138	13.518
ProbeTrackDT01	27	ProbeTrack	10.4	SCS215a	20100715.101339	20100715.102600	8	0.013328	60	10	60-180	60	67	GapExp	0	113	2	0	0	target	0	707	-1000	47257	13.328	13.293	13.362
ProbeTrackDT01	27	ProbeTrack	10.4	SCS215a	20100715.101339	20100715.102605	8	0.013328	60	10	60-180	60	97	GapExp	0	114	2	4	1	target	1	680	660	47917	13.328	13.293	13.365
ProbeTrackDT01	27	ProbeTrack	10.4	SCS215a	20100715.101339	20100715.102610	8	0.013328	60	10	60-180	60	111	GapExp	0	115	2	75	0	distractor	1	733	634	48551	13.328	13.244	13.446
ProbeTrackDT01	27	ProbeTrack	10.4	SCS215a	20100715.101339	20100715.102617	8	0.013328	60	10	60-180	60	138	GapExp	0	116	2	0	1	target	1	707	647	49198	13.328	13.258	13.363
ProbeTrackDT01	27	ProbeTrack	10.4	SCS215a	20100715.101339	20100715.102622	8	0.013328	60	10	60-180	60	68	GapExp	0	117	2	75	1	target	1	747	627	49825	13.328	13.181	13.475
ProbeTrackDT01	27	ProbeTrack	10.4	SCS215a	20100715.101339	20100715.102629	8	0.013328	60	10	60-180	60	64	GapExp	0	118	2	0	0	distractor	1	707	647	50472	13.328	13.293	13.363
ProbeTrackDT01	27	ProbeTrack	10.4	SCS215a	20100715.101339	20100715.102633	8	0.013328	60	10	60-180	60	141	GapExp	0	119	2	2	0	distractor	1	773	614	51086	13.328	13.288	13.363
ProbeTrackDT01	27	ProbeTrack	10.4	SCS215a	20100715.101339	20100715.102640	8	0.013328	60	10	60-180	60	105	GapExp	0	120	2	75	0	distractor	1	787	607	51693	13.328	13.022	13.600
ProbeTrackDT01	27	ProbeTrack	10.4	SCS215a	20100715.101339	20100715.102646	8	0.013328	60	10	60-180	60	138	GapExp	0	121	2	1	1	target	1	707	647	52340	13.328	12.954	13.735
ProbeTrackDT01	27	ProbeTrack	10.4	SCS215a	20100715.101339	20100715.102652	8	0.013328	60	10	60-180	60	86	GapExp	0	122	2	75	1	target	1	800	600	52940	13.328	13.147	13.507
ProbeTrackDT01	27	ProbeTrack	10.4	SCS215a	20100715.101339	20100715.102658	8	0.013328	60	10	60-180	60	132	GapExp	0	123	2	1	0	distractor	1	760	620	53560	13.328	12.985	13.637
ProbeTrackDT01	27	ProbeTrack	10.4	SCS215a	20100715.101339	20100715.102704	8	0.013328	60	10	60-180	60	133	GapExp	0	124	2	2	1	target	1	707	647	54207	13.328	13.247	13.443
ProbeTrackDT01	27	ProbeTrack	10.4	SCS215a	20100715.101339	20100715.102710	8	0.013328	60	10	60-180	60	139	GapExp	0	125	2	0	0	distractor	1	760	620	54827	13.328	12.983	13.639
ProbeTrackDT01	27	ProbeTrack	10.4	SCS215a	20100715.101339	20100715.102716	8	0.013328	60	10	60-180	60	158	GapExp	0	126	2	4	0	distractor	1	747	627	55454	13.328	13.293	13.363
ProbeTrackDT01	27	ProbeTrack	10.4	SCS215a	20100715.101339	20100715.102723	8	0.013328	60	10	60-180	60	144	GapExp	0	127	2	4	1	target	1	907	547	56001	13.328	13.007	13.616
ProbeTrackDT01	27	ProbeTrack	10.4	SCS215a	20100715.101339	20100715.102729	8	0.013328	60	10	60-180	60	111	GapExp	0	128	2	2	1	target	1	1200	400	56401	13.328	13.091	13.530
ProbeTrackDT01	27	ProbeTrack	10.4	SCS215a	20100715.101339	20100715.102735	8	0.013328	60	10	60-180	60	178	GapExp	0	129	2	1	1	target	1	693	654	57055	13.328	13.279	13.363
ProbeTrackDT01	27	ProbeTrack	10.4	SCS215a	20100715.101339	20100715.102741	8	0.013328	60	10	60-180	60	151	GapExp	0	130	2	4	1	target	1	707	647	57702	13.328	13.010	13.645
ProbeTrackDT01	27	ProbeTrack	10.4	SCS215a	20100715.101339	20100715.102747	8	0.013328	60	10	60-180	60	70	GapExp	0	131	2	2	1	target	1	893	554	58256	13.328	13.289	13.366
ProbeTrackDT01	27	ProbeTrack	10.4	SCS215a	20100715.101339	20100715.102753	8	0.013328	60	10	60-180	60	146	GapExp	0	132	2	1	0	distractor	1	720	640	58896	13.328	13.293	13.363
ProbeTrackDT01	27	ProbeTrack	10.4	SCS215a	20100715.101339	20100715.102759	8	0.013328	60	10	60-180	60	110	GapExp	0	133	2	0	0	distractor	1	813	594	59490	13.328	13.292	13.387
ProbeTrackDT01	27	ProbeTrack	10.4	SCS215a	20100715.101339	20100715.102804	8	0.013328	60	10	60-180	60	150	GapExp	0	134	2	75	1	target	1	733	634	60124	13.328	13.293	13.363
ProbeTrackDT01	27	ProbeTrack	10.4	SCS215a	20100715.101339	20100715.102812	8	0.013328	60	10	60-180	60	178	GapExp	0	135	2	0	1	target	1	907	547	60671	13.328	13.282	13.374
ProbeTrackDT01	27	ProbeTrack	10.4	SCS215a	20100715.101339	20100715.102818	8	0.013328	60	10	60-180	60	106	GapExp	0	136	2	2	1	target	1	893	554	61225	13.328	13.293	13.363
ProbeTrackDT01	27	ProbeTrack	10.4	SCS215a	20100715.101339	20100715.102824	8	0.013328	60	10	60-180	60	141	GapExp	0	137	2	0	0	distractor	1	813	594	61819	13.328	13.181	13.475
ProbeTrackDT01	27	ProbeTrack	10.4	SCS215a	20100715.101339	20100715.102830	8	0.013328	60	10	60-180	60	64	GapExp	0	138	2	75	0	distractor	1	761	620	62439	13.328	13.293	13.363
ProbeTrackDT01	27	ProbeTrack	10.4	SCS215a	20100715.101339	20100715.102836	8	0.013328	60	10	60-180	60	82	GapExp	0	139	2	0	0	distractor	1	800	600	63039	13.328	13.292	13.363
ProbeTrackDT01	27	ProbeTrack	10.4	SCS215a	20100715.101339	20100715.102841	8	0.013328	60	10	60-180	60	169	GapExp	0	140	2	75	1	target	1	720	640	63679	13.328	13.086	13.535
ProbeTrackDT01	27	ProbeTrack	10.4	SCS215a	20100715.101339	20100715.102849	8	0.013328	60	10	60-180	60	168	GapExp	0	141	2	1	0	distractor	1	693	654	64333	13.328	13.006	13.615
ProbeTrackDT01	27	ProbeTrack	10.4	SCS215a	20100715.101339	20100715.102855	8	0.013328	60	10	60-180	60	77	GapExp	0	142	2	1	0	target	0	813	-1000	63333	13.328	13.099	13.557
ProbeTrackDT01	27	ProbeTrack	10.4	SCS215a	20100715.101339	20100715.102900	8	0.013328	60	10	60-180	60	98	GapExp	0	143	2	0	0	distractor	1	827	587	63920	13.328	13.291	13.365
ProbeTrackDT01	27	ProbeTrack	10.4	SCS215a	20100715.101339	20100715.102906	8	0.013328	60	10	60-180	60	138	GapExp	0	144	2	4	1	target	1	800	600	64520	13.328	13.076	13.579
ProbeTrackDT01	27	ProbeTrack	10.4	SCS215a	20100715.101339	20100715.102912	8	0.013328	60	10	60-180	60	103	GapExp	0	145	2	4	0	target	0	734	-1000	63520	13.328	13.154	13.534
ProbeTrackDT01	27	ProbeTrack	10.4	SCS215a	20100715.101339	20100715.102917	8	0.013328	60	10	60-180	60	159	GapExp	0	146	2	1	1	target	1	893	554	64074	13.328	13.051	13.605
ProbeTrackDT01	27	ProbeTrack	10.4	SCS215a	20100715.101339	20100715.102924	8	0.013328	60	10	60-180	60	145	GapExp	0	147	2	2	0	distractor	1	680	660	64734	13.328	13.014	13.641
ProbeTrackDT01	27	ProbeTrack	10.4	SCS215a	20100715.101339	20100715.102930	8	0.013328	60	10	60-180	60	105	GapExp	0	148	2	1	1	target	1	680	660	65394	13.328	13.063	13.627
ProbeTrackDT01	27	ProbeTrack	10.4	SCS215a	20100715.101339	20100715.102935	8	0.013328	60	10	60-180	60	114	GapExp	0	149	2	2	0	distractor	1	760	620	66014	13.328	13.285	13.372
ProbeTrackDT01	27	ProbeTrack	10.4	SCS215a	20100715.101339	20100715.102941	8	0.013328	60	10	60-180	60	114	GapExp	0	150	2	2	0	distractor	1	1133	434	66448	13.328	13.127	13.495
ProbeTrackDT01	27	ProbeTrack	10.4	SCS215a	20100715.101339	20100715.103010	8	0.013328	60	10	60-180	60	163	GapExp	0	151	2	0	1	target	1	733	634	67082	13.328	13.113	13.541
ProbeTrackDT01	27	ProbeTrack	10.4	SCS215a	20100715.101339	20100715.103016	8	0.013328	60	10	60-180	60	76	GapExp	0	152	2	1	1	target	1	867	567	67649	13.328	13.226	13.463
ProbeTrackDT01	27	ProbeTrack	10.4	SCS215a	20100715.101339	20100715.103021	8	0.013328	60	10	60-180	60	70	GapExp	0	153	2	0	0	distractor	1	680	660	68309	13.328	13.275	13.380
ProbeTrackDT01	27	ProbeTrack	10.4	SCS215a	20100715.101339	20100715.103026	8	0.013328	60	10	60-180	60	79	GapExp	0	154	2	4	1	target	1	773	614	68923	13.328	13.161	13.493
ProbeTrackDT01	27	ProbeTrack	10.4	SCS215a	20100715.101339	20100715.103032	8	0.013328	60	10	60-180	60	95	GapExp	0	155	2	2	1	target	1	800	600	69523	13.328	13.196	13.493
ProbeTrackDT01	27	ProbeTrack	10.4	SCS215a	20100715.101339	20100715.103037	8	0.013328	60	10	60-180	60	171	GapExp	0	156	2	75	0	distractor	1	800	600	70123	13.328	12.976	13.646
ProbeTrackDT01	27	ProbeTrack	10.4	SCS215a	20100715.101339	20100715.103044	8	0.013328	60	10	60-180	60	140	GapExp	0	157	2	1	1	target	1	867	567	70690	13.328	13.292	13.363
ProbeTrackDT01	27	ProbeTrack	10.4	SCS215a	20100715.101339	20100715.103051	8	0.013328	60	10	60-180	60	95	GapExp	0	158	2	1	1	target	1	693	654	71344	13.328	13.293	13.363
ProbeTrackDT01	27	ProbeTrack	10.4	SCS215a	20100715.101339	20100715.103056	8	0.013328	60	10	60-180	60	124	GapExp	0	159	2	1	0	target	0	720	-1000	70344	13.328	13.293	13.364
ProbeTrackDT01	27	ProbeTrack	10.4	SCS215a	20100715.101339	20100715.103102	8	0.013328	60	10	60-180	60	65	GapExp	0	160	2	1	0	distractor	1	893	554	70898	13.328	13.293	13.363
ProbeTrackDT01	27	ProbeTrack	10.4	SCS215a	20100715.101339	20100715.103107	8	0.013328	60	10	60-180	60	67	GapExp	0	161	2	4	0	distractor	1	747	627	71525	13.328	13.167	13.522
ProbeTrackDT01	27	ProbeTrack	10.4	SCS215a	20100715.101339	20100715.103112	8	0.013328	60	10	60-180	60	64	GapExp	0	162	2	75	0	distractor	1	800	600	72125	13.328	13.209	13.413
ProbeTrackDT01	27	ProbeTrack	10.4	SCS215a	20100715.101339	20100715.103118	8	0.013328	60	10	60-180	60	168	GapExp	0	163	2	1	0	distractor	1	760	620	72745	13.328	13.290	13.366
ProbeTrackDT01	27	ProbeTrack	10.4	SCS215a	20100715.101339	20100715.103124	8	0.013328	60	10	60-180	60	105	GapExp	0	164	2	1	1	distractor	0	1306	-1000	71745	13.328	13.203	13.418
ProbeTrackDT01	27	ProbeTrack	10.4	SCS215a	20100715.101339	20100715.103130	8	0.013328	60	10	60-180	60	69	GapExp	0	165	2	75	1	target	1	800	600	72345	13.328	12.972	13.649
ProbeTrackDT01	27	ProbeTrack	10.4	SCS215a	20100715.101339	20100715.103137	8	0.013328	60	10	60-180	60	155	GapExp	0	166	2	2	1	target	1	827	587	72932	13.328	13.021	13.635
ProbeTrackDT01	27	ProbeTrack	10.4	SCS215a	20100715.101339	20100715.103143	8	0.013328	60	10	60-180	60	171	GapExp	0	167	2	75	0	distractor	1	827	587	73519	13.328	13.016	13.606
ProbeTrackDT01	27	ProbeTrack	10.4	SCS215a	20100715.101339	20100715.103150	8	0.013328	60	10	60-180	60	99	GapExp	0	168	2	1	1	target	1	973	514	74033	13.328	13.293	13.363
ProbeTrackDT01	27	ProbeTrack	10.4	SCS215a	20100715.101339	20100715.103156	8	0.013328	60	10	60-180	60	98	GapExp	0	169	2	2	0	distractor	1	760	620	74653	13.328	13.266	13.389
ProbeTrackDT01	27	ProbeTrack	10.4	SCS215a	20100715.101339	20100715.103201	8	0.013328	60	10	60-180	60	99	GapExp	0	170	2	1	1	target	1	760	620	75273	13.328	13.292	13.364
ProbeTrackDT01	27	ProbeTrack	10.4	SCS215a	20100715.101339	20100715.103207	8	0.013328	60	10	60-180	60	167	GapExp	0	171	2	4	0	target	0	747	-1000	74273	13.328	12.910	13.746
ProbeTrackDT01	27	ProbeTrack	10.4	SCS215a	20100715.101339	20100715.103213	8	0.013328	60	10	60-180	60	135	GapExp	0	172	2	0	0	distractor	1	800	600	74873	13.328	13.223	13.468
ProbeTrackDT01	27	ProbeTrack	10.4	SCS215a	20100715.101339	20100715.103219	8	0.013328	60	10	60-180	60	176	GapExp	0	173	2	75	1	target	1	773	614	75487	13.328	13.225	13.430
ProbeTrackDT01	27	ProbeTrack	10.4	SCS215a	20100715.101339	20100715.103227	8	0.013328	60	10	60-180	60	150	GapExp	0	174	2	4	0	distractor	1	733	634	76121	13.328	13.218	13.405
ProbeTrackDT01	27	ProbeTrack	10.4	SCS215a	20100715.101339	20100715.103233	8	0.013328	60	10	60-180	60	114	GapExp	0	175	2	0	1	target	1	680	660	76781	13.328	13.292	13.363
ProbeTrackDT01	27	ProbeTrack	10.4	SCS215a	20100715.101339	20100715.103239	8	0.013328	60	10	60-180	60	81	GapExp	0	176	2	1	0	target	0	787	-1000	75781	13.328	13.293	13.363
ProbeTrackDT01	27	ProbeTrack	10.4	SCS215a	20100715.101339	20100715.103244	8	0.013328	60	10	60-180	60	163	GapExp	0	177	2	2	1	target	1	920	540	76321	13.328	13.293	13.363
ProbeTrackDT01	27	ProbeTrack	10.4	SCS215a	20100715.101339	20100715.103250	8	0.013328	60	10	60-180	60	121	GapExp	0	178	2	2	1	target	1	707	647	76968	13.328	13.293	13.363
ProbeTrackDT01	27	ProbeTrack	10.4	SCS215a	20100715.101339	20100715.103256	8	0.013328	60	10	60-180	60	75	GapExp	0	179	2	4	1	target	1	760	620	77588	13.328	13.293	13.363
ProbeTrackDT01	27	ProbeTrack	10.4	SCS215a	20100715.101339	20100715.103301	8	0.013328	60	10	60-180	60	140	GapExp	0	180	2	4	0	distractor	1	640	680	78268	13.328	13.234	13.422
ProbeTrackDT01	27	ProbeTrack	10.4	SCS215a	20100715.101339	20100715.103307	8	0.013328	60	10	60-180	60	91	GapExp	0	181	2	4	1	target	1	640	680	78948	13.328	13.031	13.625
ProbeTrackDT01	27	ProbeTrack	10.4	SCS215a	20100715.101339	20100715.103313	8	0.013328	60	10	60-180	60	83	GapExp	0	182	2	4	0	distractor	1	654	673	79621	13.328	13.293	13.363
ProbeTrackDT01	27	ProbeTrack	10.4	SCS215a	20100715.101339	20100715.103318	8	0.013328	60	10	60-180	60	120	GapExp	0	183	2	4	0	distractor	1	654	673	80294	13.328	12.859	13.628
ProbeTrackDT01	27	ProbeTrack	10.4	SCS215a	20100715.101339	20100715.103323	8	0.013328	60	10	60-180	60	128	GapExp	0	184	2	1	1	target	1	760	620	80914	13.328	13.163	13.457
ProbeTrackDT01	27	ProbeTrack	10.4	SCS215a	20100715.101339	20100715.103329	8	0.013328	60	10	60-180	60	171	GapExp	0	185	2	1	0	81	-3	1520	-1000	79914	13.370	12.981	26.910
ProbeTrackDT01	27	ProbeTrack	10.4	SCS215a	20100715.101339	20100715.103337	8	0.013328	60	10	60-180	60	103	GapExp	0	186	2	0	1	target	1	707	647	80561	13.328	13.293	13.364
ProbeTrackDT01	27	ProbeTrack	10.4	SCS215a	20100715.101339	20100715.103342	8	0.013328	60	10	60-180	60	74	GapExp	0	187	2	2	1	target	1	720	640	81201	13.328	13.292	13.363
ProbeTrackDT01	27	ProbeTrack	10.4	SCS215a	20100715.101339	20100715.103347	8	0.013328	60	10	60-180	60	150	GapExp	0	188	2	75	1	target	1	667	667	81868	13.328	13.292	13.363
ProbeTrackDT01	27	ProbeTrack	10.4	SCS215a	20100715.101339	20100715.103354	8	0.013328	60	10	60-180	60	171	GapExp	0	189	2	0	1	target	1	720	640	82508	13.370	13.293	26.377
ProbeTrackDT01	27	ProbeTrack	10.4	SCS215a	20100715.101339	20100715.103401	8	0.013328	60	10	60-180	60	116	GapExp	0	190	2	4	1	target	1	693	654	83162	13.328	13.292	13.363
ProbeTrackDT01	27	ProbeTrack	10.4	SCS215a	20100715.101339	20100715.103406	8	0.013328	60	10	60-180	60	138	GapExp	0	191	2	4	0	distractor	1	680	660	83822	13.328	13.293	13.363
ProbeTrackDT01	27	ProbeTrack	10.4	SCS215a	20100715.101339	20100715.103412	8	0.013328	60	10	60-180	60	157	GapExp	0	192	2	0	1	target	1	747	627	84449	13.328	13.189	13.440
ProbeTrackDT01	27	ProbeTrack	10.4	SCS215a	20100715.101339	20100715.103418	8	0.013328	60	10	60-180	60	87	GapExp	0	193	2	0	0	distractor	1	733	634	85083	13.328	13.124	13.531
ProbeTrackDT01	27	ProbeTrack	10.4	SCS215a	20100715.101339	20100715.103424	8	0.013328	60	10	60-180	60	64	GapExp	0	194	2	1	1	target	1	747	627	85710	13.328	12.967	13.688
ProbeTrackDT01	27	ProbeTrack	10.4	SCS215a	20100715.101339	20100715.103429	8	0.013328	60	10	60-180	60	122	GapExp	0	195	2	4	0	distractor	1	680	660	86370	13.429	13.053	26.688
ProbeTrackDT01	27	ProbeTrack	10.4	SCS215a	20100715.101339	20100715.103434	8	0.013328	60	10	60-180	60	99	GapExp	0	196	2	2	1	target	1	680	660	87030	13.328	13.156	13.499
ProbeTrackDT01	27	ProbeTrack	10.4	SCS215a	20100715.101339	20100715.103440	8	0.013328	60	10	60-180	60	162	GapExp	0	197	2	75	0	distractor	1	720	640	87670	13.328	13.019	13.636
ProbeTrackDT01	27	ProbeTrack	10.4	SCS215a	20100715.101339	20100715.103447	8	0.013328	60	10	60-180	60	91	GapExp	0	198	2	75	1	target	1	827	587	88257	13.371	12.996	26.822
ProbeTrackDT01	27	ProbeTrack	10.4	SCS215a	20100715.101339	20100715.103453	8	0.013328	60	10	60-180	60	69	GapExp	0	199	2	0	1	target	1	747	627	88884	13.328	13.290	13.391
ProbeTrackDT01	27	ProbeTrack	10.4	SCS215a	20100715.101339	20100715.103459	8	0.013328	60	10	60-180	60	111	GapExp	0	200	2	0	1	target	1	640	680	89564	13.328	13.289	13.398
ProbeTrackDT01	27	ProbeTrack	10.4	SCS215a	20100715.101339	20100715.103523	8	0.013328	60	10	60-180	60	102	GapExp	0	201	2	0	0	distractor	1	947	527	90091	13.328	13.091	13.530
ProbeTrackDT01	27	ProbeTrack	10.4	SCS215a	20100715.101339	20100715.103528	8	0.013328	60	10	60-180	60	113	GapExp	0	202	2	75	0	distractor	1	1160	420	90511	13.328	13.019	13.670
ProbeTrackDT01	27	ProbeTrack	10.4	SCS215a	20100715.101339	20100715.103535	8	0.013328	60	10	60-180	60	112	GapExp	0	203	2	75	1	distractor	0	1160	-1000	89511	13.328	13.021	13.668
ProbeTrackDT01	27	ProbeTrack	10.4	SCS215a	20100715.101339	20100715.103542	8	0.013328	60	10	60-180	60	143	GapExp	0	204	2	2	0	distractor	1	853	574	90085	13.328	13.279	13.377
ProbeTrackDT01	27	ProbeTrack	10.4	SCS215a	20100715.101339	20100715.103549	8	0.013328	60	10	60-180	60	127	GapExp	0	205	2	0	1	target	1	707	647	90732	14.177	13.136	133.263
ProbeTrackDT01	27	ProbeTrack	10.4	SCS215a	20100715.101339	20100715.103555	8	0.013328	60	10	60-180	60	144	GapExp	0	206	2	4	1	target	1	707	647	91379	13.328	13.283	13.364
ProbeTrackDT01	27	ProbeTrack	10.4	SCS215a	20100715.101339	20100715.103601	8	0.013328	60	10	60-180	60	80	GapExp	0	207	2	4	1	target	1	880	560	91939	13.386	13.258	26.656
ProbeTrackDT01	27	ProbeTrack	10.4	SCS215a	20100715.101339	20100715.103606	8	0.013328	60	10	60-180	60	145	GapExp	0	208	2	4	0	distractor	1	600	700	92639	13.375	13.061	26.620
ProbeTrackDT01	27	ProbeTrack	10.4	SCS215a	20100715.101339	20100715.103612	8	0.013328	60	10	60-180	60	76	GapExp	0	209	2	4	0	target	0	707	-1000	91639	13.328	13.007	13.613
ProbeTrackDT01	27	ProbeTrack	10.4	SCS215a	20100715.101339	20100715.103617	8	0.013328	60	10	60-180	60	90	GapExp	0	210	2	2	1	target	1	694	653	92292	13.328	13.293	13.364
