exp	sub	code	rev	comp	runtime	trialtime	nstim	refreshdur	cuedur	gapdur	gapOnsetRange	durPostProbe	gapOnsetTime	blocktype	prac	trial	ntargets	soa	probeTarget	resp	acc	rt	pts	tpts	meanFrameDur	minFrameDur	maxFrameDur
ProbeTrackDT01	8	ProbeTrackDT01	10.4	SCS215a	20100521.120157	20100521.120237	8	0.013327	60	0	60-180	60	72	NoGap	1	1	2	0	1	distractor	0	1480	-1000	-1000	13.328	13.293	13.363
ProbeTrackDT01	8	ProbeTrackDT01	10.4	SCS215a	20100521.120157	20100521.120243	8	0.013327	60	0	60-180	60	148	NoGap	1	2	2	4	0	target	0	1840	-1000	-2000	13.328	13.178	13.444
ProbeTrackDT01	8	ProbeTrackDT01	10.4	SCS215a	20100521.120157	20100521.120250	8	0.013327	60	0	60-180	60	124	NoGap	1	3	2	1	1	distractor	0	2279	-1000	-3000	13.328	13.174	13.515
ProbeTrackDT01	8	ProbeTrackDT01	10.4	SCS215a	20100521.120157	20100521.120258	8	0.013327	60	0	60-180	60	71	NoGap	1	4	2	0	0	distractor	1	1573	214	-2786	13.328	13.293	13.363
ProbeTrackDT01	8	ProbeTrackDT01	10.4	SCS215a	20100521.120157	20100521.120304	8	0.013327	60	0	60-180	60	111	NoGap	1	5	2	2	1	target	1	520	740	-2046	13.328	13.293	13.363
ProbeTrackDT01	8	ProbeTrackDT01	10.4	SCS215a	20100521.120157	20100521.120309	8	0.013327	60	0	60-180	60	65	NoGap	1	6	2	0	0	distractor	1	680	660	-1386	13.328	13.292	13.363
ProbeTrackDT01	8	ProbeTrackDT01	10.4	SCS215a	20100521.120157	20100521.120314	8	0.013327	60	0	60-180	60	166	NoGap	1	7	2	1	0	distractor	1	734	633	-753	13.328	13.293	13.364
ProbeTrackDT01	8	ProbeTrackDT01	10.4	SCS215a	20100521.120157	20100521.120320	8	0.013327	60	0	60-180	60	104	NoGap	1	8	2	75	1	distractor	0	573	-1000	-1753	13.328	13.293	13.363
ProbeTrackDT01	8	ProbeTrackDT01	10.4	SCS215a	20100521.120157	20100521.120326	8	0.013327	60	0	60-180	60	135	NoGap	1	9	2	2	1	target	1	520	740	-1013	13.328	13.293	13.364
ProbeTrackDT01	8	ProbeTrackDT01	10.4	SCS215a	20100521.120157	20100521.120332	8	0.013327	60	0	60-180	60	132	NoGap	1	10	2	4	0	distractor	1	573	714	-299	13.328	13.291	13.363
ProbeTrackDT01	8	ProbeTrackDT01	10.4	SCS215a	20100521.120157	20100521.120337	8	0.013327	60	0	60-180	60	178	NoGap	1	11	2	1	1	target	1	614	693	394	13.328	13.284	13.363
ProbeTrackDT01	8	ProbeTrackDT01	10.4	SCS215a	20100521.120157	20100521.120344	8	0.013327	60	0	60-180	60	161	NoGap	1	12	2	0	0	distractor	1	613	694	1088	13.328	13.144	13.545
ProbeTrackDT01	8	ProbeTrackDT01	10.4	SCS215a	20100521.120157	20100521.120350	8	0.013327	60	0	60-180	60	72	NoGap	1	13	2	75	1	target	1	773	614	1702	13.328	13.137	13.484
ProbeTrackDT01	8	ProbeTrackDT01	10.4	SCS215a	20100521.120157	20100521.120356	8	0.013327	60	0	60-180	60	123	NoGap	1	14	2	75	0	distractor	1	534	733	2435	13.328	13.279	13.364
ProbeTrackDT01	8	ProbeTrackDT01	10.4	SCS215a	20100521.120157	20100521.120402	8	0.013327	60	0	60-180	60	73	NoGap	1	15	2	4	1	target	1	440	780	3215	13.328	13.289	13.363
ProbeTrackDT01	8	ProbeTrackDT01	10.4	SCS215a	20100521.120157	20100521.120407	8	0.013327	60	0	60-180	60	89	NoGap	1	16	2	4	0	distractor	1	627	687	3902	13.328	13.290	13.363
ProbeTrackDT01	8	ProbeTrackDT01	10.4	SCS215a	20100521.120157	20100521.120412	8	0.013327	60	0	60-180	60	66	NoGap	1	17	2	2	1	target	1	494	753	4655	13.328	13.290	13.366
ProbeTrackDT01	8	ProbeTrackDT01	10.4	SCS215a	20100521.120157	20100521.120417	8	0.013327	60	0	60-180	60	62	NoGap	1	18	2	75	0	distractor	1	907	547	5202	13.328	13.293	13.363
ProbeTrackDT01	8	ProbeTrackDT01	10.4	SCS215a	20100521.120157	20100521.120423	8	0.013327	60	0	60-180	60	74	NoGap	1	19	2	2	0	distractor	1	320	840	6042	13.328	13.293	13.363
ProbeTrackDT01	8	ProbeTrackDT01	10.4	SCS215a	20100521.120157	20100521.120427	8	0.013327	60	0	60-180	60	124	NoGap	1	20	2	4	1	target	1	560	720	6762	13.328	13.193	13.463
ProbeTrackDT01	8	ProbeTrackDT01	10.4	SCS215a	20100521.120157	20100521.120433	8	0.013327	60	0	60-180	60	155	NoGap	1	21	2	4	1	target	1	520	740	7502	13.328	13.293	13.363
ProbeTrackDT01	8	ProbeTrackDT01	10.4	SCS215a	20100521.120157	20100521.120439	8	0.013327	60	0	60-180	60	71	NoGap	1	22	2	75	0	distractor	1	760	620	8122	13.328	13.293	13.363
ProbeTrackDT01	8	ProbeTrackDT01	10.4	SCS215a	20100521.120157	20100521.120445	8	0.013327	60	0	60-180	60	154	NoGap	1	23	2	75	1	target	1	507	747	8869	13.328	13.292	13.363
ProbeTrackDT01	8	ProbeTrackDT01	10.4	SCS215a	20100521.120157	20100521.120452	8	0.013327	60	0	60-180	60	155	NoGap	1	24	2	2	0	distractor	1	560	720	9589	13.328	13.293	13.364
ProbeTrackDT01	8	ProbeTrackDT01	10.4	SCS215a	20100521.120157	20100521.120458	8	0.013327	60	0	60-180	60	80	NoGap	1	25	2	1	1	target	1	680	660	10249	13.328	13.194	13.462
ProbeTrackDT01	8	ProbeTrackDT01	10.4	SCS215a	20100521.120157	20100521.120503	8	0.013327	60	0	60-180	60	157	NoGap	1	26	2	1	1	target	1	653	674	10923	13.328	13.293	13.363
ProbeTrackDT01	8	ProbeTrackDT01	10.4	SCS215a	20100521.120157	20100521.120509	8	0.013327	60	0	60-180	60	151	NoGap	1	27	2	0	1	distractor	0	440	-1000	9923	13.328	12.912	13.742
ProbeTrackDT01	8	ProbeTrackDT01	10.4	SCS215a	20100521.120157	20100521.120515	8	0.013327	60	0	60-180	60	163	NoGap	1	28	2	2	0	distractor	1	520	740	10663	13.422	13.161	26.624
ProbeTrackDT01	8	ProbeTrackDT01	10.4	SCS215a	20100521.120157	20100521.120521	8	0.013327	60	0	60-180	60	84	NoGap	1	29	2	1	0	distractor	1	680	660	11323	13.328	13.202	13.486
ProbeTrackDT01	8	ProbeTrackDT01	10.4	SCS215a	20100521.120157	20100521.120526	8	0.013327	60	0	60-180	60	147	NoGap	1	30	2	1	0	distractor	1	627	687	12010	13.328	13.293	13.367
ProbeTrackDT01	8	ProbeTrackDT01	10.4	SCS215a	20100521.120157	20100521.120532	8	0.013327	60	0	60-180	60	176	NoGap	1	31	2	0	1	target	1	773	614	12624	13.413	13.100	26.839
ProbeTrackDT01	8	ProbeTrackDT01	10.4	SCS215a	20100521.120157	20100521.120538	8	0.013327	60	0	60-180	60	106	NoGap	1	32	2	75	1	target	1	973	514	13138	13.370	13.232	26.449
ProbeTrackDT01	8	ProbeTrackDT01	10.4	SCS215a	20100521.120157	20100521.120545	8	0.013327	60	0	60-180	60	106	NoGap	1	33	2	2	1	target	1	627	687	13825	13.442	13.199	26.807
ProbeTrackDT01	8	ProbeTrackDT01	10.4	SCS215a	20100521.120157	20100521.120550	8	0.013327	60	0	60-180	60	127	NoGap	1	34	2	4	0	distractor	1	467	767	14592	13.328	13.186	13.503
ProbeTrackDT01	8	ProbeTrackDT01	10.4	SCS215a	20100521.120157	20100521.120556	8	0.013327	60	0	60-180	60	113	NoGap	1	35	2	1	0	distractor	1	573	714	15306	13.328	13.149	13.498
ProbeTrackDT01	8	ProbeTrackDT01	10.4	SCS215a	20100521.120157	20100521.120601	8	0.013327	60	0	60-180	60	70	NoGap	1	36	2	0	1	target	1	587	707	16013	13.328	13.279	13.363
ProbeTrackDT01	8	ProbeTrackDT01	10.4	SCS215a	20100521.120157	20100521.120606	8	0.013327	60	0	60-180	60	94	NoGap	1	37	2	75	0	distractor	1	467	767	16780	13.328	13.289	13.363
ProbeTrackDT01	8	ProbeTrackDT01	10.4	SCS215a	20100521.120157	20100521.120612	8	0.013327	60	0	60-180	60	120	NoGap	1	38	2	2	0	distractor	1	520	740	17520	13.328	13.187	13.469
ProbeTrackDT01	8	ProbeTrackDT01	10.4	SCS215a	20100521.120157	20100521.120617	8	0.013327	60	0	60-180	60	152	NoGap	1	39	2	0	0	distractor	1	787	607	18127	13.328	13.288	13.363
ProbeTrackDT01	8	ProbeTrackDT01	10.4	SCS215a	20100521.120157	20100521.120623	8	0.013327	60	0	60-180	60	111	NoGap	1	40	2	4	1	target	1	600	700	18827	13.328	13.121	13.534
ProbeTrackDT01	8	ProbeTrackDT01	10.4	SCS215a	20100521.120918	20100521.120928	8	0.013327	60	10	60-180	60	98	GapPrac	1	1	2	4	0	distractor	1	2493	0	18827	13.328	13.293	13.364
ProbeTrackDT01	8	ProbeTrackDT01	10.4	SCS215a	20100521.120918	20100521.120935	8	0.013327	60	10	60-180	60	66	GapPrac	1	2	2	1	0	distractor	1	733	634	19461	13.328	13.124	13.565
ProbeTrackDT01	8	ProbeTrackDT01	10.4	SCS215a	20100521.120918	20100521.120940	8	0.013327	60	10	60-180	60	97	GapPrac	1	3	2	2	0	distractor	1	587	707	20168	13.328	13.293	13.363
ProbeTrackDT01	8	ProbeTrackDT01	10.4	SCS215a	20100521.120918	20100521.120946	8	0.013327	60	10	60-180	60	133	GapPrac	1	4	2	75	0	distractor	1	707	647	20815	13.328	13.097	13.559
ProbeTrackDT01	8	ProbeTrackDT01	10.4	SCS215a	20100521.120918	20100521.120953	8	0.013327	60	10	60-180	60	148	GapPrac	1	5	2	75	1	186	-3	587	-1000	19815	13.328	13.108	13.547
ProbeTrackDT01	8	ProbeTrackDT01	10.4	SCS215a	20100521.120918	20100521.121000	8	0.013327	60	10	60-180	60	77	GapPrac	1	6	2	4	1	target	1	534	733	20548	13.328	13.234	13.421
ProbeTrackDT01	8	ProbeTrackDT01	10.4	SCS215a	20100521.120918	20100521.121005	8	0.013327	60	10	60-180	60	177	GapPrac	1	7	2	75	0	distractor	1	614	693	21241	13.328	13.218	13.437
ProbeTrackDT01	8	ProbeTrackDT01	10.4	SCS215a	20100521.120918	20100521.121012	8	0.013327	60	10	60-180	60	152	GapPrac	1	8	2	4	1	target	1	667	667	21908	13.328	13.126	13.563
ProbeTrackDT01	8	ProbeTrackDT01	10.4	SCS215a	20100521.120918	20100521.121018	8	0.013327	60	10	60-180	60	154	GapPrac	1	9	2	1	1	target	1	600	700	22608	13.421	13.076	39.951
ProbeTrackDT01	8	ProbeTrackDT01	10.4	SCS215a	20100521.120918	20100521.121024	8	0.013327	60	10	60-180	60	99	GapPrac	1	10	2	2	1	target	1	520	740	23348	13.328	13.211	13.445
ProbeTrackDT01	8	ProbeTrackDT01	10.4	SCS215a	20100521.120918	20100521.121030	8	0.013327	60	10	60-180	60	109	GapPrac	1	11	2	1	0	distractor	1	574	713	24061	13.328	13.291	13.364
ProbeTrackDT01	8	ProbeTrackDT01	10.4	SCS215a	20100521.120918	20100521.121035	8	0.013327	60	10	60-180	60	156	GapPrac	1	12	2	0	0	target	0	653	-1000	23061	13.328	13.288	13.366
ProbeTrackDT01	8	ProbeTrackDT01	10.4	SCS215a	20100521.120918	20100521.121041	8	0.013327	60	10	60-180	60	147	GapPrac	1	13	2	1	1	target	1	560	720	23781	13.328	13.293	13.363
ProbeTrackDT01	8	ProbeTrackDT01	10.4	SCS215a	20100521.120918	20100521.121047	8	0.013327	60	10	60-180	60	126	GapPrac	1	14	2	4	0	target	0	560	-1000	22781	13.328	13.140	13.551
ProbeTrackDT01	8	ProbeTrackDT01	10.4	SCS215a	20100521.120918	20100521.121053	8	0.013327	60	10	60-180	60	62	GapPrac	1	15	2	0	1	target	1	654	673	23454	13.328	13.008	13.647
ProbeTrackDT01	8	ProbeTrackDT01	10.4	SCS215a	20100521.120918	20100521.121058	8	0.013327	60	10	60-180	60	124	GapPrac	1	16	2	75	1	target	1	494	753	24207	13.452	13.171	40.159
ProbeTrackDT01	8	ProbeTrackDT01	10.4	SCS215a	20100521.120918	20100521.121104	8	0.013327	60	10	60-180	60	129	GapPrac	1	17	2	0	1	target	1	494	753	24960	13.328	13.259	13.396
ProbeTrackDT01	8	ProbeTrackDT01	10.4	SCS215a	20100521.120918	20100521.121110	8	0.013327	60	10	60-180	60	121	GapPrac	1	18	2	2	1	target	1	467	767	25727	13.382	13.111	26.838
ProbeTrackDT01	8	ProbeTrackDT01	10.4	SCS215a	20100521.120918	20100521.121116	8	0.013327	60	10	60-180	60	97	GapPrac	1	19	2	0	0	distractor	1	627	687	26414	13.443	13.229	26.658
ProbeTrackDT01	8	ProbeTrackDT01	10.4	SCS215a	20100521.120918	20100521.121121	8	0.013327	60	10	60-180	60	101	GapPrac	1	20	2	2	0	distractor	1	627	687	27101	13.328	13.293	13.363
ProbeTrackDT01	8	ProbeTrackDT01	10.4	SCS215a	20100521.121308	20100521.121358	8	0.013328	60	10	60-180	60	128	GapPrac	1	1	2	1	1	target	1	987	507	27608	13.425	13.144	26.846
ProbeTrackDT01	8	ProbeTrackDT01	10.4	SCS215a	20100521.121308	20100521.121404	8	0.013328	60	10	60-180	60	140	GapPrac	1	2	2	0	1	distractor	0	1107	-1000	26608	13.328	13.169	13.485
ProbeTrackDT01	8	ProbeTrackDT01	10.4	SCS215a	20100521.121308	20100521.121411	8	0.013328	60	10	60-180	60	64	GapPrac	1	3	2	0	0	distractor	1	560	720	27328	13.328	13.069	13.586
ProbeTrackDT01	8	ProbeTrackDT01	10.4	SCS215a	20100521.121308	20100521.121416	8	0.013328	60	10	60-180	60	87	GapPrac	1	4	2	2	0	target	0	534	-1000	26328	13.328	13.223	13.432
ProbeTrackDT01	8	ProbeTrackDT01	10.4	SCS215a	20100521.121308	20100521.121421	8	0.013328	60	10	60-180	60	136	GapPrac	1	5	2	0	1	target	1	667	667	26995	13.328	13.293	13.363
ProbeTrackDT01	8	ProbeTrackDT01	10.4	SCS215a	20100521.121308	20100521.121427	8	0.013328	60	10	60-180	60	102	GapPrac	1	6	2	75	1	distractor	0	827	-1000	25995	13.328	13.089	13.566
ProbeTrackDT01	8	ProbeTrackDT01	10.4	SCS215a	20100521.121308	20100521.121433	8	0.013328	60	10	60-180	60	177	GapPrac	1	7	2	0	0	target	0	8637	-1000	24995	13.328	13.268	13.388
ProbeTrackDT01	8	ProbeTrackDT01	10.4	SCS215a	20100521.121308	20100521.121448	8	0.013328	60	10	60-180	60	158	GapPrac	1	8	2	4	0	target	0	14048	-1000	23995	13.328	13.138	13.551
ProbeTrackDT01	8	ProbeTrackDT01	10.4	SCS215a	20100521.121308	20100521.121507	8	0.013328	60	10	60-180	60	165	GapPrac	1	9	2	1	0	distractor	1	707	647	24642	13.328	13.133	13.522
ProbeTrackDT01	8	ProbeTrackDT01	10.4	SCS215a	20100521.121308	20100521.121514	8	0.013328	60	10	60-180	60	165	GapPrac	1	10	2	75	0	distractor	1	587	707	25349	13.328	13.067	13.588
ProbeTrackDT01	8	ProbeTrackDT01	10.4	SCS215a	20100521.121308	20100521.121521	8	0.013328	60	10	60-180	60	96	GapPrac	1	11	2	2	1	distractor	0	600	-1000	24349	13.328	13.085	13.603
ProbeTrackDT01	8	ProbeTrackDT01	10.4	SCS215a	20100521.121308	20100521.121526	8	0.013328	60	10	60-180	60	149	GapPrac	1	12	2	4	0	distractor	1	7291	0	24349	13.328	13.293	13.375
ProbeTrackDT01	8	ProbeTrackDT01	10.4	SCS215a	20100521.121308	20100521.121539	8	0.013328	60	10	60-180	60	176	GapPrac	1	13	2	2	0	distractor	1	5278	0	24349	13.328	13.201	13.453
ProbeTrackDT01	8	ProbeTrackDT01	10.4	SCS215a	20100521.121308	20100521.121550	8	0.013328	60	10	60-180	60	66	GapPrac	1	14	2	4	1	target	1	7077	0	24349	13.328	13.293	13.363
ProbeTrackDT01	8	ProbeTrackDT01	10.4	SCS215a	20100521.121308	20100521.121601	8	0.013328	60	10	60-180	60	123	GapPrac	1	15	2	1	1	distractor	0	107	-1000	23349	13.328	13.023	13.633
ProbeTrackDT01	8	ProbeTrackDT01	10.4	SCS215a	20100521.121308	20100521.121607	8	0.013328	60	10	60-180	60	105	GapPrac	1	16	2	2	1	target	1	1160	420	23769	13.328	13.224	13.397
ProbeTrackDT01	8	ProbeTrackDT01	10.4	SCS215a	20100521.121308	20100521.121613	8	0.013328	60	10	60-180	60	68	GapPrac	1	17	2	1	0	target	0	2293	-1000	22769	13.328	13.116	13.507
ProbeTrackDT01	8	ProbeTrackDT01	10.4	SCS215a	20100521.121308	20100521.121619	8	0.013328	60	10	60-180	60	126	GapPrac	1	18	2	75	1	distractor	0	960	-1000	21769	13.328	13.284	13.383
ProbeTrackDT01	8	ProbeTrackDT01	10.4	SCS215a	20100521.121308	20100521.121626	8	0.013328	60	10	60-180	60	161	GapPrac	1	19	2	75	0	target	0	654	-1000	20769	13.328	12.947	13.676
ProbeTrackDT01	8	ProbeTrackDT01	10.4	SCS215a	20100521.121308	20100521.121634	8	0.013328	60	10	60-180	60	79	GapPrac	1	20	2	4	1	distractor	0	480	-1000	19769	13.328	13.293	13.363
ProbeTrackDT01	8	ProbeTrackDT01	10.4	SCS215a	20100521.121658	20100521.121711	8	0.013328	60	10	60-180	60	122	GapExp	1	1	2	2	0	target	0	7037	-1000	18769	13.328	13.160	13.496
ProbeTrackDT01	8	ProbeTrackDT01	10.4	SCS215a	20100521.121658	20100521.121723	8	0.013328	60	10	60-180	60	165	GapExp	1	2	2	75	0	target	0	813	-1000	17769	13.328	12.987	13.673
ProbeTrackDT01	8	ProbeTrackDT01	10.4	SCS215a	20100521.121658	20100521.121730	8	0.013328	60	10	60-180	60	94	GapExp	1	3	2	0	1	target	1	507	747	18516	13.328	13.280	13.376
ProbeTrackDT01	8	ProbeTrackDT01	10.4	SCS215a	20100521.121658	20100521.121735	8	0.013328	60	10	60-180	60	177	GapExp	1	4	2	2	1	target	1	454	773	19289	13.328	13.204	13.485
ProbeTrackDT01	8	ProbeTrackDT01	10.4	SCS215a	20100521.121658	20100521.121742	8	0.013328	60	10	60-180	60	142	GapExp	1	5	2	4	0	distractor	1	600	700	19989	13.328	13.161	13.493
ProbeTrackDT01	8	ProbeTrackDT01	10.4	SCS215a	20100521.121658	20100521.121748	8	0.013328	60	10	60-180	60	92	GapExp	1	6	2	0	0	distractor	1	1000	500	20489	13.328	13.293	13.363
ProbeTrackDT01	8	ProbeTrackDT01	10.4	SCS215a	20100521.121658	20100521.121753	8	0.013328	60	10	60-180	60	110	GapExp	1	7	2	75	1	distractor	0	867	-1000	19489	13.328	13.136	13.519
ProbeTrackDT01	8	ProbeTrackDT01	10.4	SCS215a	20100521.121658	20100521.121800	8	0.013328	60	10	60-180	60	171	GapExp	1	8	2	1	0	target	0	547	-1000	18489	13.328	13.192	13.479
ProbeTrackDT01	8	ProbeTrackDT01	10.4	SCS215a	20100521.121658	20100521.121806	8	0.013328	60	10	60-180	60	180	GapExp	1	9	2	1	1	distractor	0	307	-1000	17489	13.328	13.103	13.519
ProbeTrackDT01	8	ProbeTrackDT01	10.4	SCS215a	20100521.121658	20100521.121813	8	0.013328	60	10	60-180	60	168	GapExp	1	10	2	4	1	target	1	480	760	18249	13.328	13.035	13.617
ProbeTrackDT01	8	ProbeTrackDT01	10.4	SCS215a	20100521.121658	20100521.121819	8	0.013328	60	10	60-180	60	168	GapExp	0	11	2	0	0	distractor	1	534	733	18982	13.328	12.995	13.626
ProbeTrackDT01	8	ProbeTrackDT01	10.4	SCS215a	20100521.121658	20100521.121825	8	0.013328	60	10	60-180	60	135	GapExp	0	12	2	4	1	distractor	0	827	-1000	17982	13.328	13.261	13.395
ProbeTrackDT01	8	ProbeTrackDT01	10.4	SCS215a	20100521.121658	20100521.121831	8	0.013328	60	10	60-180	60	141	GapExp	0	13	2	75	1	target	1	400	800	18782	13.328	13.157	13.464
ProbeTrackDT01	8	ProbeTrackDT01	10.4	SCS215a	20100521.121658	20100521.121838	8	0.013328	60	10	60-180	60	128	GapExp	0	14	2	75	1	distractor	0	680	-1000	17782	13.328	13.223	13.433
ProbeTrackDT01	8	ProbeTrackDT01	10.4	SCS215a	20100521.121658	20100521.121845	8	0.013328	60	10	60-180	60	171	GapExp	0	15	2	1	1	target	1	467	767	18549	13.328	13.121	13.501
ProbeTrackDT01	8	ProbeTrackDT01	10.4	SCS215a	20100521.121658	20100521.121851	8	0.013328	60	10	60-180	60	102	GapExp	0	16	2	75	1	distractor	0	760	-1000	17549	13.328	13.148	13.472
ProbeTrackDT01	8	ProbeTrackDT01	10.4	SCS215a	20100521.121658	20100521.121858	8	0.013328	60	10	60-180	60	123	GapExp	0	17	2	2	1	target	1	693	654	18203	13.328	13.140	13.516
ProbeTrackDT01	8	ProbeTrackDT01	10.4	SCS215a	20100521.121658	20100521.121903	8	0.013328	60	10	60-180	60	107	GapExp	0	18	2	75	1	target	1	400	800	19003	13.328	13.166	13.490
ProbeTrackDT01	8	ProbeTrackDT01	10.4	SCS215a	20100521.121658	20100521.121910	8	0.013328	60	10	60-180	60	146	GapExp	0	19	2	75	0	distractor	1	1506	247	19250	13.328	13.138	13.517
ProbeTrackDT01	8	ProbeTrackDT01	10.4	SCS215a	20100521.121658	20100521.121917	8	0.013328	60	10	60-180	60	89	GapExp	0	20	2	75	0	target	0	933	-1000	18250	13.328	13.081	13.540
ProbeTrackDT01	8	ProbeTrackDT01	10.4	SCS215a	20100521.121658	20100521.121924	8	0.013328	60	10	60-180	60	88	GapExp	0	21	2	4	0	distractor	1	534	733	18983	13.328	13.273	13.415
ProbeTrackDT01	8	ProbeTrackDT01	10.4	SCS215a	20100521.121658	20100521.121929	8	0.013328	60	10	60-180	60	171	GapExp	0	22	2	1	1	target	1	508	746	19729	13.328	13.224	13.433
ProbeTrackDT01	8	ProbeTrackDT01	10.4	SCS215a	20100521.121658	20100521.121935	8	0.013328	60	10	60-180	60	79	GapExp	0	23	2	0	1	distractor	0	1146	-1000	18729	13.447	13.169	26.810
ProbeTrackDT01	8	ProbeTrackDT01	10.4	SCS215a	20100521.121658	20100521.121941	8	0.013328	60	10	60-180	60	81	GapExp	0	24	2	4	0	target	0	1773	-1000	17729	13.328	13.293	13.363
ProbeTrackDT01	8	ProbeTrackDT01	10.4	SCS215a	20100521.121658	20100521.121947	8	0.013328	60	10	60-180	60	71	GapExp	0	25	2	1	1	target	1	1480	260	17989	13.328	13.293	13.362
ProbeTrackDT01	8	ProbeTrackDT01	10.4	SCS215a	20100521.121658	20100521.121953	8	0.013328	60	10	60-180	60	79	GapExp	0	26	2	0	1	distractor	0	893	-1000	16989	13.328	13.293	13.392
ProbeTrackDT01	8	ProbeTrackDT01	10.4	SCS215a	20100521.121658	20100521.121959	8	0.013328	60	10	60-180	60	72	GapExp	0	27	2	75	1	target	1	360	820	17809	13.328	13.293	13.363
ProbeTrackDT01	8	ProbeTrackDT01	10.4	SCS215a	20100521.121658	20100521.122004	8	0.013328	60	10	60-180	60	81	GapExp	0	28	2	1	0	distractor	1	574	713	18522	13.328	13.165	13.457
ProbeTrackDT01	8	ProbeTrackDT01	10.4	SCS215a	20100521.121658	20100521.122010	8	0.013328	60	10	60-180	60	126	GapExp	0	29	2	75	0	distractor	1	667	667	19189	13.406	13.289	26.677
ProbeTrackDT01	8	ProbeTrackDT01	10.4	SCS215a	20100521.121658	20100521.122016	8	0.013328	60	10	60-180	60	81	GapExp	0	30	2	75	1	distractor	0	374	-1000	18189	13.328	13.083	13.566
ProbeTrackDT01	8	ProbeTrackDT01	10.4	SCS215a	20100521.121658	20100521.122022	8	0.013328	60	10	60-180	60	165	GapExp	0	31	2	75	1	target	1	187	907	19096	13.328	13.038	13.617
ProbeTrackDT01	8	ProbeTrackDT01	10.4	SCS215a	20100521.121658	20100521.122029	8	0.013328	60	10	60-180	60	79	GapExp	0	32	2	1	0	distractor	1	1093	454	19550	13.328	13.146	13.477
ProbeTrackDT01	8	ProbeTrackDT01	10.4	SCS215a	20100521.121658	20100521.122035	8	0.013328	60	10	60-180	60	87	GapExp	0	33	2	2	1	target	1	573	714	20264	13.328	13.134	13.555
ProbeTrackDT01	8	ProbeTrackDT01	10.4	SCS215a	20100521.121658	20100521.122040	8	0.013328	60	10	60-180	60	170	GapExp	0	34	2	75	1	target	1	534	733	20997	13.328	13.137	13.518
ProbeTrackDT01	8	ProbeTrackDT01	10.4	SCS215a	20100521.121658	20100521.122047	8	0.013328	60	10	60-180	60	76	GapExp	0	35	2	0	0	distractor	1	627	687	21684	13.328	13.135	13.521
ProbeTrackDT01	8	ProbeTrackDT01	10.4	SCS215a	20100521.121658	20100521.122052	8	0.013328	60	10	60-180	60	149	GapExp	0	36	2	75	1	target	1	1560	220	21904	13.328	12.929	13.693
ProbeTrackDT01	8	ProbeTrackDT01	10.4	SCS215a	20100521.121658	20100521.122100	8	0.013328	60	10	60-180	60	102	GapExp	0	37	2	75	0	target	0	653	-1000	20904	13.370	13.008	27.069
ProbeTrackDT01	8	ProbeTrackDT01	10.4	SCS215a	20100521.121658	20100521.122107	8	0.013328	60	10	60-180	60	125	GapExp	0	38	2	2	0	distractor	1	800	600	21504	13.328	13.216	13.439
ProbeTrackDT01	8	ProbeTrackDT01	10.4	SCS215a	20100521.121658	20100521.122113	8	0.013328	60	10	60-180	60	159	GapExp	0	39	2	75	1	distractor	0	680	-1000	20504	13.328	13.293	13.363
ProbeTrackDT01	8	ProbeTrackDT01	10.4	SCS215a	20100521.121658	20100521.122120	8	0.013328	60	10	60-180	60	98	GapExp	0	40	2	2	1	target	1	547	727	21231	13.328	13.218	13.437
ProbeTrackDT01	8	ProbeTrackDT01	10.4	SCS215a	20100521.121658	20100521.122125	8	0.013328	60	10	60-180	60	119	GapExp	0	41	2	0	0	target	0	880	-1000	20231	13.328	13.293	13.363
ProbeTrackDT01	8	ProbeTrackDT01	10.4	SCS215a	20100521.121658	20100521.122131	8	0.013328	60	10	60-180	60	168	GapExp	0	42	2	4	1	target	1	707	647	20878	13.328	13.257	13.366
ProbeTrackDT01	8	ProbeTrackDT01	10.4	SCS215a	20100521.121658	20100521.122138	8	0.013328	60	10	60-180	60	166	GapExp	0	43	2	4	0	distractor	1	627	687	21565	13.416	13.080	26.663
ProbeTrackDT01	8	ProbeTrackDT01	10.4	SCS215a	20100521.121658	20100521.122144	8	0.013328	60	10	60-180	60	167	GapExp	0	44	2	0	0	target	0	747	-1000	20565	13.328	13.293	13.363
ProbeTrackDT01	8	ProbeTrackDT01	10.4	SCS215a	20100521.121658	20100521.122150	8	0.013328	60	10	60-180	60	142	GapExp	0	45	2	4	0	distractor	1	653	674	21239	13.422	13.115	26.847
ProbeTrackDT01	8	ProbeTrackDT01	10.4	SCS215a	20100521.121658	20100521.122156	8	0.013328	60	10	60-180	60	153	GapExp	0	46	2	1	1	target	1	827	587	21826	13.328	13.293	13.363
ProbeTrackDT01	8	ProbeTrackDT01	10.4	SCS215a	20100521.121658	20100521.122203	8	0.013328	60	10	60-180	60	75	GapExp	0	47	2	0	0	distractor	1	1680	160	21986	13.328	13.293	13.363
ProbeTrackDT01	8	ProbeTrackDT01	10.4	SCS215a	20100521.121658	20100521.122209	8	0.013328	60	10	60-180	60	177	GapExp	0	48	2	0	0	target	0	640	-1000	20986	13.328	13.153	13.535
ProbeTrackDT01	8	ProbeTrackDT01	10.4	SCS215a	20100521.121658	20100521.122215	8	0.013328	60	10	60-180	60	173	GapExp	0	49	2	1	0	distractor	1	733	634	21620	13.328	12.960	13.661
ProbeTrackDT01	8	ProbeTrackDT01	10.4	SCS215a	20100521.121658	20100521.122222	8	0.013328	60	10	60-180	60	99	GapExp	0	50	2	2	1	target	1	480	760	22380	13.448	13.109	40.224
ProbeTrackDT01	8	ProbeTrackDT01	10.4	SCS215a	20100521.121658	20100521.122242	8	0.013328	60	10	60-180	60	137	GapExp	0	51	2	2	0	distractor	1	720	640	23020	13.328	13.293	13.363
ProbeTrackDT01	8	ProbeTrackDT01	10.4	SCS215a	20100521.121658	20100521.122248	8	0.013328	60	10	60-180	60	87	GapExp	0	52	2	0	1	distractor	0	707	-1000	22020	13.328	13.202	13.455
ProbeTrackDT01	8	ProbeTrackDT01	10.4	SCS215a	20100521.121658	20100521.122253	8	0.013328	60	10	60-180	60	139	GapExp	0	53	2	2	1	76	-3	600	-1000	21020	13.328	13.292	13.366
ProbeTrackDT01	8	ProbeTrackDT01	10.4	SCS215a	20100521.121658	20100521.122259	8	0.013328	60	10	60-180	60	141	GapExp	0	54	2	1	0	distractor	1	973	514	21534	13.328	13.113	13.542
ProbeTrackDT01	8	ProbeTrackDT01	10.4	SCS215a	20100521.121658	20100521.122305	8	0.013328	60	10	60-180	60	82	GapExp	0	55	2	1	0	186	-3	1053	-1000	20534	13.328	13.126	13.531
ProbeTrackDT01	8	ProbeTrackDT01	10.4	SCS215a	20100521.121658	20100521.122311	8	0.013328	60	10	60-180	60	117	GapExp	0	56	2	75	0	distractor	1	374	813	21347	13.414	13.029	26.952
ProbeTrackDT01	8	ProbeTrackDT01	10.4	SCS215a	20100521.121658	20100521.122317	8	0.013328	60	10	60-180	60	112	GapExp	0	57	2	1	0	distractor	1	520	740	22087	13.328	13.293	13.363
ProbeTrackDT01	8	ProbeTrackDT01	10.4	SCS215a	20100521.121658	20100521.122323	8	0.013328	60	10	60-180	60	133	GapExp	0	58	2	2	0	target	0	627	-1000	21087	13.328	13.281	13.409
ProbeTrackDT01	8	ProbeTrackDT01	10.4	SCS215a	20100521.121658	20100521.122328	8	0.013328	60	10	60-180	60	166	GapExp	0	59	2	4	0	distractor	1	747	627	21714	13.328	12.887	13.735
ProbeTrackDT01	8	ProbeTrackDT01	10.4	SCS215a	20100521.121658	20100521.122335	8	0.013328	60	10	60-180	60	103	GapExp	0	60	2	4	0	distractor	1	787	607	22321	13.328	13.117	13.572
ProbeTrackDT01	8	ProbeTrackDT01	10.4	SCS215a	20100521.121658	20100521.122341	8	0.013328	60	10	60-180	60	150	GapExp	0	61	2	4	0	distractor	1	507	747	23068	13.328	13.154	13.501
ProbeTrackDT01	8	ProbeTrackDT01	10.4	SCS215a	20100521.121658	20100521.122347	8	0.013328	60	10	60-180	60	143	GapExp	0	62	2	1	1	target	1	613	694	23762	13.328	13.293	13.363
ProbeTrackDT01	8	ProbeTrackDT01	10.4	SCS215a	20100521.121658	20100521.122353	8	0.013328	60	10	60-180	60	72	GapExp	0	63	2	75	0	distractor	1	653	674	24436	13.328	13.250	13.439
ProbeTrackDT01	8	ProbeTrackDT01	10.4	SCS215a	20100521.121658	20100521.122359	8	0.013328	60	10	60-180	60	96	GapExp	0	64	2	0	1	target	1	587	707	25143	13.328	13.293	13.363
ProbeTrackDT01	8	ProbeTrackDT01	10.4	SCS215a	20100521.121658	20100521.122404	8	0.013328	60	10	60-180	60	78	GapExp	0	65	2	0	1	distractor	0	747	-1000	24143	13.448	13.255	26.715
ProbeTrackDT01	8	ProbeTrackDT01	10.4	SCS215a	20100521.121658	20100521.122409	8	0.013328	60	10	60-180	60	97	GapExp	0	66	2	0	1	target	1	560	720	24863	13.328	13.267	13.365
ProbeTrackDT01	8	ProbeTrackDT01	10.4	SCS215a	20100521.121658	20100521.122415	8	0.013328	60	10	60-180	60	97	GapExp	0	67	2	2	0	distractor	1	600	700	25563	13.328	13.115	13.466
ProbeTrackDT01	8	ProbeTrackDT01	10.4	SCS215a	20100521.121658	20100521.122420	8	0.013328	60	10	60-180	60	79	GapExp	0	68	2	75	1	target	1	1187	407	25970	13.328	13.223	13.434
ProbeTrackDT01	8	ProbeTrackDT01	10.4	SCS215a	20100521.121658	20100521.122427	8	0.013328	60	10	60-180	60	88	GapExp	0	69	2	0	0	distractor	1	693	654	26624	13.328	12.919	13.736
ProbeTrackDT01	8	ProbeTrackDT01	10.4	SCS215a	20100521.121658	20100521.122432	8	0.013328	60	10	60-180	60	107	GapExp	0	70	2	75	1	distractor	0	520	-1000	25624	13.328	13.293	13.363
ProbeTrackDT01	8	ProbeTrackDT01	10.4	SCS215a	20100521.121658	20100521.122438	8	0.013328	60	10	60-180	60	157	GapExp	0	71	2	0	0	distractor	1	533	734	26358	13.328	13.233	13.389
ProbeTrackDT01	8	ProbeTrackDT01	10.4	SCS215a	20100521.121658	20100521.122444	8	0.013328	60	10	60-180	60	104	GapExp	0	72	2	0	0	target	0	67	-1000	25358	13.328	13.133	13.524
ProbeTrackDT01	8	ProbeTrackDT01	10.4	SCS215a	20100521.121658	20100521.122449	8	0.013328	60	10	60-180	60	70	GapExp	0	73	2	1	0	distractor	1	1960	20	25378	13.328	13.243	13.413
ProbeTrackDT01	8	ProbeTrackDT01	10.4	SCS215a	20100521.121658	20100521.122456	8	0.013328	60	10	60-180	60	96	GapExp	0	74	2	75	0	target	0	776	-1000	24378	13.716	12.874	40.336
ProbeTrackDT01	8	ProbeTrackDT01	10.4	SCS215a	20100521.121658	20100521.122502	8	0.013328	60	10	60-180	60	67	GapExp	0	75	2	1	1	distractor	0	547	-1000	23378	13.464	13.293	26.679
ProbeTrackDT01	8	ProbeTrackDT01	10.4	SCS215a	20100521.121658	20100521.122507	8	0.013328	60	10	60-180	60	132	GapExp	0	76	2	4	0	distractor	1	640	680	24058	13.377	13.163	26.678
ProbeTrackDT01	8	ProbeTrackDT01	10.4	SCS215a	20100521.121658	20100521.122513	8	0.013328	60	10	60-180	60	102	GapExp	0	77	2	75	0	target	0	773	-1000	23058	13.328	13.142	13.514
ProbeTrackDT01	8	ProbeTrackDT01	10.4	SCS215a	20100521.121658	20100521.122520	8	0.013328	60	10	60-180	60	87	GapExp	0	78	2	0	1	target	1	574	713	23771	13.328	13.134	13.522
ProbeTrackDT01	8	ProbeTrackDT01	10.4	SCS215a	20100521.121658	20100521.122525	8	0.013328	60	10	60-180	60	71	GapExp	0	79	2	1	0	distractor	1	520	740	24511	13.328	13.292	13.363
ProbeTrackDT01	8	ProbeTrackDT01	10.4	SCS215a	20100521.121658	20100521.122530	8	0.013328	60	10	60-180	60	180	GapExp	0	80	2	2	0	target	0	560	-1000	23511	13.413	13.097	26.913
ProbeTrackDT01	8	ProbeTrackDT01	10.4	SCS215a	20100521.121658	20100521.122536	8	0.013328	60	10	60-180	60	168	GapExp	0	81	2	4	1	distractor	0	840	-1000	22511	13.370	13.288	26.641
ProbeTrackDT01	8	ProbeTrackDT01	10.4	SCS215a	20100521.121658	20100521.122543	8	0.013328	60	10	60-180	60	106	GapExp	0	82	2	2	0	target	0	1533	-1000	21511	13.328	13.293	13.363
ProbeTrackDT01	8	ProbeTrackDT01	10.4	SCS215a	20100521.121658	20100521.122549	8	0.013328	60	10	60-180	60	103	GapExp	0	83	2	75	1	distractor	0	693	-1000	20511	13.412	13.076	40.236
ProbeTrackDT01	8	ProbeTrackDT01	10.4	SCS215a	20100521.121658	20100521.122555	8	0.013328	60	10	60-180	60	158	GapExp	0	84	2	4	1	distractor	0	600	-1000	19511	13.328	13.293	13.363
ProbeTrackDT01	8	ProbeTrackDT01	10.4	SCS215a	20100521.121658	20100521.122602	8	0.013328	60	10	60-180	60	158	GapExp	0	85	2	75	1	target	1	374	813	20324	13.328	13.216	13.440
ProbeTrackDT01	8	ProbeTrackDT01	10.4	SCS215a	20100521.121658	20100521.122609	8	0.013328	60	10	60-180	60	70	GapExp	0	86	2	4	1	distractor	0	2799	-1000	19324	13.328	13.165	13.490
ProbeTrackDT01	8	ProbeTrackDT01	10.4	SCS215a	20100521.121658	20100521.122616	8	0.013328	60	10	60-180	60	97	GapExp	0	87	2	2	1	target	1	494	753	20077	13.328	13.062	13.560
ProbeTrackDT01	8	ProbeTrackDT01	10.4	SCS215a	20100521.121658	20100521.122621	8	0.013328	60	10	60-180	60	70	GapExp	0	88	2	75	0	distractor	1	587	707	20784	13.328	13.292	13.363
ProbeTrackDT01	8	ProbeTrackDT01	10.4	SCS215a	20100521.121658	20100521.122627	8	0.013328	60	10	60-180	60	126	GapExp	0	89	2	75	0	target	0	840	-1000	19784	13.328	12.948	13.708
ProbeTrackDT01	8	ProbeTrackDT01	10.4	SCS215a	20100521.121658	20100521.122634	8	0.013328	60	10	60-180	60	75	GapExp	0	90	2	4	0	distractor	1	534	733	20517	13.328	13.205	13.475
ProbeTrackDT01	8	ProbeTrackDT01	10.4	SCS215a	20100521.121658	20100521.122639	8	0.013328	60	10	60-180	60	107	GapExp	0	91	2	1	1	target	1	653	674	21191	13.328	13.293	13.363
ProbeTrackDT01	8	ProbeTrackDT01	10.4	SCS215a	20100521.121658	20100521.122645	8	0.013328	60	10	60-180	60	100	GapExp	0	92	2	0	0	target	0	254	-1000	20191	13.328	13.008	13.638
ProbeTrackDT01	8	ProbeTrackDT01	10.4	SCS215a	20100521.121658	20100521.122650	8	0.013328	60	10	60-180	60	74	GapExp	0	93	2	75	1	distractor	0	1853	-1000	19191	13.418	13.279	26.985
ProbeTrackDT01	8	ProbeTrackDT01	10.4	SCS215a	20100521.121658	20100521.122657	8	0.013328	60	10	60-180	60	131	GapExp	0	94	2	4	0	target	0	840	-1000	18191	13.375	13.039	26.922
ProbeTrackDT01	8	ProbeTrackDT01	10.4	SCS215a	20100521.121658	20100521.122703	8	0.013328	60	10	60-180	60	78	GapExp	0	95	2	1	1	target	1	840	580	18771	13.328	13.293	13.363
ProbeTrackDT01	8	ProbeTrackDT01	10.4	SCS215a	20100521.121658	20100521.122708	8	0.013328	60	10	60-180	60	79	GapExp	0	96	2	2	1	target	1	560	720	19491	13.328	13.155	13.500
ProbeTrackDT01	8	ProbeTrackDT01	10.4	SCS215a	20100521.121658	20100521.122713	8	0.013328	60	10	60-180	60	98	GapExp	0	97	2	4	0	distractor	1	520	740	20231	13.328	13.109	13.547
ProbeTrackDT01	8	ProbeTrackDT01	10.4	SCS215a	20100521.121658	20100521.122718	8	0.013328	60	10	60-180	60	176	GapExp	0	98	2	1	1	target	1	627	687	20918	13.328	13.293	13.363
ProbeTrackDT01	8	ProbeTrackDT01	10.4	SCS215a	20100521.121658	20100521.122725	8	0.013328	60	10	60-180	60	143	GapExp	0	99	2	0	0	distractor	1	627	687	21605	13.328	13.099	13.522
ProbeTrackDT01	8	ProbeTrackDT01	10.4	SCS215a	20100521.121658	20100521.122731	8	0.013328	60	10	60-180	60	158	GapExp	0	100	2	4	1	target	1	480	760	22365	13.328	13.215	13.408
ProbeTrackDT01	8	ProbeTrackDT01	10.4	SCS215a	20100521.121658	20100521.122757	8	0.013328	60	10	60-180	60	115	GapExp	0	101	2	75	1	distractor	0	640	-1000	21365	13.492	13.267	26.731
ProbeTrackDT01	8	ProbeTrackDT01	10.4	SCS215a	20100521.121658	20100521.122804	8	0.013328	60	10	60-180	60	65	GapExp	0	102	2	4	0	distractor	1	747	627	21992	13.328	13.249	13.439
ProbeTrackDT01	8	ProbeTrackDT01	10.4	SCS215a	20100521.121658	20100521.122809	8	0.013328	60	10	60-180	60	116	GapExp	0	103	2	4	0	target	0	707	-1000	20992	13.379	13.233	26.748
ProbeTrackDT01	8	ProbeTrackDT01	10.4	SCS215a	20100521.121658	20100521.122815	8	0.013328	60	10	60-180	60	109	GapExp	0	104	2	1	1	distractor	0	347	-1000	19992	13.328	13.293	13.363
ProbeTrackDT01	8	ProbeTrackDT01	10.4	SCS215a	20100521.121658	20100521.122820	8	0.013328	60	10	60-180	60	94	GapExp	0	105	2	4	0	target	0	707	-1000	18992	13.328	13.293	13.363
ProbeTrackDT01	8	ProbeTrackDT01	10.4	SCS215a	20100521.121658	20100521.122825	8	0.013328	60	10	60-180	60	88	GapExp	0	106	2	1	0	distractor	1	910	545	19537	13.385	13.293	26.675
ProbeTrackDT01	8	ProbeTrackDT01	10.4	SCS215a	20100521.121658	20100521.122831	8	0.013328	60	10	60-180	60	167	GapExp	0	107	2	75	0	distractor	1	534	733	20270	13.328	13.095	13.526
ProbeTrackDT01	8	ProbeTrackDT01	10.4	SCS215a	20100521.121658	20100521.122838	8	0.013328	60	10	60-180	60	150	GapExp	0	108	2	1	0	target	0	747	-1000	19270	13.328	13.045	13.577
ProbeTrackDT01	8	ProbeTrackDT01	10.4	SCS215a	20100521.121658	20100521.122844	8	0.013328	60	10	60-180	60	120	GapExp	0	109	2	2	1	distractor	0	440	-1000	18270	13.328	13.112	13.546
ProbeTrackDT01	8	ProbeTrackDT01	10.4	SCS215a	20100521.121658	20100521.122850	8	0.013328	60	10	60-180	60	112	GapExp	0	110	2	75	0	distractor	1	467	767	19037	13.328	13.014	13.659
ProbeTrackDT01	8	ProbeTrackDT01	10.4	SCS215a	20100521.121658	20100521.122856	8	0.013328	60	10	60-180	60	64	GapExp	0	111	2	1	1	target	1	1333	334	19371	13.328	13.000	13.656
ProbeTrackDT01	8	ProbeTrackDT01	10.4	SCS215a	20100521.121658	20100521.122902	8	0.013328	60	10	60-180	60	177	GapExp	0	112	2	1	0	distractor	1	507	747	20118	13.328	13.292	13.367
ProbeTrackDT01	8	ProbeTrackDT01	10.4	SCS215a	20100521.121658	20100521.122908	8	0.013328	60	10	60-180	60	99	GapExp	0	113	2	4	1	target	1	987	507	20625	13.328	13.172	13.483
ProbeTrackDT01	8	ProbeTrackDT01	10.4	SCS215a	20100521.121658	20100521.122914	8	0.013328	60	10	60-180	60	65	GapExp	0	114	2	0	1	distractor	0	560	-1000	19625	13.397	13.245	26.643
ProbeTrackDT01	8	ProbeTrackDT01	10.4	SCS215a	20100521.121658	20100521.122919	8	0.013328	60	10	60-180	60	123	GapExp	0	115	2	4	0	target	0	547	-1000	18625	13.328	13.291	13.364
ProbeTrackDT01	8	ProbeTrackDT01	10.4	SCS215a	20100521.121658	20100521.122925	8	0.013328	60	10	60-180	60	91	GapExp	0	116	2	4	1	distractor	0	467	-1000	17625	13.328	13.293	13.363
ProbeTrackDT01	8	ProbeTrackDT01	10.4	SCS215a	20100521.121658	20100521.122930	8	0.013328	60	10	60-180	60	110	GapExp	0	117	2	1	1	target	1	560	720	18345	13.328	13.282	13.406
ProbeTrackDT01	8	ProbeTrackDT01	10.4	SCS215a	20100521.121658	20100521.122935	8	0.013328	60	10	60-180	60	158	GapExp	0	118	2	4	0	target	0	440	-1000	17345	13.328	13.275	13.363
ProbeTrackDT01	8	ProbeTrackDT01	10.4	SCS215a	20100521.121658	20100521.122941	8	0.013328	60	10	60-180	60	109	GapExp	0	119	2	0	0	target	0	1533	-1000	16345	13.328	13.090	13.566
ProbeTrackDT01	8	ProbeTrackDT01	10.4	SCS215a	20100521.121658	20100521.122947	8	0.013328	60	10	60-180	60	165	GapExp	0	120	2	2	0	distractor	1	653	674	17019	13.328	13.293	13.363
ProbeTrackDT01	8	ProbeTrackDT01	10.4	SCS215a	20100521.121658	20100521.122954	8	0.013328	60	10	60-180	60	64	GapExp	0	121	2	0	1	target	1	520	740	17759	13.328	13.155	13.500
ProbeTrackDT01	8	ProbeTrackDT01	10.4	SCS215a	20100521.121658	20100521.122959	8	0.013328	60	10	60-180	60	119	GapExp	0	122	2	1	0	distractor	1	547	727	18486	13.328	13.288	13.363
ProbeTrackDT01	8	ProbeTrackDT01	10.4	SCS215a	20100521.121658	20100521.123004	8	0.013328	60	10	60-180	60	91	GapExp	0	123	2	1	1	target	1	507	747	19233	13.328	13.206	13.450
ProbeTrackDT01	8	ProbeTrackDT01	10.4	SCS215a	20100521.121658	20100521.123009	8	0.013328	60	10	60-180	60	104	GapExp	0	124	2	4	1	target	1	2573	0	19233	13.433	13.251	26.732
ProbeTrackDT01	8	ProbeTrackDT01	10.4	SCS215a	20100521.121658	20100521.123017	8	0.013328	60	10	60-180	60	144	GapExp	0	125	2	2	1	target	1	1133	434	19667	13.328	13.226	13.430
ProbeTrackDT01	8	ProbeTrackDT01	10.4	SCS215a	20100521.121658	20100521.123023	8	0.013328	60	10	60-180	60	109	GapExp	0	126	2	4	1	target	1	614	693	20360	13.328	13.273	13.382
ProbeTrackDT01	8	ProbeTrackDT01	10.4	SCS215a	20100521.121658	20100521.123029	8	0.013328	60	10	60-180	60	146	GapExp	0	127	2	2	1	target	1	547	727	21087	13.424	13.288	26.685
ProbeTrackDT01	8	ProbeTrackDT01	10.4	SCS215a	20100521.121658	20100521.123035	8	0.013328	60	10	60-180	60	135	GapExp	0	128	2	0	1	target	1	400	800	21887	13.328	13.292	13.363
ProbeTrackDT01	8	ProbeTrackDT01	10.4	SCS215a	20100521.121658	20100521.123040	8	0.013328	60	10	60-180	60	70	GapExp	0	129	2	1	1	target	1	480	760	22647	13.465	13.293	26.666
ProbeTrackDT01	8	ProbeTrackDT01	10.4	SCS215a	20100521.121658	20100521.123045	8	0.013328	60	10	60-180	60	122	GapExp	0	130	2	1	1	target	1	347	827	23474	13.328	13.293	13.363
ProbeTrackDT01	8	ProbeTrackDT01	10.4	SCS215a	20100521.121658	20100521.123051	8	0.013328	60	10	60-180	60	179	GapExp	0	131	2	1	1	target	1	560	720	24194	13.328	13.293	13.363
ProbeTrackDT01	8	ProbeTrackDT01	10.4	SCS215a	20100521.121658	20100521.123057	8	0.013328	60	10	60-180	60	67	GapExp	0	132	2	1	0	target	0	533	-1000	23194	13.464	13.036	26.921
ProbeTrackDT01	8	ProbeTrackDT01	10.4	SCS215a	20100521.121658	20100521.123102	8	0.013328	60	10	60-180	60	93	GapExp	0	133	2	4	1	target	1	494	753	23947	13.328	13.140	13.516
ProbeTrackDT01	8	ProbeTrackDT01	10.4	SCS215a	20100521.121658	20100521.123107	8	0.013328	60	10	60-180	60	178	GapExp	0	134	2	75	0	distractor	1	680	660	24607	13.328	13.256	13.400
ProbeTrackDT01	8	ProbeTrackDT01	10.4	SCS215a	20100521.121658	20100521.123115	8	0.013328	60	10	60-180	60	156	GapExp	0	135	2	75	0	distractor	1	707	647	25254	13.400	13.182	26.782
ProbeTrackDT01	8	ProbeTrackDT01	10.4	SCS215a	20100521.121658	20100521.123122	8	0.013328	60	10	60-180	60	168	GapExp	0	136	2	1	1	target	1	414	793	26047	13.421	13.292	26.669
ProbeTrackDT01	8	ProbeTrackDT01	10.4	SCS215a	20100521.121658	20100521.123128	8	0.013328	60	10	60-180	60	111	GapExp	0	137	2	2	1	target	1	387	807	26854	13.328	13.261	13.394
ProbeTrackDT01	8	ProbeTrackDT01	10.4	SCS215a	20100521.121658	20100521.123133	8	0.013328	60	10	60-180	60	144	GapExp	0	138	2	1	0	target	0	480	-1000	25854	13.328	13.293	13.363
ProbeTrackDT01	8	ProbeTrackDT01	10.4	SCS215a	20100521.121658	20100521.123139	8	0.013328	60	10	60-180	60	75	GapExp	0	139	2	0	0	target	0	720	-1000	24854	13.328	13.109	13.579
ProbeTrackDT01	8	ProbeTrackDT01	10.4	SCS215a	20100521.121658	20100521.123144	8	0.013328	60	10	60-180	60	76	GapExp	0	140	2	75	1	target	1	573	714	25568	13.328	13.193	13.429
ProbeTrackDT01	8	ProbeTrackDT01	10.4	SCS215a	20100521.121658	20100521.123150	8	0.013328	60	10	60-180	60	66	GapExp	0	141	2	4	0	target	0	454	-1000	24568	13.328	13.139	13.548
ProbeTrackDT01	8	ProbeTrackDT01	10.4	SCS215a	20100521.121658	20100521.123155	8	0.013328	60	10	60-180	60	62	GapExp	0	142	2	1	0	target	0	773	-1000	23568	13.328	13.259	13.383
ProbeTrackDT01	8	ProbeTrackDT01	10.4	SCS215a	20100521.121658	20100521.123200	8	0.013328	60	10	60-180	60	85	GapExp	0	143	2	75	0	target	0	467	-1000	22568	13.328	13.293	13.363
ProbeTrackDT01	8	ProbeTrackDT01	10.4	SCS215a	20100521.121658	20100521.123206	8	0.013328	60	10	60-180	60	179	GapExp	0	144	2	2	0	target	0	560	-1000	21568	13.328	13.187	13.435
ProbeTrackDT01	8	ProbeTrackDT01	10.4	SCS215a	20100521.121658	20100521.123213	8	0.013328	60	10	60-180	60	149	GapExp	0	145	2	1	0	distractor	1	813	594	22162	13.328	13.080	13.576
ProbeTrackDT01	8	ProbeTrackDT01	10.4	SCS215a	20100521.121658	20100521.123219	8	0.013328	60	10	60-180	60	174	GapExp	0	146	2	75	0	target	0	853	-1000	21162	13.328	13.237	13.383
ProbeTrackDT01	8	ProbeTrackDT01	10.4	SCS215a	20100521.121658	20100521.123226	8	0.013328	60	10	60-180	60	119	GapExp	0	147	2	0	1	target	1	667	667	21829	13.328	13.191	13.464
ProbeTrackDT01	8	ProbeTrackDT01	10.4	SCS215a	20100521.121658	20100521.123232	8	0.013328	60	10	60-180	60	162	GapExp	0	148	2	4	1	target	1	480	760	22589	13.328	13.205	13.418
ProbeTrackDT01	8	ProbeTrackDT01	10.4	SCS215a	20100521.121658	20100521.123238	8	0.013328	60	10	60-180	60	147	GapExp	0	149	2	75	0	target	0	454	-1000	21589	13.328	13.230	13.425
ProbeTrackDT01	8	ProbeTrackDT01	10.4	SCS215a	20100521.121658	20100521.123245	8	0.013328	60	10	60-180	60	168	GapExp	0	150	2	0	0	target	0	627	-1000	20589	13.328	13.293	13.364
ProbeTrackDT01	8	ProbeTrackDT01	10.4	SCS215a	20100521.121658	20100521.123257	8	0.013328	60	10	60-180	60	143	GapExp	0	151	2	2	0	target	0	267	-1000	19589	13.328	13.293	13.363
ProbeTrackDT01	8	ProbeTrackDT01	10.4	SCS215a	20100521.121658	20100521.123302	8	0.013328	60	10	60-180	60	123	GapExp	0	152	2	75	1	target	1	720	640	20229	13.328	13.293	13.363
ProbeTrackDT01	8	ProbeTrackDT01	10.4	SCS215a	20100521.121658	20100521.123309	8	0.013328	60	10	60-180	60	75	GapExp	0	153	2	4	1	target	1	1386	307	20536	13.328	13.122	13.499
ProbeTrackDT01	8	ProbeTrackDT01	10.4	SCS215a	20100521.121658	20100521.123315	8	0.013328	60	10	60-180	60	116	GapExp	0	154	2	2	0	target	0	707	-1000	19536	13.431	13.195	26.653
ProbeTrackDT01	8	ProbeTrackDT01	10.4	SCS215a	20100521.121658	20100521.123321	8	0.013328	60	10	60-180	60	175	GapExp	0	155	2	1	0	distractor	1	547	727	20263	13.372	13.217	26.738
ProbeTrackDT01	8	ProbeTrackDT01	10.4	SCS215a	20100521.121658	20100521.123327	8	0.013328	60	10	60-180	60	96	GapExp	0	156	2	0	0	distractor	1	587	707	20970	13.328	13.003	13.687
ProbeTrackDT01	8	ProbeTrackDT01	10.4	SCS215a	20100521.121658	20100521.123332	8	0.013328	60	10	60-180	60	133	GapExp	0	157	2	4	1	target	1	813	594	21564	13.328	13.289	13.365
ProbeTrackDT01	8	ProbeTrackDT01	10.4	SCS215a	20100521.121658	20100521.123339	8	0.013328	60	10	60-180	60	111	GapExp	0	158	2	1	0	distractor	1	880	560	22124	13.328	13.293	13.363
ProbeTrackDT01	8	ProbeTrackDT01	10.4	SCS215a	20100521.121658	20100521.123344	8	0.013328	60	10	60-180	60	75	GapExp	0	159	2	2	0	distractor	1	840	580	22704	13.328	13.291	13.363
ProbeTrackDT01	8	ProbeTrackDT01	10.4	SCS215a	20100521.121658	20100521.123350	8	0.013328	60	10	60-180	60	92	GapExp	0	160	2	4	1	target	1	707	647	23351	13.384	12.825	27.192
ProbeTrackDT01	8	ProbeTrackDT01	10.4	SCS215a	20100521.121658	20100521.123355	8	0.013328	60	10	60-180	60	71	GapExp	0	161	2	2	1	distractor	0	574	-1000	22351	13.328	13.293	13.363
ProbeTrackDT01	8	ProbeTrackDT01	10.4	SCS215a	20100521.121658	20100521.123400	8	0.013328	60	10	60-180	60	161	GapExp	0	162	2	2	0	distractor	1	747	627	22978	13.328	13.289	13.363
ProbeTrackDT01	8	ProbeTrackDT01	10.4	SCS215a	20100521.121658	20100521.123406	8	0.013328	60	10	60-180	60	179	GapExp	0	163	2	4	1	target	1	547	727	23705	13.328	13.293	13.363
ProbeTrackDT01	8	ProbeTrackDT01	10.4	SCS215a	20100521.121658	20100521.123413	8	0.013328	60	10	60-180	60	120	GapExp	0	164	2	75	0	target	0	534	-1000	22705	13.328	13.198	13.424
ProbeTrackDT01	8	ProbeTrackDT01	10.4	SCS215a	20100521.121658	20100521.123419	8	0.013328	60	10	60-180	60	121	GapExp	0	165	2	0	1	target	1	573	714	23419	13.328	13.124	13.565
ProbeTrackDT01	8	ProbeTrackDT01	10.4	SCS215a	20100521.121658	20100521.123425	8	0.013328	60	10	60-180	60	61	GapExp	0	166	2	0	1	target	1	534	733	24152	13.328	13.065	13.591
ProbeTrackDT01	8	ProbeTrackDT01	10.4	SCS215a	20100521.121658	20100521.123430	8	0.013328	60	10	60-180	60	115	GapExp	0	167	2	75	1	target	1	440	780	24932	13.328	13.293	13.363
ProbeTrackDT01	8	ProbeTrackDT01	10.4	SCS215a	20100521.121658	20100521.123436	8	0.013328	60	10	60-180	60	94	GapExp	0	168	2	0	1	target	1	733	634	25566	13.328	13.293	13.363
ProbeTrackDT01	8	ProbeTrackDT01	10.4	SCS215a	20100521.121658	20100521.123441	8	0.013328	60	10	60-180	60	104	GapExp	0	169	2	0	1	target	1	1680	160	25726	13.328	13.293	13.364
ProbeTrackDT01	8	ProbeTrackDT01	10.4	SCS215a	20100521.121658	20100521.123448	8	0.013328	60	10	60-180	60	105	GapExp	0	170	2	1	0	target	0	600	-1000	24726	13.328	13.293	13.363
ProbeTrackDT01	8	ProbeTrackDT01	10.4	SCS215a	20100521.121658	20100521.123453	8	0.013328	60	10	60-180	60	128	GapExp	0	171	2	4	0	distractor	1	547	727	25453	13.328	13.293	13.363
ProbeTrackDT01	8	ProbeTrackDT01	10.4	SCS215a	20100521.121658	20100521.123459	8	0.013328	60	10	60-180	60	114	GapExp	0	172	2	75	0	distractor	1	694	653	26106	13.328	13.260	13.430
ProbeTrackDT01	8	ProbeTrackDT01	10.4	SCS215a	20100521.121658	20100521.123506	8	0.013328	60	10	60-180	60	101	GapExp	0	173	2	0	0	distractor	1	613	694	26800	13.328	13.293	13.363
ProbeTrackDT01	8	ProbeTrackDT01	10.4	SCS215a	20100521.121658	20100521.123511	8	0.013328	60	10	60-180	60	102	GapExp	0	174	2	2	0	target	0	627	-1000	25800	13.328	13.201	13.456
ProbeTrackDT01	8	ProbeTrackDT01	10.4	SCS215a	20100521.121658	20100521.123517	8	0.013328	60	10	60-180	60	175	GapExp	0	175	2	1	1	target	1	480	760	26560	13.328	13.213	13.418
ProbeTrackDT01	8	ProbeTrackDT01	10.4	SCS215a	20100521.121658	20100521.123523	8	0.013328	60	10	60-180	60	174	GapExp	0	176	2	2	1	target	1	454	773	27333	13.328	13.293	13.363
ProbeTrackDT01	8	ProbeTrackDT01	10.4	SCS215a	20100521.121658	20100521.123529	8	0.013328	60	10	60-180	60	116	GapExp	0	177	2	2	1	target	1	640	680	28013	13.328	13.113	13.510
ProbeTrackDT01	8	ProbeTrackDT01	10.4	SCS215a	20100521.121658	20100521.123535	8	0.013328	60	10	60-180	60	83	GapExp	0	178	2	0	1	target	1	653	674	28687	13.389	13.094	26.915
ProbeTrackDT01	8	ProbeTrackDT01	10.4	SCS215a	20100521.121658	20100521.123540	8	0.013328	60	10	60-180	60	101	GapExp	0	179	2	2	1	target	1	480	760	29447	13.328	13.150	13.540
ProbeTrackDT01	8	ProbeTrackDT01	10.4	SCS215a	20100521.121658	20100521.123545	8	0.013328	60	10	60-180	60	69	GapExp	0	180	2	2	0	distractor	1	613	694	30141	13.328	13.293	13.363
ProbeTrackDT01	8	ProbeTrackDT01	10.4	SCS215a	20100521.121658	20100521.123550	8	0.013328	60	10	60-180	60	161	GapExp	0	181	2	2	1	target	1	573	714	30855	13.328	12.961	13.693
ProbeTrackDT01	8	ProbeTrackDT01	10.4	SCS215a	20100521.121658	20100521.123556	8	0.013328	60	10	60-180	60	180	GapExp	0	182	2	0	0	distractor	1	614	693	31548	13.328	13.164	13.458
ProbeTrackDT01	8	ProbeTrackDT01	10.4	SCS215a	20100521.121658	20100521.123603	8	0.013328	60	10	60-180	60	113	GapExp	0	183	2	2	1	target	1	760	620	32168	13.328	13.293	13.363
ProbeTrackDT01	8	ProbeTrackDT01	10.4	SCS215a	20100521.121658	20100521.123608	8	0.013328	60	10	60-180	60	161	GapExp	0	184	2	0	1	target	1	600	700	32868	13.328	13.152	13.470
ProbeTrackDT01	8	ProbeTrackDT01	10.4	SCS215a	20100521.121658	20100521.123615	8	0.013328	60	10	60-180	60	174	GapExp	0	185	2	75	1	target	1	414	793	33661	13.328	13.293	13.363
ProbeTrackDT01	8	ProbeTrackDT01	10.4	SCS215a	20100521.121658	20100521.123622	8	0.013328	60	10	60-180	60	119	GapExp	0	186	2	2	1	target	1	640	680	34341	13.328	13.191	13.497
ProbeTrackDT01	8	ProbeTrackDT01	10.4	SCS215a	20100521.121658	20100521.123627	8	0.013328	60	10	60-180	60	67	GapExp	0	187	2	2	1	target	1	400	800	35141	13.328	13.293	13.363
ProbeTrackDT01	8	ProbeTrackDT01	10.4	SCS215a	20100521.121658	20100521.123632	8	0.013328	60	10	60-180	60	115	GapExp	0	188	2	4	1	target	1	613	694	35835	13.328	13.293	13.363
ProbeTrackDT01	8	ProbeTrackDT01	10.4	SCS215a	20100521.121658	20100521.123638	8	0.013328	60	10	60-180	60	69	GapExp	0	189	2	4	0	distractor	1	747	627	36462	13.328	13.106	13.583
ProbeTrackDT01	8	ProbeTrackDT01	10.4	SCS215a	20100521.121658	20100521.123643	8	0.013328	60	10	60-180	60	99	GapExp	0	190	2	4	1	distractor	0	760	-1000	35462	13.328	13.293	13.363
ProbeTrackDT01	8	ProbeTrackDT01	10.4	SCS215a	20100521.121658	20100521.123648	8	0.013328	60	10	60-180	60	126	GapExp	0	191	2	2	0	distractor	1	507	747	36209	13.328	13.233	13.388
ProbeTrackDT01	8	ProbeTrackDT01	10.4	SCS215a	20100521.121658	20100521.123654	8	0.013328	60	10	60-180	60	110	GapExp	0	192	2	0	0	target	0	867	-1000	35209	13.328	13.292	13.365
ProbeTrackDT01	8	ProbeTrackDT01	10.4	SCS215a	20100521.121658	20100521.123700	8	0.013328	60	10	60-180	60	130	GapExp	0	193	2	4	1	target	1	467	767	35976	13.328	13.290	13.362
ProbeTrackDT01	8	ProbeTrackDT01	10.4	SCS215a	20100521.121658	20100521.123705	8	0.013328	60	10	60-180	60	90	GapExp	0	194	2	0	1	target	1	400	800	36776	13.328	13.128	13.563
ProbeTrackDT01	8	ProbeTrackDT01	10.4	SCS215a	20100521.121658	20100521.123710	8	0.013328	60	10	60-180	60	95	GapExp	0	195	2	1	0	distractor	1	480	760	37536	13.328	13.289	13.365
ProbeTrackDT01	8	ProbeTrackDT01	10.4	SCS215a	20100521.121658	20100521.123716	8	0.013328	60	10	60-180	60	78	GapExp	0	196	2	0	0	distractor	1	667	667	38203	13.328	13.293	13.365
ProbeTrackDT01	8	ProbeTrackDT01	10.4	SCS215a	20100521.121658	20100521.123721	8	0.013328	60	10	60-180	60	96	GapExp	0	197	2	0	1	target	1	400	800	39003	13.328	13.204	13.419
ProbeTrackDT01	8	ProbeTrackDT01	10.4	SCS215a	20100521.121658	20100521.123726	8	0.013328	60	10	60-180	60	136	GapExp	0	198	2	4	0	distractor	1	560	720	39723	13.328	13.293	13.363
ProbeTrackDT01	8	ProbeTrackDT01	10.4	SCS215a	20100521.121658	20100521.123732	8	0.013328	60	10	60-180	60	168	GapExp	0	199	2	75	0	distractor	1	533	734	40457	13.364	13.093	26.632
ProbeTrackDT01	8	ProbeTrackDT01	10.4	SCS215a	20100521.121658	20100521.123739	8	0.013328	60	10	60-180	60	124	GapExp	0	200	2	1	1	distractor	0	813	-1000	39457	13.328	13.293	13.364
ProbeTrackDT01	8	ProbeTrackDT01	10.4	SCS215a	20100521.121658	20100521.123751	8	0.013328	60	10	60-180	60	65	GapExp	0	201	2	0	1	distractor	0	947	-1000	38457	13.328	13.293	13.363
ProbeTrackDT01	8	ProbeTrackDT01	10.4	SCS215a	20100521.121658	20100521.123756	8	0.013328	60	10	60-180	60	165	GapExp	0	202	2	2	0	distractor	1	600	700	39157	13.328	13.080	13.542
ProbeTrackDT01	8	ProbeTrackDT01	10.4	SCS215a	20100521.121658	20100521.123803	8	0.013328	60	10	60-180	60	112	GapExp	0	203	2	1	1	target	1	387	807	39964	13.328	13.215	13.441
ProbeTrackDT01	8	ProbeTrackDT01	10.4	SCS215a	20100521.121658	20100521.123808	8	0.013328	60	10	60-180	60	167	GapExp	0	204	2	4	1	target	1	374	813	40777	13.328	13.204	13.453
ProbeTrackDT01	8	ProbeTrackDT01	10.4	SCS215a	20100521.121658	20100521.123814	8	0.013328	60	10	60-180	60	95	GapExp	0	205	2	2	0	distractor	1	520	740	41517	13.388	13.292	26.565
ProbeTrackDT01	8	ProbeTrackDT01	10.4	SCS215a	20100521.121658	20100521.123819	8	0.013328	60	10	60-180	60	153	GapExp	0	206	2	0	0	distractor	1	480	760	42277	13.328	12.918	13.737
ProbeTrackDT01	8	ProbeTrackDT01	10.4	SCS215a	20100521.121658	20100521.123825	8	0.013328	60	10	60-180	60	131	GapExp	0	207	2	2	1	target	1	467	767	43044	13.328	13.260	13.428
ProbeTrackDT01	8	ProbeTrackDT01	10.4	SCS215a	20100521.121658	20100521.123831	8	0.013328	60	10	60-180	60	98	GapExp	0	208	2	2	0	distractor	1	547	727	43771	13.328	13.122	13.568
ProbeTrackDT01	8	ProbeTrackDT01	10.4	SCS215a	20100521.121658	20100521.123836	8	0.013328	60	10	60-180	60	161	GapExp	0	209	2	2	0	distractor	1	494	753	44524	13.328	13.198	13.456
ProbeTrackDT01	8	ProbeTrackDT01	10.4	SCS215a	20100521.121658	20100521.123842	8	0.013328	60	10	60-180	60	114	GapExp	0	210	2	2	0	target	0	494	-1000	43524	13.328	12.946	13.740
