exp	sub	code	rev	comp	runtime	trialtime	nstim	refreshdur	cuedur	gapdur	gapOnsetRange	durPostProbe	gapOnsetTime	blocktype	prac	trial	ntargets	soa	probeTarget	resp	acc	rt	pts	tpts	meanFrameDur	minFrameDur	maxFrameDur
ProbeTrackDT01	29	ProbeTrack	10.4	SCS215a	20100715.125913	20100715.125924	8	0.013328	60	0	60-180	60	171	NoGap	1	1	2	4	0	distractor	1	1333	334	334	13.328	13.293	13.363
ProbeTrackDT01	29	ProbeTrack	10.4	SCS215a	20100715.125913	20100715.125931	8	0.013328	60	0	60-180	60	80	NoGap	1	2	2	1	1	target	1	960	520	854	13.389	12.837	27.180
ProbeTrackDT01	29	ProbeTrack	10.4	SCS215a	20100715.125913	20100715.125936	8	0.013328	60	0	60-180	60	146	NoGap	1	3	2	1	0	distractor	1	933	534	1388	13.375	13.256	26.624
ProbeTrackDT01	29	ProbeTrack	10.4	SCS215a	20100715.125913	20100715.125942	8	0.013328	60	0	60-180	60	159	NoGap	1	4	2	4	1	target	1	1040	480	1868	13.372	12.905	26.652
ProbeTrackDT01	29	ProbeTrack	10.4	SCS215a	20100715.125913	20100715.125948	8	0.013328	60	0	60-180	60	115	NoGap	1	5	2	75	0	distractor	1	720	640	2508	13.328	13.094	13.528
ProbeTrackDT01	29	ProbeTrack	10.4	SCS215a	20100715.125913	20100715.125955	8	0.013328	60	0	60-180	60	78	NoGap	1	6	2	2	1	distractor	0	600	-1000	1508	13.328	13.293	13.367
ProbeTrackDT01	29	ProbeTrack	10.4	SCS215a	20100715.125913	20100715.130000	8	0.013328	60	0	60-180	60	157	NoGap	1	7	2	0	1	target	1	640	680	2188	13.328	13.127	13.527
ProbeTrackDT01	29	ProbeTrack	10.4	SCS215a	20100715.125913	20100715.130006	8	0.013328	60	0	60-180	60	117	NoGap	1	8	2	1	0	distractor	1	920	540	2728	13.328	12.868	13.791
ProbeTrackDT01	29	ProbeTrack	10.4	SCS215a	20100715.125913	20100715.130012	8	0.013328	60	0	60-180	60	124	NoGap	1	9	2	4	0	distractor	1	587	707	3435	13.328	13.229	13.426
ProbeTrackDT01	29	ProbeTrack	10.4	SCS215a	20100715.125913	20100715.130017	8	0.013328	60	0	60-180	60	135	NoGap	1	10	2	1	1	target	1	520	740	4175	13.328	13.293	13.363
ProbeTrackDT01	29	ProbeTrack	10.4	SCS215a	20100715.125913	20100715.130023	8	0.013328	60	0	60-180	60	64	NoGap	1	11	2	0	1	target	1	507	747	4922	13.328	13.185	13.469
ProbeTrackDT01	29	ProbeTrack	10.4	SCS215a	20100715.125913	20100715.130027	8	0.013328	60	0	60-180	60	122	NoGap	1	12	2	0	0	distractor	1	454	773	5695	13.328	13.278	13.363
ProbeTrackDT01	29	ProbeTrack	10.4	SCS215a	20100715.125913	20100715.130033	8	0.013328	60	0	60-180	60	106	NoGap	1	13	2	4	0	distractor	1	507	747	6442	13.328	13.293	13.363
ProbeTrackDT01	29	ProbeTrack	10.4	SCS215a	20100715.125913	20100715.130038	8	0.013328	60	0	60-180	60	130	NoGap	1	14	2	4	1	target	1	560	720	7162	13.328	13.139	13.485
ProbeTrackDT01	29	ProbeTrack	10.4	SCS215a	20100715.125913	20100715.130043	8	0.013328	60	0	60-180	60	85	NoGap	1	15	2	2	0	distractor	1	534	733	7895	13.328	13.006	13.649
ProbeTrackDT01	29	ProbeTrack	10.4	SCS215a	20100715.125913	20100715.130048	8	0.013328	60	0	60-180	60	145	NoGap	1	16	2	2	1	target	1	480	760	8655	13.328	12.951	13.670
ProbeTrackDT01	29	ProbeTrack	10.4	SCS215a	20100715.125913	20100715.130054	8	0.013328	60	0	60-180	60	171	NoGap	1	17	2	4	1	target	1	587	707	9362	13.328	13.272	13.417
ProbeTrackDT01	29	ProbeTrack	10.4	SCS215a	20100715.125913	20100715.130100	8	0.013328	60	0	60-180	60	145	NoGap	1	18	2	1	0	distractor	1	615	693	10055	13.427	13.293	27.124
ProbeTrackDT01	29	ProbeTrack	10.4	SCS215a	20100715.125913	20100715.130106	8	0.013328	60	0	60-180	60	170	NoGap	1	19	2	75	1	target	1	680	660	10715	13.363	13.293	26.622
ProbeTrackDT01	29	ProbeTrack	10.4	SCS215a	20100715.125913	20100715.130113	8	0.013328	60	0	60-180	60	75	NoGap	1	20	2	75	0	distractor	1	400	800	11515	13.328	13.281	13.374
ProbeTrackDT01	29	ProbeTrack	10.4	SCS215a	20100715.125913	20100715.130119	8	0.013328	60	0	60-180	60	89	NoGap	1	21	2	0	1	target	1	733	634	12149	13.328	13.024	13.632
ProbeTrackDT01	29	ProbeTrack	10.4	SCS215a	20100715.125913	20100715.130124	8	0.013328	60	0	60-180	60	147	NoGap	1	22	2	1	0	distractor	1	600	700	12849	13.328	13.291	13.363
ProbeTrackDT01	29	ProbeTrack	10.4	SCS215a	20100715.125913	20100715.130130	8	0.013328	60	0	60-180	60	156	NoGap	1	23	2	75	0	distractor	1	507	747	13596	13.328	13.293	13.363
ProbeTrackDT01	29	ProbeTrack	10.4	SCS215a	20100715.125913	20100715.130137	8	0.013328	60	0	60-180	60	137	NoGap	1	24	2	75	1	target	1	574	713	14309	13.328	13.271	13.385
ProbeTrackDT01	29	ProbeTrack	10.4	SCS215a	20100715.125913	20100715.130143	8	0.013328	60	0	60-180	60	75	NoGap	1	25	2	0	0	distractor	1	680	660	14969	13.328	13.293	13.363
ProbeTrackDT01	29	ProbeTrack	10.4	SCS215a	20100715.125913	20100715.130148	8	0.013328	60	0	60-180	60	124	NoGap	1	26	2	1	1	target	1	640	680	15649	13.328	13.144	13.546
ProbeTrackDT01	29	ProbeTrack	10.4	SCS215a	20100715.125913	20100715.130154	8	0.013328	60	0	60-180	60	104	NoGap	1	27	2	75	1	target	1	614	693	16342	13.328	13.243	13.378
ProbeTrackDT01	29	ProbeTrack	10.4	SCS215a	20100715.125913	20100715.130200	8	0.013328	60	0	60-180	60	169	NoGap	1	28	2	75	0	distractor	1	614	693	17035	13.328	13.292	13.364
ProbeTrackDT01	29	ProbeTrack	10.4	SCS215a	20100715.125913	20100715.130207	8	0.013328	60	0	60-180	60	82	NoGap	1	29	2	0	0	distractor	1	654	673	17708	13.328	13.279	13.377
ProbeTrackDT01	29	ProbeTrack	10.4	SCS215a	20100715.125913	20100715.130212	8	0.013328	60	0	60-180	60	168	NoGap	1	30	2	2	0	distractor	1	574	713	18421	13.328	13.292	13.364
ProbeTrackDT01	29	ProbeTrack	10.4	SCS215a	20100715.125913	20100715.130218	8	0.013328	60	0	60-180	60	140	NoGap	1	31	2	4	1	target	1	534	733	19154	13.379	13.293	26.688
ProbeTrackDT01	29	ProbeTrack	10.4	SCS215a	20100715.125913	20100715.130224	8	0.013328	60	0	60-180	60	82	NoGap	1	32	2	1	1	target	1	640	680	19834	13.392	13.170	26.632
ProbeTrackDT01	29	ProbeTrack	10.4	SCS215a	20100715.125913	20100715.130229	8	0.013328	60	0	60-180	60	160	NoGap	1	33	2	0	1	target	1	467	767	20601	13.328	13.173	13.482
ProbeTrackDT01	29	ProbeTrack	10.4	SCS215a	20100715.125913	20100715.130235	8	0.013328	60	0	60-180	60	175	NoGap	1	34	2	2	0	distractor	1	547	727	21328	13.328	13.127	13.561
ProbeTrackDT01	29	ProbeTrack	10.4	SCS215a	20100715.125913	20100715.130241	8	0.013328	60	0	60-180	60	75	NoGap	1	35	2	2	1	target	1	733	634	21962	13.328	13.125	13.531
ProbeTrackDT01	29	ProbeTrack	10.4	SCS215a	20100715.125913	20100715.130246	8	0.013328	60	0	60-180	60	123	NoGap	1	36	2	0	0	distractor	1	600	700	22662	13.328	12.989	13.666
ProbeTrackDT01	29	ProbeTrack	10.4	SCS215a	20100715.125913	20100715.130251	8	0.013328	60	0	60-180	60	120	NoGap	1	37	2	2	0	distractor	1	813	594	23256	13.328	13.247	13.409
ProbeTrackDT01	29	ProbeTrack	10.4	SCS215a	20100715.125913	20100715.130257	8	0.013328	60	0	60-180	60	160	NoGap	1	38	2	4	0	distractor	1	627	687	23943	13.328	13.047	13.608
ProbeTrackDT01	29	ProbeTrack	10.4	SCS215a	20100715.125913	20100715.130303	8	0.013328	60	0	60-180	60	123	NoGap	1	39	2	2	1	target	1	480	760	24703	13.328	13.286	13.370
ProbeTrackDT01	29	ProbeTrack	10.4	SCS215a	20100715.125913	20100715.130308	8	0.013328	60	0	60-180	60	144	NoGap	1	40	2	75	1	target	1	733	634	25337	13.366	12.969	27.014
ProbeTrackDT01	29	ProbeTrack	10.4	SCS215a	20100715.130402	20100715.130410	8	0.013328	60	10	60-180	60	64	GapPrac	1	1	2	1	1	distractor	0	2306	-1000	24337	13.328	12.982	13.707
ProbeTrackDT01	29	ProbeTrack	10.4	SCS215a	20100715.130402	20100715.130417	8	0.013328	60	10	60-180	60	78	GapPrac	1	2	2	0	0	distractor	1	1440	280	24617	13.328	13.054	13.601
ProbeTrackDT01	29	ProbeTrack	10.4	SCS215a	20100715.130402	20100715.130423	8	0.013328	60	10	60-180	60	139	GapPrac	1	3	2	1	0	distractor	1	760	620	25237	13.468	13.076	53.344
ProbeTrackDT01	29	ProbeTrack	10.4	SCS215a	20100715.130402	20100715.130429	8	0.013328	60	10	60-180	60	177	GapPrac	1	4	2	75	1	target	1	867	567	25804	13.395	13.219	40.091
ProbeTrackDT01	29	ProbeTrack	10.4	SCS215a	20100715.130402	20100715.130437	8	0.013328	60	10	60-180	60	79	GapPrac	1	5	2	0	1	target	1	734	633	26437	13.328	13.032	13.624
ProbeTrackDT01	29	ProbeTrack	10.4	SCS215a	20100715.130402	20100715.130442	8	0.013328	60	10	60-180	60	111	GapPrac	1	6	2	2	0	target	0	667	-1000	25437	13.328	12.991	13.665
ProbeTrackDT01	29	ProbeTrack	10.4	SCS215a	20100715.130402	20100715.130447	8	0.013328	60	10	60-180	60	156	GapPrac	1	7	2	75	1	target	1	800	600	26037	13.540	13.204	79.994
ProbeTrackDT01	29	ProbeTrack	10.4	SCS215a	20100715.130402	20100715.130455	8	0.013328	60	10	60-180	60	178	GapPrac	1	8	2	0	1	target	1	733	634	26671	13.328	13.105	13.550
ProbeTrackDT01	29	ProbeTrack	10.4	SCS215a	20100715.130402	20100715.130501	8	0.013328	60	10	60-180	60	134	GapPrac	1	9	2	2	1	target	1	654	673	27344	13.328	13.293	13.379
ProbeTrackDT01	29	ProbeTrack	10.4	SCS215a	20100715.130402	20100715.130507	8	0.013328	60	10	60-180	60	111	GapPrac	1	10	2	0	0	target	0	640	-1000	26344	13.328	13.276	13.363
ProbeTrackDT01	29	ProbeTrack	10.4	SCS215a	20100715.130402	20100715.130513	8	0.013328	60	10	60-180	60	111	GapPrac	1	11	2	1	0	distractor	1	893	554	26898	13.328	12.943	13.713
ProbeTrackDT01	29	ProbeTrack	10.4	SCS215a	20100715.130402	20100715.130518	8	0.013328	60	10	60-180	60	108	GapPrac	1	12	2	2	0	target	0	920	-1000	25898	13.380	13.293	26.499
ProbeTrackDT01	29	ProbeTrack	10.4	SCS215a	20100715.130402	20100715.130524	8	0.013328	60	10	60-180	60	177	GapPrac	1	13	2	4	1	target	1	667	667	26565	13.328	13.059	13.597
ProbeTrackDT01	29	ProbeTrack	10.4	SCS215a	20100715.130402	20100715.130531	8	0.013328	60	10	60-180	60	115	GapPrac	1	14	2	75	0	distractor	1	800	600	27165	13.328	12.990	13.699
ProbeTrackDT01	29	ProbeTrack	10.4	SCS215a	20100715.130402	20100715.130537	8	0.013328	60	10	60-180	60	86	GapPrac	1	15	2	4	0	distractor	1	920	540	27705	13.328	13.081	13.574
ProbeTrackDT01	29	ProbeTrack	10.4	SCS215a	20100715.130402	20100715.130543	8	0.013328	60	10	60-180	60	178	GapPrac	1	16	2	4	1	target	1	600	700	28405	13.328	13.046	13.608
ProbeTrackDT01	29	ProbeTrack	10.4	SCS215a	20100715.130402	20100715.130549	8	0.013328	60	10	60-180	60	128	GapPrac	1	17	2	2	1	target	1	440	780	29185	13.328	13.288	13.366
ProbeTrackDT01	29	ProbeTrack	10.4	SCS215a	20100715.130402	20100715.130555	8	0.013328	60	10	60-180	60	102	GapPrac	1	18	2	75	0	distractor	1	534	733	29918	13.328	13.001	13.654
ProbeTrackDT01	29	ProbeTrack	10.4	SCS215a	20100715.130402	20100715.130601	8	0.013328	60	10	60-180	60	162	GapPrac	1	19	2	1	1	target	1	534	733	30651	13.328	13.089	13.554
ProbeTrackDT01	29	ProbeTrack	10.4	SCS215a	20100715.130402	20100715.130607	8	0.013328	60	10	60-180	60	147	GapPrac	1	20	2	4	0	distractor	1	773	614	31265	13.328	13.070	13.619
ProbeTrackDT01	29	ProbeTrack	10.4	SCS215a	20100715.130936	20100715.130940	8	0.013328	60	10	60-180	60	163	GapPrac	1	1	2	4	0	distractor	1	733	634	31899	13.328	12.985	13.670
ProbeTrackDT01	29	ProbeTrack	10.4	SCS215a	20100715.130936	20100715.130946	8	0.013328	60	10	60-180	60	94	GapPrac	1	2	2	75	0	distractor	1	640	680	32579	13.328	13.014	13.676
ProbeTrackDT01	29	ProbeTrack	10.4	SCS215a	20100715.130936	20100715.130953	8	0.013328	60	10	60-180	60	167	GapPrac	1	3	2	1	1	distractor	0	2679	-1000	31579	13.328	13.293	13.363
ProbeTrackDT01	29	ProbeTrack	10.4	SCS215a	20100715.130936	20100715.131001	8	0.013328	60	10	60-180	60	144	GapPrac	1	4	2	75	1	target	1	520	740	32319	13.328	12.938	13.686
ProbeTrackDT01	29	ProbeTrack	10.4	SCS215a	20100715.130936	20100715.131008	8	0.013328	60	10	60-180	60	64	GapPrac	1	5	2	0	1	target	1	587	707	33026	13.328	13.293	13.363
ProbeTrackDT01	29	ProbeTrack	10.4	SCS215a	20100715.130936	20100715.131013	8	0.013328	60	10	60-180	60	152	GapPrac	1	6	2	75	1	distractor	0	1133	-1000	32026	13.364	13.293	26.688
ProbeTrackDT01	29	ProbeTrack	10.4	SCS215a	20100715.130936	20100715.131020	8	0.013328	60	10	60-180	60	170	GapPrac	1	7	2	0	1	distractor	0	560	-1000	31026	13.328	13.183	13.505
ProbeTrackDT01	29	ProbeTrack	10.4	SCS215a	20100715.130936	20100715.131026	8	0.013328	60	10	60-180	60	63	GapPrac	1	8	2	4	1	target	1	587	707	31733	13.328	13.293	13.363
ProbeTrackDT01	29	ProbeTrack	10.4	SCS215a	20100715.130936	20100715.131031	8	0.013328	60	10	60-180	60	86	GapPrac	1	9	2	4	0	distractor	1	1693	154	31887	13.328	13.293	13.363
ProbeTrackDT01	29	ProbeTrack	10.4	SCS215a	20100715.130936	20100715.131037	8	0.013328	60	10	60-180	60	76	GapPrac	1	10	2	1	0	distractor	1	840	580	32467	13.328	13.293	13.363
ProbeTrackDT01	29	ProbeTrack	10.4	SCS215a	20100715.130936	20100715.131043	8	0.013328	60	10	60-180	60	136	GapPrac	1	11	2	2	1	target	1	507	747	33214	13.328	13.090	13.567
ProbeTrackDT01	29	ProbeTrack	10.4	SCS215a	20100715.130936	20100715.131048	8	0.013328	60	10	60-180	60	140	GapPrac	1	12	2	75	0	distractor	1	507	747	33961	13.328	13.293	13.363
ProbeTrackDT01	29	ProbeTrack	10.4	SCS215a	20100715.130936	20100715.131055	8	0.013328	60	10	60-180	60	106	GapPrac	1	13	2	4	1	target	1	1000	500	34461	13.328	12.939	13.716
ProbeTrackDT01	29	ProbeTrack	10.4	SCS215a	20100715.130936	20100715.131101	8	0.013328	60	10	60-180	60	135	GapPrac	1	14	2	2	0	distractor	1	840	580	35041	13.328	13.288	13.368
ProbeTrackDT01	29	ProbeTrack	10.4	SCS215a	20100715.130936	20100715.131107	8	0.013328	60	10	60-180	60	102	GapPrac	1	15	2	2	0	distractor	1	987	507	35548	13.328	13.121	13.534
ProbeTrackDT01	29	ProbeTrack	10.4	SCS215a	20100715.130936	20100715.131113	8	0.013328	60	10	60-180	60	180	GapPrac	1	16	2	2	1	target	1	1360	320	35868	13.368	13.289	26.655
ProbeTrackDT01	29	ProbeTrack	10.4	SCS215a	20100715.130936	20100715.131120	8	0.013328	60	10	60-180	60	152	GapPrac	1	17	2	1	0	target	0	2613	-1000	34868	13.328	13.293	13.363
ProbeTrackDT01	29	ProbeTrack	10.4	SCS215a	20100715.130936	20100715.131128	8	0.013328	60	10	60-180	60	107	GapPrac	1	18	2	0	0	target	0	747	-1000	33868	13.381	13.158	26.655
ProbeTrackDT01	29	ProbeTrack	10.4	SCS215a	20100715.130936	20100715.131134	8	0.013328	60	10	60-180	60	97	GapPrac	1	19	2	1	1	target	1	773	614	34482	13.383	13.293	26.689
ProbeTrackDT01	29	ProbeTrack	10.4	SCS215a	20100715.130936	20100715.131139	8	0.013328	60	10	60-180	60	83	GapPrac	1	20	2	0	0	distractor	1	707	647	35129	13.328	12.937	13.718
ProbeTrackDT01	29	ProbeTrack	10.4	SCS215a	20100715.131257	20100715.131301	8	0.013328	60	10	60-180	60	102	GapExp	1	1	2	2	0	distractor	1	614	693	35822	13.328	13.163	13.491
ProbeTrackDT01	29	ProbeTrack	10.4	SCS215a	20100715.131257	20100715.131307	8	0.013328	60	10	60-180	60	80	GapExp	1	2	2	1	0	distractor	1	813	594	36416	13.328	13.248	13.416
ProbeTrackDT01	29	ProbeTrack	10.4	SCS215a	20100715.131257	20100715.131312	8	0.013328	60	10	60-180	60	70	GapExp	1	3	2	75	0	distractor	1	547	727	37143	13.328	13.094	13.560
ProbeTrackDT01	29	ProbeTrack	10.4	SCS215a	20100715.131257	20100715.131318	8	0.013328	60	10	60-180	60	111	GapExp	1	4	2	0	1	target	1	680	660	37803	13.328	13.293	13.363
ProbeTrackDT01	29	ProbeTrack	10.4	SCS215a	20100715.131257	20100715.131323	8	0.013328	60	10	60-180	60	176	GapExp	1	5	2	2	1	target	1	613	694	38497	13.328	13.221	13.433
ProbeTrackDT01	29	ProbeTrack	10.4	SCS215a	20100715.131257	20100715.131329	8	0.013328	60	10	60-180	60	157	GapExp	1	6	2	4	1	distractor	0	614	-1000	37497	13.328	13.293	13.363
ProbeTrackDT01	29	ProbeTrack	10.4	SCS215a	20100715.131257	20100715.131336	8	0.013328	60	10	60-180	60	107	GapExp	1	7	2	4	0	target	0	1493	-1000	36497	13.328	13.252	13.403
ProbeTrackDT01	29	ProbeTrack	10.4	SCS215a	20100715.131257	20100715.131342	8	0.013328	60	10	60-180	60	127	GapExp	1	8	2	1	1	target	1	680	660	37157	13.328	13.207	13.449
ProbeTrackDT01	29	ProbeTrack	10.4	SCS215a	20100715.131257	20100715.131348	8	0.013328	60	10	60-180	60	119	GapExp	1	9	2	0	0	distractor	1	800	600	37757	13.328	13.230	13.425
ProbeTrackDT01	29	ProbeTrack	10.4	SCS215a	20100715.131257	20100715.131353	8	0.013328	60	10	60-180	60	73	GapExp	1	10	2	75	1	target	1	760	620	38377	13.373	13.082	26.551
ProbeTrackDT01	29	ProbeTrack	10.4	SCS215a	20100715.131257	20100715.131400	8	0.013328	60	10	60-180	60	108	GapExp	0	11	2	2	1	distractor	0	880	-1000	37377	13.328	13.182	13.441
ProbeTrackDT01	29	ProbeTrack	10.4	SCS215a	20100715.131257	20100715.131405	8	0.013328	60	10	60-180	60	115	GapExp	0	12	2	1	0	target	0	4265	-1000	36377	13.328	13.167	13.489
ProbeTrackDT01	29	ProbeTrack	10.4	SCS215a	20100715.131257	20100715.131415	8	0.013328	60	10	60-180	60	132	GapExp	0	13	2	2	0	distractor	1	2413	0	36377	13.376	13.164	26.654
ProbeTrackDT01	29	ProbeTrack	10.4	SCS215a	20100715.131257	20100715.131422	8	0.013328	60	10	60-180	60	177	GapExp	0	14	2	2	0	target	0	1480	-1000	35377	13.328	13.216	13.450
ProbeTrackDT01	29	ProbeTrack	10.4	SCS215a	20100715.131257	20100715.131429	8	0.013328	60	10	60-180	60	124	GapExp	0	15	2	2	1	distractor	0	14	-1000	34377	13.328	13.196	13.427
ProbeTrackDT01	29	ProbeTrack	10.4	SCS215a	20100715.131257	20100715.131434	8	0.013328	60	10	60-180	60	73	GapExp	0	16	2	1	1	target	1	787	607	34984	13.328	12.966	13.655
ProbeTrackDT01	29	ProbeTrack	10.4	SCS215a	20100715.131257	20100715.131440	8	0.013328	60	10	60-180	60	142	GapExp	0	17	2	75	1	target	1	560	720	35704	13.328	13.083	13.573
ProbeTrackDT01	29	ProbeTrack	10.4	SCS215a	20100715.131257	20100715.131446	8	0.013328	60	10	60-180	60	140	GapExp	0	18	2	0	0	distractor	1	800	600	36304	13.328	13.023	13.598
ProbeTrackDT01	29	ProbeTrack	10.4	SCS215a	20100715.131257	20100715.131452	8	0.013328	60	10	60-180	60	174	GapExp	0	19	2	2	1	target	1	574	713	37017	13.328	13.189	13.500
ProbeTrackDT01	29	ProbeTrack	10.4	SCS215a	20100715.131257	20100715.131459	8	0.013328	60	10	60-180	60	102	GapExp	0	20	2	0	0	distractor	1	933	534	37551	13.328	13.174	13.480
ProbeTrackDT01	29	ProbeTrack	10.4	SCS215a	20100715.131257	20100715.131504	8	0.013328	60	10	60-180	60	174	GapExp	0	21	2	1	0	distractor	1	720	640	38191	13.328	13.152	13.469
ProbeTrackDT01	29	ProbeTrack	10.4	SCS215a	20100715.131257	20100715.131511	8	0.013328	60	10	60-180	60	126	GapExp	0	22	2	0	0	distractor	1	2039	0	38191	13.328	12.959	13.662
ProbeTrackDT01	29	ProbeTrack	10.4	SCS215a	20100715.131257	20100715.131518	8	0.013328	60	10	60-180	60	145	GapExp	0	23	2	0	1	target	1	1306	347	38538	13.374	12.917	26.912
ProbeTrackDT01	29	ProbeTrack	10.4	SCS215a	20100715.131257	20100715.131525	8	0.013328	60	10	60-180	60	149	GapExp	0	24	2	75	1	target	1	587	707	39245	13.328	12.989	13.666
ProbeTrackDT01	29	ProbeTrack	10.4	SCS215a	20100715.131257	20100715.131532	8	0.013328	60	10	60-180	60	89	GapExp	0	25	2	4	1	target	1	454	773	40018	13.328	12.923	13.732
ProbeTrackDT01	29	ProbeTrack	10.4	SCS215a	20100715.131257	20100715.131537	8	0.013328	60	10	60-180	60	142	GapExp	0	26	2	75	1	target	1	614	693	40711	13.328	13.196	13.441
ProbeTrackDT01	29	ProbeTrack	10.4	SCS215a	20100715.131257	20100715.131544	8	0.013328	60	10	60-180	60	121	GapExp	0	27	2	4	1	distractor	0	1027	-1000	39711	13.328	13.191	13.463
ProbeTrackDT01	29	ProbeTrack	10.4	SCS215a	20100715.131257	20100715.131550	8	0.013328	60	10	60-180	60	173	GapExp	0	28	2	75	0	target	0	827	-1000	38711	13.362	13.025	26.654
ProbeTrackDT01	29	ProbeTrack	10.4	SCS215a	20100715.131257	20100715.131557	8	0.013328	60	10	60-180	60	177	GapExp	0	29	2	1	1	distractor	0	907	-1000	37711	13.328	13.289	13.363
ProbeTrackDT01	29	ProbeTrack	10.4	SCS215a	20100715.131257	20100715.131604	8	0.013328	60	10	60-180	60	98	GapExp	0	30	2	2	0	distractor	1	760	620	38331	13.492	12.989	40.113
ProbeTrackDT01	29	ProbeTrack	10.4	SCS215a	20100715.131257	20100715.131609	8	0.013328	60	10	60-180	60	83	GapExp	0	31	2	1	1	target	1	574	713	39044	13.328	13.218	13.438
ProbeTrackDT01	29	ProbeTrack	10.4	SCS215a	20100715.131257	20100715.131614	8	0.013328	60	10	60-180	60	137	GapExp	0	32	2	4	0	distractor	1	813	594	39638	13.374	13.158	26.656
ProbeTrackDT01	29	ProbeTrack	10.4	SCS215a	20100715.131257	20100715.131621	8	0.013328	60	10	60-180	60	64	GapExp	0	33	2	0	1	target	1	707	647	40285	13.328	13.247	13.408
ProbeTrackDT01	29	ProbeTrack	10.4	SCS215a	20100715.131257	20100715.131625	8	0.013328	60	10	60-180	60	79	GapExp	0	34	2	0	0	distractor	1	747	627	40912	13.328	13.293	13.363
ProbeTrackDT01	29	ProbeTrack	10.4	SCS215a	20100715.131257	20100715.131631	8	0.013328	60	10	60-180	60	68	GapExp	0	35	2	75	1	distractor	0	973	-1000	39912	13.328	13.109	13.580
ProbeTrackDT01	29	ProbeTrack	10.4	SCS215a	20100715.131257	20100715.131637	8	0.013328	60	10	60-180	60	155	GapExp	0	36	2	2	0	distractor	1	707	647	40559	13.328	13.071	13.584
ProbeTrackDT01	29	ProbeTrack	10.4	SCS215a	20100715.131257	20100715.131643	8	0.013328	60	10	60-180	60	91	GapExp	0	37	2	4	0	target	0	1880	-1000	39559	13.328	12.953	13.668
ProbeTrackDT01	29	ProbeTrack	10.4	SCS215a	20100715.131257	20100715.131650	8	0.013328	60	10	60-180	60	109	GapExp	0	38	2	75	1	target	1	813	594	40153	13.328	12.961	13.694
ProbeTrackDT01	29	ProbeTrack	10.4	SCS215a	20100715.131257	20100715.131656	8	0.013328	60	10	60-180	60	133	GapExp	0	39	2	4	1	target	1	773	614	40767	13.328	13.199	13.457
ProbeTrackDT01	29	ProbeTrack	10.4	SCS215a	20100715.131257	20100715.131702	8	0.013328	60	10	60-180	60	112	GapExp	0	40	2	0	1	distractor	0	867	-1000	39767	13.328	13.202	13.453
ProbeTrackDT01	29	ProbeTrack	10.4	SCS215a	20100715.131257	20100715.131708	8	0.013328	60	10	60-180	60	162	GapExp	0	41	2	75	0	distractor	1	720	640	40407	13.328	13.178	13.511
ProbeTrackDT01	29	ProbeTrack	10.4	SCS215a	20100715.131257	20100715.131715	8	0.013328	60	10	60-180	60	67	GapExp	0	42	2	4	1	distractor	0	800	-1000	39407	13.328	13.227	13.395
ProbeTrackDT01	29	ProbeTrack	10.4	SCS215a	20100715.131257	20100715.131720	8	0.013328	60	10	60-180	60	146	GapExp	0	43	2	2	0	target	0	1120	-1000	38407	13.328	12.997	13.624
ProbeTrackDT01	29	ProbeTrack	10.4	SCS215a	20100715.131257	20100715.131727	8	0.013328	60	10	60-180	60	85	GapExp	0	44	2	0	0	distractor	1	640	680	39087	13.328	13.026	13.630
ProbeTrackDT01	29	ProbeTrack	10.4	SCS215a	20100715.131257	20100715.131732	8	0.013328	60	10	60-180	60	138	GapExp	0	45	2	0	1	target	1	653	674	39761	13.328	13.172	13.517
ProbeTrackDT01	29	ProbeTrack	10.4	SCS215a	20100715.131257	20100715.131738	8	0.013328	60	10	60-180	60	142	GapExp	0	46	2	0	1	target	1	520	740	40501	13.328	12.933	13.688
ProbeTrackDT01	29	ProbeTrack	10.4	SCS215a	20100715.131257	20100715.131744	8	0.013328	60	10	60-180	60	156	GapExp	0	47	2	2	1	target	1	614	693	41194	13.328	13.026	13.629
ProbeTrackDT01	29	ProbeTrack	10.4	SCS215a	20100715.131257	20100715.131750	8	0.013328	60	10	60-180	60	155	GapExp	0	48	2	0	0	target	0	893	-1000	40194	13.328	12.954	13.734
ProbeTrackDT01	29	ProbeTrack	10.4	SCS215a	20100715.131257	20100715.131756	8	0.013328	60	10	60-180	60	176	GapExp	0	49	2	2	0	distractor	1	587	707	40901	13.328	13.066	13.624
ProbeTrackDT01	29	ProbeTrack	10.4	SCS215a	20100715.131257	20100715.131803	8	0.013328	60	10	60-180	60	111	GapExp	0	50	2	2	1	target	1	1293	354	41255	13.328	13.049	13.577
ProbeTrackDT01	29	ProbeTrack	10.4	SCS215a	20100715.131257	20100715.131818	8	0.013328	60	10	60-180	60	146	GapExp	0	51	2	1	1	target	1	560	720	41975	13.328	13.021	13.633
ProbeTrackDT01	29	ProbeTrack	10.4	SCS215a	20100715.131257	20100715.131824	8	0.013328	60	10	60-180	60	140	GapExp	0	52	2	4	1	target	1	867	567	42542	13.328	12.964	13.693
ProbeTrackDT01	29	ProbeTrack	10.4	SCS215a	20100715.131257	20100715.131830	8	0.013328	60	10	60-180	60	116	GapExp	0	53	2	2	0	target	0	2879	-1000	41542	13.328	12.952	13.737
ProbeTrackDT01	29	ProbeTrack	10.4	SCS215a	20100715.131257	20100715.131838	8	0.013328	60	10	60-180	60	132	GapExp	0	54	2	0	1	target	1	627	687	42229	13.328	13.037	13.619
ProbeTrackDT01	29	ProbeTrack	10.4	SCS215a	20100715.131257	20100715.131844	8	0.013328	60	10	60-180	60	165	GapExp	0	55	2	4	1	target	1	1107	447	42676	13.328	12.983	13.674
ProbeTrackDT01	29	ProbeTrack	10.4	SCS215a	20100715.131257	20100715.131851	8	0.013328	60	10	60-180	60	63	GapExp	0	56	2	2	1	target	1	560	720	43396	13.328	13.092	13.528
ProbeTrackDT01	29	ProbeTrack	10.4	SCS215a	20100715.131257	20100715.131856	8	0.013328	60	10	60-180	60	86	GapExp	0	57	2	75	1	distractor	0	667	-1000	42396	13.373	12.952	26.689
ProbeTrackDT01	29	ProbeTrack	10.4	SCS215a	20100715.131257	20100715.131902	8	0.013328	60	10	60-180	60	97	GapExp	0	58	2	4	1	target	1	1173	414	42810	13.328	13.208	13.448
ProbeTrackDT01	29	ProbeTrack	10.4	SCS215a	20100715.131257	20100715.131908	8	0.013328	60	10	60-180	60	121	GapExp	0	59	2	1	1	target	1	800	600	43410	13.328	12.978	13.678
ProbeTrackDT01	29	ProbeTrack	10.4	SCS215a	20100715.131257	20100715.131913	8	0.013328	60	10	60-180	60	107	GapExp	0	60	2	4	1	target	1	507	747	44157	13.328	12.967	13.688
ProbeTrackDT01	29	ProbeTrack	10.4	SCS215a	20100715.131257	20100715.131919	8	0.013328	60	10	60-180	60	103	GapExp	0	61	2	4	0	distractor	1	627	687	44844	13.328	13.046	13.608
ProbeTrackDT01	29	ProbeTrack	10.4	SCS215a	20100715.131257	20100715.131924	8	0.013328	60	10	60-180	60	94	GapExp	0	62	2	0	1	target	1	640	680	45524	13.328	12.945	13.709
ProbeTrackDT01	29	ProbeTrack	10.4	SCS215a	20100715.131257	20100715.131930	8	0.013328	60	10	60-180	60	133	GapExp	0	63	2	4	0	distractor	1	1053	474	45998	13.328	13.112	13.524
ProbeTrackDT01	29	ProbeTrack	10.4	SCS215a	20100715.131257	20100715.131936	8	0.013328	60	10	60-180	60	76	GapExp	0	64	2	1	0	distractor	1	560	720	46718	13.328	13.227	13.428
ProbeTrackDT01	29	ProbeTrack	10.4	SCS215a	20100715.131257	20100715.131941	8	0.013328	60	10	60-180	60	109	GapExp	0	65	2	4	0	distractor	1	867	567	47285	13.328	13.105	13.551
ProbeTrackDT01	29	ProbeTrack	10.4	SCS215a	20100715.131257	20100715.131946	8	0.013328	60	10	60-180	60	175	GapExp	0	66	2	4	0	target	0	680	-1000	46285	13.328	12.973	13.715
ProbeTrackDT01	29	ProbeTrack	10.4	SCS215a	20100715.131257	20100715.131953	8	0.013328	60	10	60-180	60	80	GapExp	0	67	2	4	0	distractor	1	667	667	46952	13.328	12.992	13.662
ProbeTrackDT01	29	ProbeTrack	10.4	SCS215a	20100715.131257	20100715.131958	8	0.013328	60	10	60-180	60	167	GapExp	0	68	2	2	0	distractor	1	667	667	47619	13.328	13.088	13.568
ProbeTrackDT01	29	ProbeTrack	10.4	SCS215a	20100715.131257	20100715.132004	8	0.013328	60	10	60-180	60	119	GapExp	0	69	2	0	0	distractor	1	1586	207	47826	13.328	13.047	13.608
ProbeTrackDT01	29	ProbeTrack	10.4	SCS215a	20100715.131257	20100715.132011	8	0.013328	60	10	60-180	60	109	GapExp	0	70	2	75	0	distractor	1	693	654	48480	13.328	13.005	13.617
ProbeTrackDT01	29	ProbeTrack	10.4	SCS215a	20100715.131257	20100715.132018	8	0.013328	60	10	60-180	60	106	GapExp	0	71	2	1	0	target	0	3945	-1000	47480	13.328	12.996	13.659
ProbeTrackDT01	29	ProbeTrack	10.4	SCS215a	20100715.131257	20100715.132026	8	0.013328	60	10	60-180	60	123	GapExp	0	72	2	4	1	distractor	0	627	-1000	46480	13.328	12.932	13.690
ProbeTrackDT01	29	ProbeTrack	10.4	SCS215a	20100715.131257	20100715.132032	8	0.013328	60	10	60-180	60	137	GapExp	0	73	2	1	0	target	0	520	-1000	45480	13.328	13.090	13.598
ProbeTrackDT01	29	ProbeTrack	10.4	SCS215a	20100715.131257	20100715.132038	8	0.013328	60	10	60-180	60	104	GapExp	0	74	2	75	0	distractor	1	560	720	46200	13.328	13.084	13.556
ProbeTrackDT01	29	ProbeTrack	10.4	SCS215a	20100715.131257	20100715.132044	8	0.013328	60	10	60-180	60	112	GapExp	0	75	2	2	0	distractor	1	653	674	46874	13.328	12.971	13.718
ProbeTrackDT01	29	ProbeTrack	10.4	SCS215a	20100715.131257	20100715.132050	8	0.013328	60	10	60-180	60	172	GapExp	0	76	2	2	0	distractor	1	640	680	47554	13.328	13.099	13.556
ProbeTrackDT01	29	ProbeTrack	10.4	SCS215a	20100715.131257	20100715.132056	8	0.013328	60	10	60-180	60	119	GapExp	0	77	2	2	0	target	0	827	-1000	46554	13.328	13.151	13.505
ProbeTrackDT01	29	ProbeTrack	10.4	SCS215a	20100715.131257	20100715.132102	8	0.013328	60	10	60-180	60	168	GapExp	0	78	2	1	0	target	0	893	-1000	45554	13.328	13.167	13.521
ProbeTrackDT01	29	ProbeTrack	10.4	SCS215a	20100715.131257	20100715.132108	8	0.013328	60	10	60-180	60	98	GapExp	0	79	2	0	0	target	0	1653	-1000	44554	13.328	13.209	13.415
ProbeTrackDT01	29	ProbeTrack	10.4	SCS215a	20100715.131257	20100715.132115	8	0.013328	60	10	60-180	60	75	GapExp	0	80	2	1	1	target	1	1733	134	44688	13.328	13.007	13.648
ProbeTrackDT01	29	ProbeTrack	10.4	SCS215a	20100715.131257	20100715.132121	8	0.013328	60	10	60-180	60	146	GapExp	0	81	2	1	0	distractor	1	667	667	45355	13.328	13.082	13.539
ProbeTrackDT01	29	ProbeTrack	10.4	SCS215a	20100715.131257	20100715.132127	8	0.013328	60	10	60-180	60	127	GapExp	0	82	2	75	0	target	0	787	-1000	44355	13.328	12.946	13.705
ProbeTrackDT01	29	ProbeTrack	10.4	SCS215a	20100715.131257	20100715.132134	8	0.013328	60	10	60-180	60	165	GapExp	0	83	2	75	1	target	1	560	720	45075	13.328	13.017	13.639
ProbeTrackDT01	29	ProbeTrack	10.4	SCS215a	20100715.131257	20100715.132141	8	0.013328	60	10	60-180	60	103	GapExp	0	84	2	75	0	distractor	1	933	534	45609	13.328	13.129	13.493
ProbeTrackDT01	29	ProbeTrack	10.4	SCS215a	20100715.131257	20100715.132148	8	0.013328	60	10	60-180	60	98	GapExp	0	85	2	75	0	target	0	494	-1000	44609	13.328	13.132	13.546
ProbeTrackDT01	29	ProbeTrack	10.4	SCS215a	20100715.131257	20100715.132154	8	0.013328	60	10	60-180	60	81	GapExp	0	86	2	1	1	target	1	600	700	45309	13.328	12.999	13.623
ProbeTrackDT01	29	ProbeTrack	10.4	SCS215a	20100715.131257	20100715.132159	8	0.013328	60	10	60-180	60	73	GapExp	0	87	2	75	1	target	1	1040	480	45789	13.328	13.033	13.621
ProbeTrackDT01	29	ProbeTrack	10.4	SCS215a	20100715.131257	20100715.132205	8	0.013328	60	10	60-180	60	135	GapExp	0	88	2	4	0	distractor	1	520	740	46529	13.328	13.010	13.680
ProbeTrackDT01	29	ProbeTrack	10.4	SCS215a	20100715.131257	20100715.132211	8	0.013328	60	10	60-180	60	167	GapExp	0	89	2	2	0	distractor	1	933	534	47063	13.370	13.180	26.694
ProbeTrackDT01	29	ProbeTrack	10.4	SCS215a	20100715.131257	20100715.132218	8	0.013328	60	10	60-180	60	84	GapExp	0	90	2	4	0	target	0	640	-1000	46063	13.328	13.128	13.527
ProbeTrackDT01	29	ProbeTrack	10.4	SCS215a	20100715.131257	20100715.132223	8	0.013328	60	10	60-180	60	149	GapExp	0	91	2	1	1	target	1	574	713	46776	13.328	13.290	13.365
ProbeTrackDT01	29	ProbeTrack	10.4	SCS215a	20100715.131257	20100715.132229	8	0.013328	60	10	60-180	60	148	GapExp	0	92	2	0	0	distractor	1	2279	0	46776	13.328	13.036	13.653
ProbeTrackDT01	29	ProbeTrack	10.4	SCS215a	20100715.131257	20100715.132236	8	0.013328	60	10	60-180	60	162	GapExp	0	93	2	1	1	target	1	520	740	47516	13.328	13.068	13.553
ProbeTrackDT01	29	ProbeTrack	10.4	SCS215a	20100715.131257	20100715.132243	8	0.013328	60	10	60-180	60	166	GapExp	0	94	2	4	1	distractor	0	747	-1000	46516	13.328	13.066	13.589
ProbeTrackDT01	29	ProbeTrack	10.4	SCS215a	20100715.131257	20100715.132249	8	0.013328	60	10	60-180	60	83	GapExp	0	95	2	1	1	target	1	1186	407	46923	15.889	12.917	200.277
ProbeTrackDT01	29	ProbeTrack	10.4	SCS215a	20100715.131257	20100715.132255	8	0.013328	60	10	60-180	60	123	GapExp	0	96	2	0	0	target	0	692	-1000	45923	14.849	12.944	186.421
ProbeTrackDT01	29	ProbeTrack	10.4	SCS215a	20100715.131257	20100715.132301	8	0.013328	60	10	60-180	60	86	GapExp	0	97	2	0	0	target	0	627	-1000	44923	13.449	13.061	39.982
ProbeTrackDT01	29	ProbeTrack	10.4	SCS215a	20100715.131257	20100715.132307	8	0.013328	60	10	60-180	60	80	GapExp	0	98	2	0	0	distractor	1	747	627	45550	14.180	12.828	40.250
ProbeTrackDT01	29	ProbeTrack	10.4	SCS215a	20100715.131257	20100715.132312	8	0.013328	60	10	60-180	60	67	GapExp	0	99	2	0	0	target	0	2333	-1000	44550	13.390	12.946	26.655
ProbeTrackDT01	29	ProbeTrack	10.4	SCS215a	20100715.131257	20100715.132319	8	0.013328	60	10	60-180	60	100	GapExp	0	100	2	0	1	distractor	0	1147	-1000	43550	13.872	12.841	39.984
ProbeTrackDT01	29	ProbeTrack	10.4	SCS215a	20100715.131257	20100715.132339	8	0.013328	60	10	60-180	60	78	GapExp	0	101	2	75	1	target	1	787	607	44157	16.905	12.827	186.633
ProbeTrackDT01	29	ProbeTrack	10.4	SCS215a	20100715.131257	20100715.132347	8	0.013328	60	10	60-180	60	88	GapExp	0	102	2	1	0	distractor	1	733	634	44791	13.328	12.970	13.652
ProbeTrackDT01	29	ProbeTrack	10.4	SCS215a	20100715.131257	20100715.132352	8	0.013328	60	10	60-180	60	66	GapExp	0	103	2	75	0	distractor	1	600	700	45491	13.328	13.014	13.641
ProbeTrackDT01	29	ProbeTrack	10.4	SCS215a	20100715.131257	20100715.132358	8	0.013328	60	10	60-180	60	125	GapExp	0	104	2	2	1	target	1	734	633	46124	13.377	13.205	26.601
ProbeTrackDT01	29	ProbeTrack	10.4	SCS215a	20100715.131257	20100715.132404	8	0.013328	60	10	60-180	60	94	GapExp	0	105	2	4	0	distractor	1	947	527	46651	13.328	12.992	13.697
ProbeTrackDT01	29	ProbeTrack	10.4	SCS215a	20100715.131257	20100715.132409	8	0.013328	60	10	60-180	60	158	GapExp	0	106	2	4	1	target	1	3106	0	46651	13.328	13.003	13.619
ProbeTrackDT01	29	ProbeTrack	10.4	SCS215a	20100715.131257	20100715.132418	8	0.013328	60	10	60-180	60	179	GapExp	0	107	2	75	1	distractor	0	587	-1000	45651	13.328	13.132	13.551
ProbeTrackDT01	29	ProbeTrack	10.4	SCS215a	20100715.131257	20100715.132425	8	0.013328	60	10	60-180	60	136	GapExp	0	108	2	1	1	distractor	0	1000	-1000	44651	13.328	13.292	13.364
ProbeTrackDT01	29	ProbeTrack	10.4	SCS215a	20100715.131257	20100715.132432	8	0.013328	60	10	60-180	60	77	GapExp	0	109	2	1	0	target	0	1240	-1000	43651	13.328	13.245	13.377
ProbeTrackDT01	29	ProbeTrack	10.4	SCS215a	20100715.131257	20100715.132437	8	0.013328	60	10	60-180	60	140	GapExp	0	110	2	4	1	target	1	680	660	44311	13.375	13.292	26.654
ProbeTrackDT01	29	ProbeTrack	10.4	SCS215a	20100715.131257	20100715.132443	8	0.013328	60	10	60-180	60	74	GapExp	0	111	2	4	0	distractor	1	1027	487	44798	13.328	13.236	13.421
ProbeTrackDT01	29	ProbeTrack	10.4	SCS215a	20100715.131257	20100715.132449	8	0.013328	60	10	60-180	60	155	GapExp	0	112	2	75	0	distractor	1	600	700	45498	13.328	13.183	13.439
ProbeTrackDT01	29	ProbeTrack	10.4	SCS215a	20100715.131257	20100715.132456	8	0.013328	60	10	60-180	60	86	GapExp	0	113	2	75	1	target	1	1853	74	45572	13.328	13.128	13.561
ProbeTrackDT01	29	ProbeTrack	10.4	SCS215a	20100715.131257	20100715.132503	8	0.013328	60	10	60-180	60	131	GapExp	0	114	2	1	1	distractor	0	494	-1000	44572	13.328	12.939	13.716
ProbeTrackDT01	29	ProbeTrack	10.4	SCS215a	20100715.131257	20100715.132509	8	0.013328	60	10	60-180	60	151	GapExp	0	115	2	75	1	target	1	800	600	45172	13.328	13.019	13.637
ProbeTrackDT01	29	ProbeTrack	10.4	SCS215a	20100715.131257	20100715.132516	8	0.013328	60	10	60-180	60	120	GapExp	0	116	2	0	1	target	1	693	654	45826	13.328	13.293	13.363
ProbeTrackDT01	29	ProbeTrack	10.4	SCS215a	20100715.131257	20100715.132522	8	0.013328	60	10	60-180	60	75	GapExp	0	117	2	75	0	distractor	1	560	720	46546	13.328	13.183	13.474
ProbeTrackDT01	29	ProbeTrack	10.4	SCS215a	20100715.131257	20100715.132528	8	0.013328	60	10	60-180	60	157	GapExp	0	118	2	75	1	target	1	587	707	47253	13.328	13.167	13.455
ProbeTrackDT01	29	ProbeTrack	10.4	SCS215a	20100715.131257	20100715.132535	8	0.013328	60	10	60-180	60	87	GapExp	0	119	2	1	0	target	0	2399	-1000	46253	13.328	13.293	13.386
ProbeTrackDT01	29	ProbeTrack	10.4	SCS215a	20100715.131257	20100715.132542	8	0.013328	60	10	60-180	60	179	GapExp	0	120	2	1	0	distractor	1	560	720	46973	13.328	13.018	13.638
ProbeTrackDT01	29	ProbeTrack	10.4	SCS215a	20100715.131257	20100715.132548	8	0.013328	60	10	60-180	60	102	GapExp	0	121	2	2	1	target	1	547	727	47700	13.328	13.085	13.570
ProbeTrackDT01	29	ProbeTrack	10.4	SCS215a	20100715.131257	20100715.132553	8	0.013328	60	10	60-180	60	79	GapExp	0	122	2	2	0	target	0	1480	-1000	46700	13.328	13.276	13.363
ProbeTrackDT01	29	ProbeTrack	10.4	SCS215a	20100715.131257	20100715.132559	8	0.013328	60	10	60-180	60	61	GapExp	0	123	2	75	1	distractor	0	507	-1000	45700	13.328	13.080	13.575
ProbeTrackDT01	29	ProbeTrack	10.4	SCS215a	20100715.131257	20100715.132605	8	0.013328	60	10	60-180	60	134	GapExp	0	124	2	1	1	target	1	1693	154	45854	13.327	13.030	13.625
ProbeTrackDT01	29	ProbeTrack	10.4	SCS215a	20100715.131257	20100715.132612	8	0.013328	60	10	60-180	60	98	GapExp	0	125	2	0	1	distractor	0	2186	-1000	44854	13.328	13.055	13.634
ProbeTrackDT01	29	ProbeTrack	10.4	SCS215a	20100715.131257	20100715.132619	8	0.013328	60	10	60-180	60	98	GapExp	0	126	2	4	0	target	0	627	-1000	43854	13.328	13.081	13.541
ProbeTrackDT01	29	ProbeTrack	10.4	SCS215a	20100715.131257	20100715.132624	8	0.013328	60	10	60-180	60	96	GapExp	0	127	2	75	0	target	0	1013	-1000	42854	13.370	13.224	26.655
ProbeTrackDT01	29	ProbeTrack	10.4	SCS215a	20100715.131257	20100715.132631	8	0.013328	60	10	60-180	60	96	GapExp	0	128	2	1	1	target	1	1173	414	43268	13.328	13.148	13.541
ProbeTrackDT01	29	ProbeTrack	10.4	SCS215a	20100715.131257	20100715.132637	8	0.013328	60	10	60-180	60	92	GapExp	0	129	2	75	1	target	1	1293	354	43622	13.584	13.163	66.823
ProbeTrackDT01	29	ProbeTrack	10.4	SCS215a	20100715.131257	20100715.132644	8	0.013328	60	10	60-180	60	154	GapExp	0	130	2	2	1	target	1	1466	267	43889	13.328	12.963	13.691
ProbeTrackDT01	29	ProbeTrack	10.4	SCS215a	20100715.131257	20100715.132651	8	0.013328	60	10	60-180	60	95	GapExp	0	131	2	0	1	distractor	0	707	-1000	42889	13.385	13.175	26.842
ProbeTrackDT01	29	ProbeTrack	10.4	SCS215a	20100715.131257	20100715.132656	8	0.013328	60	10	60-180	60	139	GapExp	0	132	2	4	0	target	0	-13	-1000	41889	13.328	13.240	13.416
ProbeTrackDT01	29	ProbeTrack	10.4	SCS215a	20100715.131257	20100715.132701	8	0.013328	60	10	60-180	60	78	GapExp	0	133	2	1	0	distractor	1	600	700	42589	13.328	13.143	13.511
ProbeTrackDT01	29	ProbeTrack	10.4	SCS215a	20100715.131257	20100715.132706	8	0.013328	60	10	60-180	60	63	GapExp	0	134	2	75	1	target	1	733	634	43223	13.328	12.968	13.687
ProbeTrackDT01	29	ProbeTrack	10.4	SCS215a	20100715.131257	20100715.132712	8	0.013328	60	10	60-180	60	108	GapExp	0	135	2	0	0	distractor	1	680	660	43883	13.382	13.153	26.621
ProbeTrackDT01	29	ProbeTrack	10.4	SCS215a	20100715.131257	20100715.132718	8	0.013328	60	10	60-180	60	176	GapExp	0	136	2	4	0	target	0	520	-1000	42883	13.328	12.932	13.689
ProbeTrackDT01	29	ProbeTrack	10.4	SCS215a	20100715.131257	20100715.132724	8	0.013328	60	10	60-180	60	87	GapExp	0	137	2	2	1	target	1	560	720	43603	13.328	13.123	13.498
ProbeTrackDT01	29	ProbeTrack	10.4	SCS215a	20100715.131257	20100715.132729	8	0.013328	60	10	60-180	60	123	GapExp	0	138	2	75	0	target	0	614	-1000	42603	13.328	13.019	13.637
ProbeTrackDT01	29	ProbeTrack	10.4	SCS215a	20100715.131257	20100715.132736	8	0.013328	60	10	60-180	60	86	GapExp	0	139	2	4	0	distractor	1	760	620	43223	13.328	13.280	13.374
ProbeTrackDT01	29	ProbeTrack	10.4	SCS215a	20100715.131257	20100715.132741	8	0.013328	60	10	60-180	60	146	GapExp	0	140	2	0	1	target	1	1306	347	43570	13.328	13.041	13.580
ProbeTrackDT01	29	ProbeTrack	10.4	SCS215a	20100715.131257	20100715.132748	8	0.013328	60	10	60-180	60	143	GapExp	0	141	2	1	0	distractor	1	520	740	44310	13.328	13.165	13.490
ProbeTrackDT01	29	ProbeTrack	10.4	SCS215a	20100715.131257	20100715.132754	8	0.013328	60	10	60-180	60	89	GapExp	0	142	2	4	0	distractor	1	653	674	44984	13.328	13.293	13.363
ProbeTrackDT01	29	ProbeTrack	10.4	SCS215a	20100715.131257	20100715.132759	8	0.013328	60	10	60-180	60	73	GapExp	0	143	2	0	1	target	1	627	687	45671	13.521	13.091	13.564
ProbeTrackDT01	29	ProbeTrack	10.4	SCS215a	20100715.131257	20100715.132804	8	0.013328	60	10	60-180	60	65	GapExp	0	144	2	1	1	target	1	720	640	46311	13.328	13.088	13.535
ProbeTrackDT01	29	ProbeTrack	10.4	SCS215a	20100715.131257	20100715.132809	8	0.013328	60	10	60-180	60	65	GapExp	0	145	2	0	1	distractor	0	693	-1000	45311	13.328	13.160	13.495
ProbeTrackDT01	29	ProbeTrack	10.4	SCS215a	20100715.131257	20100715.132814	8	0.013328	60	10	60-180	60	107	GapExp	0	146	2	0	0	target	0	827	-1000	44311	13.328	13.293	13.363
ProbeTrackDT01	29	ProbeTrack	10.4	SCS215a	20100715.131257	20100715.132820	8	0.013328	60	10	60-180	60	139	GapExp	0	147	2	4	1	distractor	0	2786	-1000	43311	13.328	13.005	13.651
ProbeTrackDT01	29	ProbeTrack	10.4	SCS215a	20100715.131257	20100715.132828	8	0.013328	60	10	60-180	60	134	GapExp	0	148	2	4	1	target	1	534	733	44044	13.328	13.293	13.363
ProbeTrackDT01	29	ProbeTrack	10.4	SCS215a	20100715.131257	20100715.132833	8	0.013328	60	10	60-180	60	90	GapExp	0	149	2	1	0	distractor	1	827	587	44631	13.328	13.016	13.639
ProbeTrackDT01	29	ProbeTrack	10.4	SCS215a	20100715.131257	20100715.132839	8	0.013328	60	10	60-180	60	135	GapExp	0	150	2	2	1	target	1	1826	87	44718	13.328	13.038	13.617
ProbeTrackDT01	29	ProbeTrack	10.4	SCS215a	20100715.131257	20100715.132857	8	0.013328	60	10	60-180	60	180	GapExp	0	151	2	75	0	distractor	1	574	713	45431	13.328	13.130	13.560
ProbeTrackDT01	29	ProbeTrack	10.4	SCS215a	20100715.131257	20100715.132905	8	0.013328	60	10	60-180	60	124	GapExp	0	152	2	75	1	target	1	534	733	46164	13.328	13.096	13.527
ProbeTrackDT01	29	ProbeTrack	10.4	SCS215a	20100715.131257	20100715.132911	8	0.013328	60	10	60-180	60	128	GapExp	0	153	2	0	1	target	1	507	747	46911	13.328	13.195	13.460
ProbeTrackDT01	29	ProbeTrack	10.4	SCS215a	20100715.131257	20100715.132917	8	0.013328	60	10	60-180	60	118	GapExp	0	154	2	1	0	target	0	560	-1000	45911	13.328	12.958	13.697
ProbeTrackDT01	29	ProbeTrack	10.4	SCS215a	20100715.131257	20100715.132922	8	0.013328	60	10	60-180	60	90	GapExp	0	155	2	2	0	distractor	1	933	534	46445	13.328	13.293	13.363
ProbeTrackDT01	29	ProbeTrack	10.4	SCS215a	20100715.131257	20100715.132928	8	0.013328	60	10	60-180	60	114	GapExp	0	156	2	0	1	distractor	0	707	-1000	45445	13.328	13.186	13.503
ProbeTrackDT01	29	ProbeTrack	10.4	SCS215a	20100715.131257	20100715.132933	8	0.013328	60	10	60-180	60	65	GapExp	0	157	2	2	1	target	1	654	673	46118	13.787	13.058	53.311
ProbeTrackDT01	29	ProbeTrack	10.4	SCS215a	20100715.131257	20100715.132938	8	0.013328	60	10	60-180	60	161	GapExp	0	158	2	0	1	target	1	627	687	46805	13.418	12.973	13.644
ProbeTrackDT01	29	ProbeTrack	10.4	SCS215a	20100715.131257	20100715.132945	8	0.013328	60	10	60-180	60	141	GapExp	0	159	2	4	0	distractor	1	733	634	47439	13.328	13.206	13.416
ProbeTrackDT01	29	ProbeTrack	10.4	SCS215a	20100715.131257	20100715.132951	8	0.013328	60	10	60-180	60	78	GapExp	0	160	2	4	1	target	1	613	694	48133	13.328	13.293	13.363
ProbeTrackDT01	29	ProbeTrack	10.4	SCS215a	20100715.131257	20100715.132956	8	0.013328	60	10	60-180	60	160	GapExp	0	161	2	4	0	distractor	1	454	773	48906	13.328	13.292	13.363
ProbeTrackDT01	29	ProbeTrack	10.4	SCS215a	20100715.131257	20100715.133002	8	0.013328	60	10	60-180	60	107	GapExp	0	162	2	2	0	distractor	1	587	707	49613	13.328	13.084	13.571
ProbeTrackDT01	29	ProbeTrack	10.4	SCS215a	20100715.131257	20100715.133007	8	0.013328	60	10	60-180	60	87	GapExp	0	163	2	1	0	target	0	600	-1000	48613	13.328	13.149	13.508
ProbeTrackDT01	29	ProbeTrack	10.4	SCS215a	20100715.131257	20100715.133012	8	0.013328	60	10	60-180	60	64	GapExp	0	164	2	1	1	distractor	0	747	-1000	47613	13.392	13.081	26.628
ProbeTrackDT01	29	ProbeTrack	10.4	SCS215a	20100715.131257	20100715.133017	8	0.013328	60	10	60-180	60	120	GapExp	0	165	2	2	1	target	1	600	700	48313	13.328	13.049	13.626
ProbeTrackDT01	29	ProbeTrack	10.4	SCS215a	20100715.131257	20100715.133023	8	0.013328	60	10	60-180	60	96	GapExp	0	166	2	75	0	distractor	1	574	713	49026	13.328	13.227	13.464
ProbeTrackDT01	29	ProbeTrack	10.4	SCS215a	20100715.131257	20100715.133029	8	0.013328	60	10	60-180	60	178	GapExp	0	167	2	0	0	distractor	1	1093	454	49480	13.328	13.233	13.430
ProbeTrackDT01	29	ProbeTrack	10.4	SCS215a	20100715.131257	20100715.133036	8	0.013328	60	10	60-180	60	137	GapExp	0	168	2	4	1	target	1	1800	100	49580	13.328	12.915	13.740
ProbeTrackDT01	29	ProbeTrack	10.4	SCS215a	20100715.131257	20100715.133043	8	0.013328	60	10	60-180	60	102	GapExp	0	169	2	4	0	distractor	1	600	700	50280	13.328	13.056	13.602
ProbeTrackDT01	29	ProbeTrack	10.4	SCS215a	20100715.131257	20100715.133048	8	0.013328	60	10	60-180	60	63	GapExp	0	170	2	1	0	distractor	1	773	614	50894	13.328	13.126	13.563
ProbeTrackDT01	29	ProbeTrack	10.4	SCS215a	20100715.131257	20100715.133053	8	0.013328	60	10	60-180	60	160	GapExp	0	171	2	0	0	distractor	1	653	674	51568	13.328	13.097	13.560
ProbeTrackDT01	29	ProbeTrack	10.4	SCS215a	20100715.131257	20100715.133100	8	0.013328	60	10	60-180	60	158	GapExp	0	172	2	1	1	target	1	747	627	52195	13.328	12.988	13.651
ProbeTrackDT01	29	ProbeTrack	10.4	SCS215a	20100715.131257	20100715.133106	8	0.013328	60	10	60-180	60	145	GapExp	0	173	2	75	0	distractor	1	534	733	52928	14.365	13.265	159.966
ProbeTrackDT01	29	ProbeTrack	10.4	SCS215a	20100715.131257	20100715.133113	8	0.013328	60	10	60-180	60	158	GapExp	0	174	2	2	0	distractor	1	534	733	53661	13.328	12.979	13.710
ProbeTrackDT01	29	ProbeTrack	10.4	SCS215a	20100715.131257	20100715.133119	8	0.013328	60	10	60-180	60	105	GapExp	0	175	2	2	0	distractor	1	534	733	54394	13.328	13.235	13.429
ProbeTrackDT01	29	ProbeTrack	10.4	SCS215a	20100715.131257	20100715.133125	8	0.013328	60	10	60-180	60	95	GapExp	0	176	2	0	0	distractor	1	720	640	55034	13.384	12.817	27.200
ProbeTrackDT01	29	ProbeTrack	10.4	SCS215a	20100715.131257	20100715.133130	8	0.013328	60	10	60-180	60	114	GapExp	0	177	2	1	1	target	1	760	620	55654	13.328	13.226	13.394
ProbeTrackDT01	29	ProbeTrack	10.4	SCS215a	20100715.131257	20100715.133136	8	0.013328	60	10	60-180	60	134	GapExp	0	178	2	2	1	distractor	0	907	-1000	54654	13.328	13.293	13.363
ProbeTrackDT01	29	ProbeTrack	10.4	SCS215a	20100715.131257	20100715.133142	8	0.013328	60	10	60-180	60	155	GapExp	0	179	2	75	0	distractor	1	680	660	55314	13.328	13.200	13.455
ProbeTrackDT01	29	ProbeTrack	10.4	SCS215a	20100715.131257	20100715.133149	8	0.013328	60	10	60-180	60	131	GapExp	0	180	2	1	0	target	0	614	-1000	54314	13.328	13.210	13.446
ProbeTrackDT01	29	ProbeTrack	10.4	SCS215a	20100715.131257	20100715.133155	8	0.013328	60	10	60-180	60	110	GapExp	0	181	2	75	1	target	1	960	520	54834	13.328	13.198	13.457
ProbeTrackDT01	29	ProbeTrack	10.4	SCS215a	20100715.131257	20100715.133201	8	0.013328	60	10	60-180	60	172	GapExp	0	182	2	0	0	target	0	427	-1000	53834	13.328	12.968	13.687
ProbeTrackDT01	29	ProbeTrack	10.4	SCS215a	20100715.131257	20100715.133207	8	0.013328	60	10	60-180	60	132	GapExp	0	183	2	75	0	target	0	627	-1000	52834	13.328	13.003	13.687
ProbeTrackDT01	29	ProbeTrack	10.4	SCS215a	20100715.131257	20100715.133214	8	0.013328	60	10	60-180	60	146	GapExp	0	184	2	75	1	target	1	1346	327	53161	13.328	13.254	13.402
ProbeTrackDT01	29	ProbeTrack	10.4	SCS215a	20100715.131257	20100715.133222	8	0.013328	60	10	60-180	60	170	GapExp	0	185	2	1	1	target	1	414	793	53954	13.328	13.182	13.508
ProbeTrackDT01	29	ProbeTrack	10.4	SCS215a	20100715.131257	20100715.133228	8	0.013328	60	10	60-180	60	154	GapExp	0	186	2	4	0	target	0	1093	-1000	52954	13.328	13.131	13.525
ProbeTrackDT01	29	ProbeTrack	10.4	SCS215a	20100715.131257	20100715.133235	8	0.013328	60	10	60-180	60	61	GapExp	0	187	2	2	1	target	1	667	667	53621	13.328	13.134	13.521
ProbeTrackDT01	29	ProbeTrack	10.4	SCS215a	20100715.131257	20100715.133240	8	0.013328	60	10	60-180	60	69	GapExp	0	188	2	1	1	distractor	0	960	-1000	52621	13.328	13.274	13.380
ProbeTrackDT01	29	ProbeTrack	10.4	SCS215a	20100715.131257	20100715.133245	8	0.013328	60	10	60-180	60	159	GapExp	0	189	2	2	1	target	1	547	727	53348	13.328	12.995	13.694
ProbeTrackDT01	29	ProbeTrack	10.4	SCS215a	20100715.131257	20100715.133251	8	0.013328	60	10	60-180	60	92	GapExp	0	190	2	75	0	target	0	973	-1000	52348	13.328	12.958	13.698
ProbeTrackDT01	29	ProbeTrack	10.4	SCS215a	20100715.131257	20100715.133257	8	0.013328	60	10	60-180	60	177	GapExp	0	191	2	1	0	distractor	1	760	620	52968	13.328	13.017	13.605
ProbeTrackDT01	29	ProbeTrack	10.4	SCS215a	20100715.131257	20100715.133304	8	0.013328	60	10	60-180	60	68	GapExp	0	192	2	2	1	target	1	480	760	53728	13.328	13.289	13.363
ProbeTrackDT01	29	ProbeTrack	10.4	SCS215a	20100715.131257	20100715.133309	8	0.013328	60	10	60-180	60	123	GapExp	0	193	2	2	1	target	1	693	654	54382	13.328	13.118	13.522
ProbeTrackDT01	29	ProbeTrack	10.4	SCS215a	20100715.131257	20100715.133315	8	0.013328	60	10	60-180	60	122	GapExp	0	194	2	4	1	target	1	480	760	55142	13.328	13.242	13.379
ProbeTrackDT01	29	ProbeTrack	10.4	SCS215a	20100715.131257	20100715.133320	8	0.013328	60	10	60-180	60	115	GapExp	0	195	2	2	0	target	0	787	-1000	54142	13.328	13.292	13.363
ProbeTrackDT01	29	ProbeTrack	10.4	SCS215a	20100715.131257	20100715.133326	8	0.013328	60	10	60-180	60	120	GapExp	0	196	2	75	1	target	1	707	647	54789	13.328	13.292	13.363
ProbeTrackDT01	29	ProbeTrack	10.4	SCS215a	20100715.131257	20100715.133333	8	0.013328	60	10	60-180	60	79	GapExp	0	197	2	4	1	target	1	627	687	55476	13.328	13.040	13.613
ProbeTrackDT01	29	ProbeTrack	10.4	SCS215a	20100715.131257	20100715.133338	8	0.013328	60	10	60-180	60	74	GapExp	0	198	2	2	1	target	1	840	580	56056	13.327	13.088	13.363
ProbeTrackDT01	29	ProbeTrack	10.4	SCS215a	20100715.131257	20100715.133343	8	0.013328	60	10	60-180	60	68	GapExp	0	199	2	0	0	distractor	1	667	667	56723	13.328	13.173	13.483
ProbeTrackDT01	29	ProbeTrack	10.4	SCS215a	20100715.131257	20100715.133348	8	0.013328	60	10	60-180	60	164	GapExp	0	200	2	75	0	distractor	1	827	587	57310	13.328	12.946	13.740
ProbeTrackDT01	29	ProbeTrack	10.4	SCS215a	20100715.131257	20100715.133403	8	0.013328	60	10	60-180	60	93	GapExp	0	201	2	2	1	target	1	547	727	58037	13.328	13.199	13.456
ProbeTrackDT01	29	ProbeTrack	10.4	SCS215a	20100715.131257	20100715.133408	8	0.013328	60	10	60-180	60	80	GapExp	0	202	2	2	0	distractor	1	813	594	58631	13.328	12.980	13.676
ProbeTrackDT01	29	ProbeTrack	10.4	SCS215a	20100715.131257	20100715.133413	8	0.013328	60	10	60-180	60	72	GapExp	0	203	2	0	1	distractor	0	1386	-1000	57631	13.328	12.976	13.679
ProbeTrackDT01	29	ProbeTrack	10.4	SCS215a	20100715.131257	20100715.133419	8	0.013328	60	10	60-180	60	180	GapExp	0	204	2	2	0	distractor	1	613	694	58325	13.328	13.291	13.363
ProbeTrackDT01	29	ProbeTrack	10.4	SCS215a	20100715.131257	20100715.133425	8	0.013328	60	10	60-180	60	137	GapExp	0	205	2	0	1	target	1	587	707	59032	13.328	13.238	13.385
ProbeTrackDT01	29	ProbeTrack	10.4	SCS215a	20100715.131257	20100715.133431	8	0.013328	60	10	60-180	60	179	GapExp	0	206	2	1	0	distractor	1	507	747	59779	13.328	13.191	13.465
ProbeTrackDT01	29	ProbeTrack	10.4	SCS215a	20100715.131257	20100715.133438	8	0.013328	60	10	60-180	60	80	GapExp	0	207	2	0	1	target	1	534	733	60512	13.328	13.293	13.367
ProbeTrackDT01	29	ProbeTrack	10.4	SCS215a	20100715.131257	20100715.133443	8	0.013328	60	10	60-180	60	173	GapExp	0	208	2	75	0	distractor	1	1173	414	60926	13.328	13.232	13.457
ProbeTrackDT01	29	ProbeTrack	10.4	SCS215a	20100715.131257	20100715.133450	8	0.013328	60	10	60-180	60	175	GapExp	0	209	2	4	1	target	1	520	740	61666	13.328	13.288	13.363
ProbeTrackDT01	29	ProbeTrack	10.4	SCS215a	20100715.131257	20100715.133457	8	0.013328	60	10	60-180	60	175	GapExp	0	210	2	4	1	target	1	813	594	62260	13.328	13.129	13.493
