exp	sub	code	rev	comp	runtime	trialtime	nstim	refreshdur	cuedur	gapdur	gapOnsetRange	durPostProbe	gapOnsetTime	blocktype	prac	trial	ntargets	soa	probeTarget	resp	acc	rt	pts	tpts	meanFrameDur	minFrameDur	maxFrameDur
ProbeTrackDT01	14	ProbeTrack	10.4	SCS215a	20100707.105849	20100707.105901	8	0.013328	60	0	60-180	60	90	NoGap	1	1	2	4	1	target	1	5025	0	0	13.386	13.147	26.621
ProbeTrackDT01	14	ProbeTrack	10.4	SCS215a	20100707.105849	20100707.105911	8	0.013328	60	0	60-180	60	136	NoGap	1	2	2	4	0	distractor	1	1706	147	147	13.328	12.841	13.780
ProbeTrackDT01	14	ProbeTrack	10.4	SCS215a	20100707.105849	20100707.105918	8	0.013328	60	0	60-180	60	117	NoGap	1	3	2	2	0	distractor	1	893	554	701	13.328	13.141	13.515
ProbeTrackDT01	14	ProbeTrack	10.4	SCS215a	20100707.105849	20100707.105923	8	0.013328	60	0	60-180	60	170	NoGap	1	4	2	75	1	distractor	0	387	-1000	-299	13.328	13.270	13.385
ProbeTrackDT01	14	ProbeTrack	10.4	SCS215a	20100707.105849	20100707.105930	8	0.013328	60	0	60-180	60	109	NoGap	1	5	2	2	1	target	1	760	620	321	13.328	13.071	13.584
ProbeTrackDT01	14	ProbeTrack	10.4	SCS215a	20100707.105849	20100707.105936	8	0.013328	60	0	60-180	60	85	NoGap	1	6	2	1	1	target	1	693	654	975	13.328	13.293	13.363
ProbeTrackDT01	14	ProbeTrack	10.4	SCS215a	20100707.105849	20100707.105941	8	0.013328	60	0	60-180	60	130	NoGap	1	7	2	1	0	distractor	1	734	633	1608	13.328	13.168	13.487
ProbeTrackDT01	14	ProbeTrack	10.4	SCS215a	20100707.105849	20100707.105947	8	0.013328	60	0	60-180	60	62	NoGap	1	8	2	75	1	target	1	680	660	2268	13.328	13.063	13.594
ProbeTrackDT01	14	ProbeTrack	10.4	SCS215a	20100707.105849	20100707.105953	8	0.013328	60	0	60-180	60	88	NoGap	1	9	2	0	1	target	1	853	574	2842	13.328	13.242	13.415
ProbeTrackDT01	14	ProbeTrack	10.4	SCS215a	20100707.105849	20100707.105958	8	0.013328	60	0	60-180	60	133	NoGap	1	10	2	0	0	distractor	1	693	654	3496	13.328	13.293	13.363
ProbeTrackDT01	14	ProbeTrack	10.4	SCS215a	20100707.105849	20100707.110004	8	0.013328	60	0	60-180	60	103	NoGap	1	11	2	2	0	distractor	1	827	587	4083	13.328	13.252	13.402
ProbeTrackDT01	14	ProbeTrack	10.4	SCS215a	20100707.105849	20100707.110009	8	0.013328	60	0	60-180	60	149	NoGap	1	12	2	4	0	distractor	1	1080	460	4543	13.328	13.292	13.364
ProbeTrackDT01	14	ProbeTrack	10.4	SCS215a	20100707.105849	20100707.110016	8	0.013328	60	0	60-180	60	87	NoGap	1	13	2	2	1	target	1	760	620	5163	13.328	13.073	13.582
ProbeTrackDT01	14	ProbeTrack	10.4	SCS215a	20100707.105849	20100707.110021	8	0.013328	60	0	60-180	60	79	NoGap	1	14	2	1	1	target	1	560	720	5883	13.328	13.209	13.481
ProbeTrackDT01	14	ProbeTrack	10.4	SCS215a	20100707.105849	20100707.110026	8	0.013328	60	0	60-180	60	150	NoGap	1	15	2	0	0	distractor	1	907	547	6430	13.328	13.293	13.363
ProbeTrackDT01	14	ProbeTrack	10.4	SCS215a	20100707.105849	20100707.110032	8	0.013328	60	0	60-180	60	173	NoGap	1	16	2	75	0	distractor	1	800	600	7030	13.328	13.293	13.363
ProbeTrackDT01	14	ProbeTrack	10.4	SCS215a	20100707.105849	20100707.110039	8	0.013328	60	0	60-180	60	146	NoGap	1	17	2	0	1	target	1	840	580	7610	13.328	13.280	13.363
ProbeTrackDT01	14	ProbeTrack	10.4	SCS215a	20100707.105849	20100707.110046	8	0.013328	60	0	60-180	60	76	NoGap	1	18	2	1	1	target	1	587	707	8317	13.328	13.293	13.368
ProbeTrackDT01	14	ProbeTrack	10.4	SCS215a	20100707.105849	20100707.110051	8	0.013328	60	0	60-180	60	101	NoGap	1	19	2	1	0	distractor	1	1053	474	8791	13.328	13.216	13.440
ProbeTrackDT01	14	ProbeTrack	10.4	SCS215a	20100707.105849	20100707.110056	8	0.013328	60	0	60-180	60	92	NoGap	1	20	2	0	0	distractor	1	747	627	9418	13.328	13.292	13.363
ProbeTrackDT01	14	ProbeTrack	10.4	SCS215a	20100707.105849	20100707.110102	8	0.013328	60	0	60-180	60	136	NoGap	1	21	2	4	1	target	1	613	694	10112	13.328	13.230	13.443
ProbeTrackDT01	14	ProbeTrack	10.4	SCS215a	20100707.105849	20100707.110107	8	0.013328	60	0	60-180	60	122	NoGap	1	22	2	4	0	distractor	1	653	674	10786	13.328	13.195	13.457
ProbeTrackDT01	14	ProbeTrack	10.4	SCS215a	20100707.105849	20100707.110113	8	0.013328	60	0	60-180	60	164	NoGap	1	23	2	1	1	target	1	640	680	11466	13.328	13.225	13.397
ProbeTrackDT01	14	ProbeTrack	10.4	SCS215a	20100707.105849	20100707.110119	8	0.013328	60	0	60-180	60	138	NoGap	1	24	2	75	0	distractor	1	694	653	12119	13.328	13.125	13.497
ProbeTrackDT01	14	ProbeTrack	10.4	SCS215a	20100707.105849	20100707.110126	8	0.013328	60	0	60-180	60	146	NoGap	1	25	2	4	0	distractor	1	667	667	12786	13.328	13.134	13.521
ProbeTrackDT01	14	ProbeTrack	10.4	SCS215a	20100707.105849	20100707.110132	8	0.013328	60	0	60-180	60	142	NoGap	1	26	2	2	0	distractor	1	680	660	13446	13.328	13.293	13.363
ProbeTrackDT01	14	ProbeTrack	10.4	SCS215a	20100707.105849	20100707.110138	8	0.013328	60	0	60-180	60	88	NoGap	1	27	2	2	1	target	1	760	620	14066	13.328	13.292	13.363
ProbeTrackDT01	14	ProbeTrack	10.4	SCS215a	20100707.105849	20100707.110143	8	0.013328	60	0	60-180	60	106	NoGap	1	28	2	1	0	distractor	1	1080	460	14526	13.328	13.158	13.497
ProbeTrackDT01	14	ProbeTrack	10.4	SCS215a	20100707.105849	20100707.110149	8	0.013328	60	0	60-180	60	154	NoGap	1	29	2	4	1	target	1	587	707	15233	13.328	13.293	13.363
ProbeTrackDT01	14	ProbeTrack	10.4	SCS215a	20100707.105849	20100707.110155	8	0.013328	60	0	60-180	60	131	NoGap	1	30	2	4	1	target	1	587	707	15940	13.328	13.293	13.363
ProbeTrackDT01	14	ProbeTrack	10.4	SCS215a	20100707.105849	20100707.110201	8	0.013328	60	0	60-180	60	122	NoGap	1	31	2	0	1	target	1	507	747	16687	13.328	13.293	13.386
ProbeTrackDT01	14	ProbeTrack	10.4	SCS215a	20100707.105849	20100707.110206	8	0.013328	60	0	60-180	60	158	NoGap	1	32	2	75	1	target	1	613	694	17381	13.328	13.188	13.435
ProbeTrackDT01	14	ProbeTrack	10.4	SCS215a	20100707.105849	20100707.110213	8	0.013328	60	0	60-180	60	106	NoGap	1	33	2	0	1	target	1	653	674	18055	13.328	13.293	13.363
ProbeTrackDT01	14	ProbeTrack	10.4	SCS215a	20100707.105849	20100707.110218	8	0.013328	60	0	60-180	60	173	NoGap	1	34	2	75	1	target	1	573	714	18769	13.328	13.076	13.614
ProbeTrackDT01	14	ProbeTrack	10.4	SCS215a	20100707.105849	20100707.110225	8	0.013328	60	0	60-180	60	108	NoGap	1	35	2	2	0	distractor	1	627	687	19456	13.328	13.294	13.363
ProbeTrackDT01	14	ProbeTrack	10.4	SCS215a	20100707.105849	20100707.110231	8	0.013328	60	0	60-180	60	159	NoGap	1	36	2	0	0	distractor	1	574	713	20169	13.328	13.031	13.497
ProbeTrackDT01	14	ProbeTrack	10.4	SCS215a	20100707.105849	20100707.110237	8	0.013328	60	0	60-180	60	124	NoGap	1	37	2	75	0	distractor	1	760	620	20789	13.328	12.937	13.684
ProbeTrackDT01	14	ProbeTrack	10.4	SCS215a	20100707.105849	20100707.110244	8	0.013328	60	0	60-180	60	61	NoGap	1	38	2	2	1	target	1	560	720	21509	13.328	13.289	13.366
ProbeTrackDT01	14	ProbeTrack	10.4	SCS215a	20100707.105849	20100707.110248	8	0.013328	60	0	60-180	60	91	NoGap	1	39	2	75	0	distractor	1	707	647	22156	13.373	13.293	26.655
ProbeTrackDT01	14	ProbeTrack	10.4	SCS215a	20100707.105849	20100707.110255	8	0.013328	60	0	60-180	60	152	NoGap	1	40	2	1	0	distractor	1	813	594	22750	13.328	13.292	13.363
ProbeTrackDT01	14	ProbeTrack	10.4	SCS215a	20100707.110354	20100707.110400	8	0.013328	60	10	60-180	60	95	GapPrac	1	1	2	4	0	distractor	1	1133	434	23184	13.328	13.279	13.409
ProbeTrackDT01	14	ProbeTrack	10.4	SCS215a	20100707.110354	20100707.110405	8	0.013328	60	10	60-180	60	133	GapPrac	1	2	2	75	1	distractor	0	2732	-1000	22184	13.328	13.094	13.528
ProbeTrackDT01	14	ProbeTrack	10.4	SCS215a	20100707.110354	20100707.110414	8	0.013328	60	10	60-180	60	69	GapPrac	1	3	2	0	0	target	0	867	-1000	21184	13.328	13.293	13.367
ProbeTrackDT01	14	ProbeTrack	10.4	SCS215a	20100707.110354	20100707.110420	8	0.013328	60	10	60-180	60	69	GapPrac	1	4	2	2	1	target	1	1746	127	21311	13.328	13.292	13.363
ProbeTrackDT01	14	ProbeTrack	10.4	SCS215a	20100707.110354	20100707.110426	8	0.013328	60	10	60-180	60	180	GapPrac	1	5	2	1	1	distractor	0	1000	-1000	20311	13.328	13.150	13.506
ProbeTrackDT01	14	ProbeTrack	10.4	SCS215a	20100707.110354	20100707.110433	8	0.013328	60	10	60-180	60	90	GapPrac	1	6	2	1	0	target	0	720	-1000	19311	13.328	13.220	13.435
ProbeTrackDT01	14	ProbeTrack	10.4	SCS215a	20100707.110354	20100707.110438	8	0.013328	60	10	60-180	60	161	GapPrac	1	7	2	2	0	distractor	1	1466	267	19578	13.328	13.287	13.363
ProbeTrackDT01	14	ProbeTrack	10.4	SCS215a	20100707.110354	20100707.110445	8	0.013328	60	10	60-180	60	114	GapPrac	1	8	2	2	1	distractor	0	1600	-1000	18578	13.328	13.293	13.363
ProbeTrackDT01	14	ProbeTrack	10.4	SCS215a	20100707.110354	20100707.110452	8	0.013328	60	10	60-180	60	61	GapPrac	1	9	2	4	1	target	1	760	620	19198	13.328	13.156	13.500
ProbeTrackDT01	14	ProbeTrack	10.4	SCS215a	20100707.110354	20100707.110457	8	0.013328	60	10	60-180	60	82	GapPrac	1	10	2	75	0	target	0	1160	-1000	18198	13.328	13.293	13.363
ProbeTrackDT01	14	ProbeTrack	10.4	SCS215a	20100707.110354	20100707.110503	8	0.013328	60	10	60-180	60	115	GapPrac	1	11	2	4	1	distractor	0	907	-1000	17198	13.328	13.094	13.563
ProbeTrackDT01	14	ProbeTrack	10.4	SCS215a	20100707.110354	20100707.110509	8	0.013328	60	10	60-180	60	73	GapPrac	1	12	2	1	0	target	0	1013	-1000	16198	13.328	13.242	13.448
ProbeTrackDT01	14	ProbeTrack	10.4	SCS215a	20100707.110354	20100707.110514	8	0.013328	60	10	60-180	60	151	GapPrac	1	13	2	1	1	target	1	1173	414	16612	13.328	13.293	13.363
ProbeTrackDT01	14	ProbeTrack	10.4	SCS215a	20100707.110354	20100707.110521	8	0.013328	60	10	60-180	60	106	GapPrac	1	14	2	0	1	distractor	0	973	-1000	15612	13.328	13.265	13.423
ProbeTrackDT01	14	ProbeTrack	10.4	SCS215a	20100707.110354	20100707.110527	8	0.013328	60	10	60-180	60	145	GapPrac	1	15	2	4	0	distractor	1	787	607	16219	13.328	13.203	13.453
ProbeTrackDT01	14	ProbeTrack	10.4	SCS215a	20100707.110354	20100707.110533	8	0.013328	60	10	60-180	60	171	GapPrac	1	16	2	0	1	target	1	547	727	16946	13.328	13.116	13.506
ProbeTrackDT01	14	ProbeTrack	10.4	SCS215a	20100707.110354	20100707.110539	8	0.013328	60	10	60-180	60	154	GapPrac	1	17	2	0	0	distractor	1	627	687	17633	13.328	13.136	13.486
ProbeTrackDT01	14	ProbeTrack	10.4	SCS215a	20100707.110354	20100707.110545	8	0.013328	60	10	60-180	60	179	GapPrac	1	18	2	75	1	target	1	893	554	18187	13.328	13.293	13.364
ProbeTrackDT01	14	ProbeTrack	10.4	SCS215a	20100707.110354	20100707.110553	8	0.013328	60	10	60-180	60	127	GapPrac	1	19	2	75	0	distractor	1	533	734	18921	13.368	13.018	26.551
ProbeTrackDT01	14	ProbeTrack	10.4	SCS215a	20100707.110354	20100707.110600	8	0.013328	60	10	60-180	60	111	GapPrac	1	20	2	2	0	target	0	640	-1000	17921	13.382	13.213	13.442
ProbeTrackDT01	14	ProbeTrack	10.4	SCS215a	20100707.110804	20100707.110810	8	0.013328	60	10	60-180	60	87	GapPrac	1	1	2	2	0	target	0	467	-1000	16921	13.328	13.293	13.363
ProbeTrackDT01	14	ProbeTrack	10.4	SCS215a	20100707.110804	20100707.110815	8	0.013328	60	10	60-180	60	154	GapPrac	1	2	2	2	0	target	0	1120	-1000	15921	13.328	13.293	13.363
ProbeTrackDT01	14	ProbeTrack	10.4	SCS215a	20100707.110804	20100707.110822	8	0.013328	60	10	60-180	60	130	GapPrac	1	3	2	4	0	distractor	1	320	840	16761	13.328	13.212	13.411
ProbeTrackDT01	14	ProbeTrack	10.4	SCS215a	20100707.110804	20100707.110827	8	0.013328	60	10	60-180	60	149	GapPrac	1	4	2	4	0	target	0	307	-1000	15761	13.328	13.293	13.363
ProbeTrackDT01	14	ProbeTrack	10.4	SCS215a	20100707.110804	20100707.110833	8	0.013328	60	10	60-180	60	61	GapPrac	1	5	2	2	1	distractor	0	520	-1000	14761	13.328	13.292	13.363
ProbeTrackDT01	14	ProbeTrack	10.4	SCS215a	20100707.110804	20100707.110838	8	0.013328	60	10	60-180	60	150	GapPrac	1	6	2	75	0	target	0	467	-1000	13761	13.328	13.293	13.363
ProbeTrackDT01	14	ProbeTrack	10.4	SCS215a	20100707.110804	20100707.110845	8	0.013328	60	10	60-180	60	164	GapPrac	1	7	2	0	1	distractor	0	960	-1000	12761	13.328	13.211	13.446
ProbeTrackDT01	14	ProbeTrack	10.4	SCS215a	20100707.110804	20100707.110851	8	0.013328	60	10	60-180	60	147	GapPrac	1	8	2	75	1	target	1	747	627	13388	13.328	13.290	13.363
ProbeTrackDT01	14	ProbeTrack	10.4	SCS215a	20100707.110804	20100707.110858	8	0.013328	60	10	60-180	60	174	GapPrac	1	9	2	4	1	target	1	454	773	14161	13.328	13.158	13.497
ProbeTrackDT01	14	ProbeTrack	10.4	SCS215a	20100707.110804	20100707.110905	8	0.013328	60	10	60-180	60	81	GapPrac	1	10	2	1	0	distractor	1	454	773	14934	13.328	13.293	13.383
ProbeTrackDT01	14	ProbeTrack	10.4	SCS215a	20100707.110804	20100707.110910	8	0.013328	60	10	60-180	60	84	GapPrac	1	11	2	0	1	target	1	347	827	15761	13.328	13.033	13.655
ProbeTrackDT01	14	ProbeTrack	10.4	SCS215a	20100707.110804	20100707.110914	8	0.013328	60	10	60-180	60	66	GapPrac	1	12	2	75	0	target	0	787	-1000	14761	13.328	13.293	13.363
ProbeTrackDT01	14	ProbeTrack	10.4	SCS215a	20100707.110804	20100707.110921	8	0.013328	60	10	60-180	60	65	GapPrac	1	13	2	1	1	distractor	0	494	-1000	13761	13.328	13.293	13.362
ProbeTrackDT01	14	ProbeTrack	10.4	SCS215a	20100707.110804	20100707.110925	8	0.013328	60	10	60-180	60	164	GapPrac	1	14	2	1	1	target	1	10529	0	13761	13.328	13.173	13.482
ProbeTrackDT01	14	ProbeTrack	10.4	SCS215a	20100707.110804	20100707.110942	8	0.013328	60	10	60-180	60	138	GapPrac	1	15	2	0	0	target	0	587	-1000	12761	13.328	13.293	13.363
ProbeTrackDT01	14	ProbeTrack	10.4	SCS215a	20100707.110804	20100707.110947	8	0.013328	60	10	60-180	60	89	GapPrac	1	16	2	75	1	distractor	0	1053	-1000	11761	13.328	13.257	13.399
ProbeTrackDT01	14	ProbeTrack	10.4	SCS215a	20100707.110804	20100707.110954	8	0.013328	60	10	60-180	60	79	GapPrac	1	17	2	0	0	target	0	1080	-1000	10761	13.387	13.171	26.479
ProbeTrackDT01	14	ProbeTrack	10.4	SCS215a	20100707.110804	20100707.111000	8	0.013328	60	10	60-180	60	98	GapPrac	1	18	2	4	1	target	1	1413	294	11055	13.328	13.290	13.363
ProbeTrackDT01	14	ProbeTrack	10.4	SCS215a	20100707.110804	20100707.111006	8	0.013328	60	10	60-180	60	107	GapPrac	1	19	2	2	1	distractor	0	520	-1000	10055	13.328	13.027	13.612
ProbeTrackDT01	14	ProbeTrack	10.4	SCS215a	20100707.110804	20100707.111011	8	0.013328	60	10	60-180	60	90	GapPrac	1	20	2	1	0	target	0	547	-1000	9055	13.328	13.244	13.411
ProbeTrackDT01	14	ProbeTrack	10.4	SCS215a	20100707.111143	20100707.111213	8	0.013328	60	10	60-180	60	113	GapExp	1	1	2	0	1	target	1	440	780	9835	13.328	13.066	13.555
ProbeTrackDT01	14	ProbeTrack	10.4	SCS215a	20100707.111143	20100707.111219	8	0.013328	60	10	60-180	60	115	GapExp	1	2	2	75	1	distractor	0	520	-1000	8835	13.328	13.240	13.416
ProbeTrackDT01	14	ProbeTrack	10.4	SCS215a	20100707.111143	20100707.111225	8	0.013328	60	10	60-180	60	124	GapExp	1	3	2	1	0	target	0	893	-1000	7835	13.328	13.272	13.363
ProbeTrackDT01	14	ProbeTrack	10.4	SCS215a	20100707.111143	20100707.111231	8	0.013328	60	10	60-180	60	135	GapExp	1	4	2	1	1	distractor	0	507	-1000	6835	13.328	13.145	13.511
ProbeTrackDT01	14	ProbeTrack	10.4	SCS215a	20100707.111143	20100707.111237	8	0.013328	60	10	60-180	60	99	GapExp	1	5	2	0	0	target	0	893	-1000	5835	13.328	13.172	13.450
ProbeTrackDT01	14	ProbeTrack	10.4	SCS215a	20100707.111143	20100707.111242	8	0.013328	60	10	60-180	60	131	GapExp	1	6	2	2	0	distractor	1	1533	234	6069	13.328	13.293	13.363
ProbeTrackDT01	14	ProbeTrack	10.4	SCS215a	20100707.111143	20100707.111249	8	0.013328	60	10	60-180	60	82	GapExp	1	7	2	75	0	target	0	773	-1000	5069	13.328	13.269	13.363
ProbeTrackDT01	14	ProbeTrack	10.4	SCS215a	20100707.111143	20100707.111256	8	0.013328	60	10	60-180	60	148	GapExp	1	8	2	4	0	target	0	414	-1000	4069	13.328	13.277	13.365
ProbeTrackDT01	14	ProbeTrack	10.4	SCS215a	20100707.111143	20100707.111301	8	0.013328	60	10	60-180	60	92	GapExp	1	9	2	2	1	distractor	0	1107	-1000	3069	13.440	13.293	26.660
ProbeTrackDT01	14	ProbeTrack	10.4	SCS215a	20100707.111143	20100707.111307	8	0.013328	60	10	60-180	60	85	GapExp	1	10	2	4	1	distractor	0	1360	-1000	2069	13.328	13.293	13.363
ProbeTrackDT01	14	ProbeTrack	10.4	SCS215a	20100707.111143	20100707.111313	8	0.013328	60	10	60-180	60	91	GapExp	0	11	2	75	1	target	1	973	514	2583	13.328	13.140	13.510
ProbeTrackDT01	14	ProbeTrack	10.4	SCS215a	20100707.111143	20100707.111320	8	0.013328	60	10	60-180	60	176	GapExp	0	12	2	75	1	target	1	1666	167	2750	13.328	13.196	13.427
ProbeTrackDT01	14	ProbeTrack	10.4	SCS215a	20100707.111143	20100707.111328	8	0.013328	60	10	60-180	60	151	GapExp	0	13	2	4	1	target	1	1040	480	3230	13.328	13.217	13.438
ProbeTrackDT01	14	ProbeTrack	10.4	SCS215a	20100707.111143	20100707.111335	8	0.013328	60	10	60-180	60	69	GapExp	0	14	2	75	0	distractor	1	920	540	3770	13.328	13.293	13.363
ProbeTrackDT01	14	ProbeTrack	10.4	SCS215a	20100707.111143	20100707.111341	8	0.013328	60	10	60-180	60	97	GapExp	0	15	2	4	0	target	0	840	-1000	2770	13.328	13.293	13.363
ProbeTrackDT01	14	ProbeTrack	10.4	SCS215a	20100707.111143	20100707.111347	8	0.013328	60	10	60-180	60	115	GapExp	0	16	2	0	1	target	1	640	680	3450	13.328	13.092	13.528
ProbeTrackDT01	14	ProbeTrack	10.4	SCS215a	20100707.111143	20100707.111352	8	0.013328	60	10	60-180	60	131	GapExp	0	17	2	0	1	distractor	0	667	-1000	2450	13.328	13.293	13.363
ProbeTrackDT01	14	ProbeTrack	10.4	SCS215a	20100707.111143	20100707.111358	8	0.013328	60	10	60-180	60	168	GapExp	0	18	2	75	1	distractor	0	667	-1000	1450	13.328	13.043	13.612
ProbeTrackDT01	14	ProbeTrack	10.4	SCS215a	20100707.111143	20100707.111405	8	0.013328	60	10	60-180	60	155	GapExp	0	19	2	4	0	target	0	440	-1000	450	13.328	12.961	13.694
ProbeTrackDT01	14	ProbeTrack	10.4	SCS215a	20100707.111143	20100707.111411	8	0.013328	60	10	60-180	60	170	GapExp	0	20	2	75	1	target	1	454	773	1223	13.328	13.003	13.652
ProbeTrackDT01	14	ProbeTrack	10.4	SCS215a	20100707.111143	20100707.111419	8	0.013328	60	10	60-180	60	177	GapExp	0	21	2	0	0	target	0	933	-1000	223	13.328	13.142	13.481
ProbeTrackDT01	14	ProbeTrack	10.4	SCS215a	20100707.111143	20100707.111425	8	0.013328	60	10	60-180	60	103	GapExp	0	22	2	75	0	target	0	1227	-1000	-777	13.328	12.919	13.736
ProbeTrackDT01	14	ProbeTrack	10.4	SCS215a	20100707.111143	20100707.111432	8	0.013328	60	10	60-180	60	96	GapExp	0	23	2	2	0	target	0	1613	-1000	-1777	13.328	13.161	13.529
ProbeTrackDT01	14	ProbeTrack	10.4	SCS215a	20100707.111143	20100707.111439	8	0.013328	60	10	60-180	60	97	GapExp	0	24	2	1	0	distractor	1	534	733	-1044	13.328	13.218	13.439
ProbeTrackDT01	14	ProbeTrack	10.4	SCS215a	20100707.111143	20100707.111444	8	0.013328	60	10	60-180	60	134	GapExp	0	25	2	4	0	target	0	667	-1000	-2044	13.328	13.166	13.475
ProbeTrackDT01	14	ProbeTrack	10.4	SCS215a	20100707.111143	20100707.111450	8	0.013328	60	10	60-180	60	174	GapExp	0	26	2	2	0	distractor	1	387	807	-1237	13.328	13.054	13.635
ProbeTrackDT01	14	ProbeTrack	10.4	SCS215a	20100707.111143	20100707.111456	8	0.013328	60	10	60-180	60	69	GapExp	0	27	2	1	0	distractor	1	640	680	-557	13.328	12.982	13.640
ProbeTrackDT01	14	ProbeTrack	10.4	SCS215a	20100707.111143	20100707.111501	8	0.013328	60	10	60-180	60	113	GapExp	0	28	2	2	1	target	1	1107	447	-110	13.328	13.281	13.363
ProbeTrackDT01	14	ProbeTrack	10.4	SCS215a	20100707.111143	20100707.111507	8	0.013328	60	10	60-180	60	83	GapExp	0	29	2	0	1	distractor	0	880	-1000	-1110	13.328	13.026	13.663
ProbeTrackDT01	14	ProbeTrack	10.4	SCS215a	20100707.111143	20100707.111513	8	0.013328	60	10	60-180	60	72	GapExp	0	30	2	75	1	target	1	627	687	-423	13.328	13.098	13.557
ProbeTrackDT01	14	ProbeTrack	10.4	SCS215a	20100707.111143	20100707.111519	8	0.013328	60	10	60-180	60	109	GapExp	0	31	2	1	1	target	1	853	574	151	13.328	13.114	13.544
ProbeTrackDT01	14	ProbeTrack	10.4	SCS215a	20100707.111143	20100707.111524	8	0.013328	60	10	60-180	60	85	GapExp	0	32	2	0	1	distractor	0	547	-1000	-849	13.328	13.259	13.407
ProbeTrackDT01	14	ProbeTrack	10.4	SCS215a	20100707.111143	20100707.111529	8	0.013328	60	10	60-180	60	99	GapExp	0	33	2	1	0	distractor	1	1160	420	-429	13.328	13.274	13.365
ProbeTrackDT01	14	ProbeTrack	10.4	SCS215a	20100707.111143	20100707.111535	8	0.013328	60	10	60-180	60	158	GapExp	0	34	2	1	1	distractor	0	1227	-1000	-1429	13.328	13.122	13.562
ProbeTrackDT01	14	ProbeTrack	10.4	SCS215a	20100707.111143	20100707.111542	8	0.013328	60	10	60-180	60	78	GapExp	0	35	2	75	0	target	0	0	-1000	-2429	13.328	13.198	13.457
ProbeTrackDT01	14	ProbeTrack	10.4	SCS215a	20100707.111143	20100707.111548	8	0.013328	60	10	60-180	60	100	GapExp	0	36	2	75	0	target	0	467	-1000	-3429	13.328	13.289	13.368
ProbeTrackDT01	14	ProbeTrack	10.4	SCS215a	20100707.111143	20100707.111554	8	0.013328	60	10	60-180	60	90	GapExp	0	37	2	0	0	distractor	1	614	693	-2736	13.328	13.293	13.363
ProbeTrackDT01	14	ProbeTrack	10.4	SCS215a	20100707.111143	20100707.111559	8	0.013328	60	10	60-180	60	92	GapExp	0	38	2	75	1	distractor	0	-13	-1000	-3736	13.328	13.241	13.415
ProbeTrackDT01	14	ProbeTrack	10.4	SCS215a	20100707.111143	20100707.111605	8	0.013328	60	10	60-180	60	130	GapExp	0	39	2	2	1	distractor	0	720	-1000	-4736	13.328	13.167	13.523
ProbeTrackDT01	14	ProbeTrack	10.4	SCS215a	20100707.111143	20100707.111611	8	0.013328	60	10	60-180	60	103	GapExp	0	40	2	4	0	distractor	1	1613	194	-4542	13.328	13.233	13.456
ProbeTrackDT01	14	ProbeTrack	10.4	SCS215a	20100707.111143	20100707.111617	8	0.013328	60	10	60-180	60	127	GapExp	0	41	2	75	1	target	1	654	673	-3869	13.328	13.220	13.412
ProbeTrackDT01	14	ProbeTrack	10.4	SCS215a	20100707.111143	20100707.111624	8	0.013328	60	10	60-180	60	124	GapExp	0	42	2	1	0	distractor	1	467	767	-3102	13.328	11.281	15.340
ProbeTrackDT01	14	ProbeTrack	10.4	SCS215a	20100707.111143	20100707.111629	8	0.013328	60	10	60-180	60	106	GapExp	0	43	2	1	1	distractor	0	1466	-1000	-4102	13.328	13.078	13.610
ProbeTrackDT01	14	ProbeTrack	10.4	SCS215a	20100707.111143	20100707.111636	8	0.013328	60	10	60-180	60	134	GapExp	0	44	2	4	1	target	1	1200	400	-3702	13.328	13.143	13.513
ProbeTrackDT01	14	ProbeTrack	10.4	SCS215a	20100707.111143	20100707.111642	8	0.013328	60	10	60-180	60	176	GapExp	0	45	2	1	0	target	0	734	-1000	-4702	13.328	13.293	13.363
ProbeTrackDT01	14	ProbeTrack	10.4	SCS215a	20100707.111143	20100707.111649	8	0.013328	60	10	60-180	60	94	GapExp	0	46	2	0	0	target	0	2786	-1000	-5702	13.328	13.293	13.393
ProbeTrackDT01	14	ProbeTrack	10.4	SCS215a	20100707.111143	20100707.111656	8	0.013328	60	10	60-180	60	162	GapExp	0	47	2	0	1	distractor	0	800	-1000	-6702	13.328	13.270	13.419
ProbeTrackDT01	14	ProbeTrack	10.4	SCS215a	20100707.111143	20100707.111703	8	0.013328	60	10	60-180	60	131	GapExp	0	48	2	0	1	target	1	720	640	-6062	13.328	13.053	13.603
ProbeTrackDT01	14	ProbeTrack	10.4	SCS215a	20100707.111143	20100707.111708	8	0.013328	60	10	60-180	60	144	GapExp	0	49	2	1	1	target	1	627	687	-5375	13.328	13.159	13.532
ProbeTrackDT01	14	ProbeTrack	10.4	SCS215a	20100707.111143	20100707.111714	8	0.013328	60	10	60-180	60	74	GapExp	0	50	2	2	1	distractor	0	587	-1000	-6375	13.328	13.201	13.421
ProbeTrackDT01	14	ProbeTrack	10.4	SCS215a	20100707.111143	20100707.111731	8	0.013328	60	10	60-180	60	158	GapExp	0	51	2	75	1	target	1	960	520	-5855	13.328	12.962	13.694
ProbeTrackDT01	14	ProbeTrack	10.4	SCS215a	20100707.111143	20100707.111739	8	0.013328	60	10	60-180	60	83	GapExp	0	52	2	2	0	distractor	1	1573	214	-5641	13.328	13.186	13.469
ProbeTrackDT01	14	ProbeTrack	10.4	SCS215a	20100707.111143	20100707.111745	8	0.013328	60	10	60-180	60	163	GapExp	0	53	2	75	0	target	0	920	-1000	-6641	13.328	13.062	13.593
ProbeTrackDT01	14	ProbeTrack	10.4	SCS215a	20100707.111143	20100707.111752	8	0.013328	60	10	60-180	60	134	GapExp	0	54	2	75	1	distractor	0	507	-1000	-7641	13.328	13.200	13.489
ProbeTrackDT01	14	ProbeTrack	10.4	SCS215a	20100707.111143	20100707.111759	8	0.013328	60	10	60-180	60	106	GapExp	0	55	2	4	1	distractor	0	573	-1000	-8641	13.328	13.013	13.643
ProbeTrackDT01	14	ProbeTrack	10.4	SCS215a	20100707.111143	20100707.111805	8	0.013328	60	10	60-180	60	137	GapExp	0	56	2	1	0	target	0	800	-1000	-9641	13.328	12.983	13.639
ProbeTrackDT01	14	ProbeTrack	10.4	SCS215a	20100707.111143	20100707.111811	8	0.013328	60	10	60-180	60	87	GapExp	0	57	2	75	0	target	0	534	-1000	-10641	13.328	13.075	13.547
ProbeTrackDT01	14	ProbeTrack	10.4	SCS215a	20100707.111143	20100707.111817	8	0.013328	60	10	60-180	60	67	GapExp	0	58	2	75	0	target	0	2093	-1000	-11641	13.328	13.055	13.600
ProbeTrackDT01	14	ProbeTrack	10.4	SCS215a	20100707.111143	20100707.111824	8	0.013328	60	10	60-180	60	169	GapExp	0	59	2	1	0	distractor	1	334	833	-10808	13.328	13.288	13.363
ProbeTrackDT01	14	ProbeTrack	10.4	SCS215a	20100707.111143	20100707.111830	8	0.013328	60	10	60-180	60	106	GapExp	0	60	2	75	1	distractor	0	480	-1000	-11808	13.328	13.209	13.412
ProbeTrackDT01	14	ProbeTrack	10.4	SCS215a	20100707.111143	20100707.111837	8	0.013328	60	10	60-180	60	120	GapExp	0	61	2	4	1	distractor	0	680	-1000	-12808	13.328	13.287	13.363
ProbeTrackDT01	14	ProbeTrack	10.4	SCS215a	20100707.111143	20100707.111842	8	0.013328	60	10	60-180	60	131	GapExp	0	62	2	0	1	distractor	0	813	-1000	-13808	13.328	13.293	13.363
ProbeTrackDT01	14	ProbeTrack	10.4	SCS215a	20100707.111143	20100707.111848	8	0.013328	60	10	60-180	60	108	GapExp	0	63	2	1	0	distractor	1	960	520	-13288	13.328	13.258	13.398
ProbeTrackDT01	14	ProbeTrack	10.4	SCS215a	20100707.111143	20100707.111854	8	0.013328	60	10	60-180	60	159	GapExp	0	64	2	0	0	target	0	440	-1000	-14288	13.328	13.243	13.380
ProbeTrackDT01	14	ProbeTrack	10.4	SCS215a	20100707.111143	20100707.111900	8	0.013328	60	10	60-180	60	160	GapExp	0	65	2	75	1	distractor	0	454	-1000	-15288	13.328	13.142	13.481
ProbeTrackDT01	14	ProbeTrack	10.4	SCS215a	20100707.111143	20100707.111907	8	0.013328	60	10	60-180	60	86	GapExp	0	66	2	2	0	target	0	1333	-1000	-16288	13.328	13.292	13.363
ProbeTrackDT01	14	ProbeTrack	10.4	SCS215a	20100707.111143	20100707.111913	8	0.013328	60	10	60-180	60	169	GapExp	0	67	2	0	0	target	0	2013	-1000	-17288	13.328	12.934	13.721
ProbeTrackDT01	14	ProbeTrack	10.4	SCS215a	20100707.111143	20100707.111921	8	0.013328	60	10	60-180	60	100	GapExp	0	68	2	75	1	target	1	1120	440	-16848	13.328	13.293	13.363
ProbeTrackDT01	14	ProbeTrack	10.4	SCS215a	20100707.111143	20100707.111928	8	0.013328	60	10	60-180	60	161	GapExp	0	69	2	4	0	target	0	960	-1000	-17848	13.328	13.159	13.497
ProbeTrackDT01	14	ProbeTrack	10.4	SCS215a	20100707.111143	20100707.111934	8	0.013328	60	10	60-180	60	103	GapExp	0	70	2	2	1	target	1	2719	0	-17848	13.328	13.080	13.542
ProbeTrackDT01	14	ProbeTrack	10.4	SCS215a	20100707.111143	20100707.111942	8	0.013328	60	10	60-180	60	116	GapExp	0	71	2	75	0	distractor	1	1426	287	-17561	13.328	13.290	13.363
ProbeTrackDT01	14	ProbeTrack	10.4	SCS215a	20100707.111143	20100707.111949	8	0.013328	60	10	60-180	60	164	GapExp	0	72	2	75	0	target	0	400	-1000	-18561	13.328	13.162	13.493
ProbeTrackDT01	14	ProbeTrack	10.4	SCS215a	20100707.111143	20100707.111956	8	0.013328	60	10	60-180	60	74	GapExp	0	73	2	2	1	distractor	0	1133	-1000	-19561	13.328	13.293	13.363
ProbeTrackDT01	14	ProbeTrack	10.4	SCS215a	20100707.111143	20100707.112002	8	0.013328	60	10	60-180	60	66	GapExp	0	74	2	0	1	target	1	2146	0	-19561	13.328	13.293	13.363
ProbeTrackDT01	14	ProbeTrack	10.4	SCS215a	20100707.111143	20100707.112008	8	0.013328	60	10	60-180	60	61	GapExp	0	75	2	75	1	target	1	1573	214	-19347	13.328	13.190	13.432
ProbeTrackDT01	14	ProbeTrack	10.4	SCS215a	20100707.111143	20100707.112015	8	0.013328	60	10	60-180	60	90	GapExp	0	76	2	2	0	target	0	1733	-1000	-20347	13.328	13.293	13.364
ProbeTrackDT01	14	ProbeTrack	10.4	SCS215a	20100707.111143	20100707.112022	8	0.013328	60	10	60-180	60	107	GapExp	0	77	2	0	0	distractor	1	1133	434	-19913	13.328	13.292	13.363
ProbeTrackDT01	14	ProbeTrack	10.4	SCS215a	20100707.111143	20100707.112028	8	0.013328	60	10	60-180	60	68	GapExp	0	78	2	0	0	target	0	787	-1000	-20913	13.328	13.275	13.415
ProbeTrackDT01	14	ProbeTrack	10.4	SCS215a	20100707.111143	20100707.112033	8	0.013328	60	10	60-180	60	105	GapExp	0	79	2	0	0	distractor	1	573	714	-20199	13.328	13.192	13.498
ProbeTrackDT01	14	ProbeTrack	10.4	SCS215a	20100707.111143	20100707.112038	8	0.013328	60	10	60-180	60	67	GapExp	0	80	2	1	1	distractor	0	973	-1000	-21199	13.328	13.211	13.478
ProbeTrackDT01	14	ProbeTrack	10.4	SCS215a	20100707.111143	20100707.112044	8	0.013328	60	10	60-180	60	103	GapExp	0	81	2	1	1	target	1	1160	420	-20779	13.328	13.293	13.365
ProbeTrackDT01	14	ProbeTrack	10.4	SCS215a	20100707.111143	20100707.112049	8	0.013328	60	10	60-180	60	131	GapExp	0	82	2	4	1	target	1	693	654	-20125	13.328	13.183	13.474
ProbeTrackDT01	14	ProbeTrack	10.4	SCS215a	20100707.111143	20100707.112055	8	0.013328	60	10	60-180	60	102	GapExp	0	83	2	2	0	target	0	1800	-1000	-21125	13.328	13.235	13.420
ProbeTrackDT01	14	ProbeTrack	10.4	SCS215a	20100707.111143	20100707.112102	8	0.013328	60	10	60-180	60	175	GapExp	0	84	2	0	0	distractor	1	1786	107	-21018	13.328	13.260	13.397
ProbeTrackDT01	14	ProbeTrack	10.4	SCS215a	20100707.111143	20100707.112110	8	0.013328	60	10	60-180	60	95	GapExp	0	85	2	2	0	target	0	1067	-1000	-22018	13.328	13.060	13.561
ProbeTrackDT01	14	ProbeTrack	10.4	SCS215a	20100707.111143	20100707.112115	8	0.013328	60	10	60-180	60	146	GapExp	0	86	2	1	0	distractor	1	600	700	-21318	13.328	13.195	13.461
ProbeTrackDT01	14	ProbeTrack	10.4	SCS215a	20100707.111143	20100707.112121	8	0.013328	60	10	60-180	60	86	GapExp	0	87	2	1	1	target	1	1906	47	-21271	13.328	13.291	13.363
ProbeTrackDT01	14	ProbeTrack	10.4	SCS215a	20100707.111143	20100707.112128	8	0.013328	60	10	60-180	60	169	GapExp	0	88	2	4	0	distractor	1	760	620	-20651	13.328	13.288	13.367
ProbeTrackDT01	14	ProbeTrack	10.4	SCS215a	20100707.111143	20100707.112134	8	0.013328	60	10	60-180	60	73	GapExp	0	89	2	1	1	distractor	0	1653	-1000	-21651	13.328	13.293	13.363
ProbeTrackDT01	14	ProbeTrack	10.4	SCS215a	20100707.111143	20100707.112140	8	0.013328	60	10	60-180	60	90	GapExp	0	90	2	1	0	target	0	853	-1000	-22651	13.328	13.293	13.369
ProbeTrackDT01	14	ProbeTrack	10.4	SCS215a	20100707.111143	20100707.112146	8	0.013328	60	10	60-180	60	96	GapExp	0	91	2	75	0	target	0	480	-1000	-23651	13.328	13.293	13.363
ProbeTrackDT01	14	ProbeTrack	10.4	SCS215a	20100707.111143	20100707.112152	8	0.013328	60	10	60-180	60	163	GapExp	0	92	2	75	0	distractor	1	1067	467	-23184	13.328	13.089	13.533
ProbeTrackDT01	14	ProbeTrack	10.4	SCS215a	20100707.111143	20100707.112200	8	0.013328	60	10	60-180	60	131	GapExp	0	93	2	1	0	distractor	1	1600	200	-22984	13.328	13.125	13.529
ProbeTrackDT01	14	ProbeTrack	10.4	SCS215a	20100707.111143	20100707.112207	8	0.013328	60	10	60-180	60	100	GapExp	0	94	2	0	1	distractor	0	707	-1000	-23984	13.328	13.201	13.488
ProbeTrackDT01	14	ProbeTrack	10.4	SCS215a	20100707.111143	20100707.112212	8	0.013328	60	10	60-180	60	152	GapExp	0	95	2	4	1	target	1	600	700	-23284	13.328	13.224	13.431
ProbeTrackDT01	14	ProbeTrack	10.4	SCS215a	20100707.111143	20100707.112218	8	0.013328	60	10	60-180	60	164	GapExp	0	96	2	75	0	target	0	587	-1000	-24284	13.328	13.222	13.398
ProbeTrackDT01	14	ProbeTrack	10.4	SCS215a	20100707.111143	20100707.112225	8	0.013328	60	10	60-180	60	125	GapExp	0	97	2	2	1	distractor	0	907	-1000	-25284	13.328	13.291	13.363
ProbeTrackDT01	14	ProbeTrack	10.4	SCS215a	20100707.111143	20100707.112232	8	0.013328	60	10	60-180	60	80	GapExp	0	98	2	2	0	target	0	627	-1000	-26284	13.328	13.132	13.558
ProbeTrackDT01	14	ProbeTrack	10.4	SCS215a	20100707.111143	20100707.112237	8	0.013328	60	10	60-180	60	99	GapExp	0	99	2	1	1	target	1	1520	240	-26044	13.328	13.292	13.374
ProbeTrackDT01	14	ProbeTrack	10.4	SCS215a	20100707.111143	20100707.112243	8	0.013328	60	10	60-180	60	121	GapExp	0	100	2	0	0	target	0	1693	-1000	-27044	13.328	13.288	13.363
ProbeTrackDT01	14	ProbeTrack	10.4	SCS215a	20100707.111143	20100707.112306	8	0.013328	60	10	60-180	60	106	GapExp	0	101	2	4	1	target	1	733	634	-26410	13.328	13.293	13.363
ProbeTrackDT01	14	ProbeTrack	10.4	SCS215a	20100707.111143	20100707.112311	8	0.013328	60	10	60-180	60	121	GapExp	0	102	2	0	0	distractor	1	627	687	-25723	13.328	13.166	13.523
ProbeTrackDT01	14	ProbeTrack	10.4	SCS215a	20100707.111143	20100707.112317	8	0.013328	60	10	60-180	60	76	GapExp	0	103	2	4	1	distractor	0	494	-1000	-26723	13.328	13.293	13.363
ProbeTrackDT01	14	ProbeTrack	10.4	SCS215a	20100707.111143	20100707.112322	8	0.013328	60	10	60-180	60	165	GapExp	0	104	2	1	0	target	0	1493	-1000	-27723	13.328	13.149	13.540
ProbeTrackDT01	14	ProbeTrack	10.4	SCS215a	20100707.111143	20100707.112329	8	0.013328	60	10	60-180	60	116	GapExp	0	105	2	75	0	target	0	1706	-1000	-28723	13.328	13.203	13.420
ProbeTrackDT01	14	ProbeTrack	10.4	SCS215a	20100707.111143	20100707.112337	8	0.013328	60	10	60-180	60	89	GapExp	0	106	2	2	1	target	1	1533	234	-28489	13.328	13.263	13.392
ProbeTrackDT01	14	ProbeTrack	10.4	SCS215a	20100707.111143	20100707.112343	8	0.013328	60	10	60-180	60	146	GapExp	0	107	2	75	1	target	1	1147	427	-28062	13.328	13.252	13.404
ProbeTrackDT01	14	ProbeTrack	10.4	SCS215a	20100707.111143	20100707.112351	8	0.013328	60	10	60-180	60	113	GapExp	0	108	2	2	0	distractor	1	1053	474	-27588	13.328	13.293	13.363
ProbeTrackDT01	14	ProbeTrack	10.4	SCS215a	20100707.111143	20100707.112357	8	0.013328	60	10	60-180	60	69	GapExp	0	109	2	4	1	distractor	0	1533	-1000	-28588	13.328	13.217	13.438
ProbeTrackDT01	14	ProbeTrack	10.4	SCS215a	20100707.111143	20100707.112403	8	0.013328	60	10	60-180	60	130	GapExp	0	110	2	75	0	target	0	454	-1000	-29588	13.328	13.079	13.609
ProbeTrackDT01	14	ProbeTrack	10.4	SCS215a	20100707.111143	20100707.112409	8	0.013328	60	10	60-180	60	83	GapExp	0	111	2	2	1	distractor	0	627	-1000	-30588	13.328	13.293	13.363
ProbeTrackDT01	14	ProbeTrack	10.4	SCS215a	20100707.111143	20100707.112414	8	0.013328	60	10	60-180	60	71	GapExp	0	112	2	4	0	distractor	1	1200	400	-30188	13.328	13.289	13.363
ProbeTrackDT01	14	ProbeTrack	10.4	SCS215a	20100707.111143	20100707.112420	8	0.013328	60	10	60-180	60	63	GapExp	0	113	2	0	1	target	1	1933	34	-30154	13.328	13.293	13.363
ProbeTrackDT01	14	ProbeTrack	10.4	SCS215a	20100707.111143	20100707.112426	8	0.013328	60	10	60-180	60	105	GapExp	0	114	2	75	0	distractor	1	1400	300	-29854	13.328	13.203	13.487
ProbeTrackDT01	14	ProbeTrack	10.4	SCS215a	20100707.111143	20100707.112433	8	0.013328	60	10	60-180	60	123	GapExp	0	115	2	2	0	target	0	480	-1000	-30854	13.328	13.185	13.436
ProbeTrackDT01	14	ProbeTrack	10.4	SCS215a	20100707.111143	20100707.112439	8	0.013328	60	10	60-180	60	168	GapExp	0	116	2	75	1	distractor	0	1280	-1000	-31854	13.328	13.293	13.367
ProbeTrackDT01	14	ProbeTrack	10.4	SCS215a	20100707.111143	20100707.112447	8	0.013328	60	10	60-180	60	66	GapExp	0	117	2	2	1	distractor	0	573	-1000	-32854	13.328	13.159	13.463
ProbeTrackDT01	14	ProbeTrack	10.4	SCS215a	20100707.111143	20100707.112452	8	0.013328	60	10	60-180	60	116	GapExp	0	118	2	0	0	target	0	1000	-1000	-33854	13.328	13.292	13.365
ProbeTrackDT01	14	ProbeTrack	10.4	SCS215a	20100707.111143	20100707.112458	8	0.013328	60	10	60-180	60	115	GapExp	0	119	2	1	0	distractor	1	573	714	-33140	13.328	13.074	13.548
ProbeTrackDT01	14	ProbeTrack	10.4	SCS215a	20100707.111143	20100707.112503	8	0.013328	60	10	60-180	60	125	GapExp	0	120	2	75	0	distractor	1	1053	474	-32666	13.328	13.290	13.366
ProbeTrackDT01	14	ProbeTrack	10.4	SCS215a	20100707.111143	20100707.112511	8	0.013328	60	10	60-180	60	138	GapExp	0	121	2	1	0	distractor	1	1173	414	-32252	13.328	13.134	13.555
ProbeTrackDT01	14	ProbeTrack	10.4	SCS215a	20100707.111143	20100707.112517	8	0.013328	60	10	60-180	60	145	GapExp	0	122	2	4	0	target	0	1000	-1000	-33252	13.328	13.254	13.436
ProbeTrackDT01	14	ProbeTrack	10.4	SCS215a	20100707.111143	20100707.112524	8	0.013328	60	10	60-180	60	167	GapExp	0	123	2	75	0	target	0	1266	-1000	-34252	13.328	13.293	13.364
ProbeTrackDT01	14	ProbeTrack	10.4	SCS215a	20100707.111143	20100707.112531	8	0.013328	60	10	60-180	60	103	GapExp	0	124	2	4	1	distractor	0	1173	-1000	-35252	13.328	13.265	13.390
ProbeTrackDT01	14	ProbeTrack	10.4	SCS215a	20100707.111143	20100707.112538	8	0.013328	60	10	60-180	60	167	GapExp	0	125	2	2	1	target	1	1533	234	-35018	13.328	13.234	13.455
ProbeTrackDT01	14	ProbeTrack	10.4	SCS215a	20100707.111143	20100707.112545	8	0.013328	60	10	60-180	60	123	GapExp	0	126	2	4	1	target	1	1386	307	-34711	13.328	13.293	13.363
ProbeTrackDT01	14	ProbeTrack	10.4	SCS215a	20100707.111143	20100707.112551	8	0.013328	60	10	60-180	60	84	GapExp	0	127	2	75	1	target	1	1626	187	-34524	13.328	13.293	13.363
ProbeTrackDT01	14	ProbeTrack	10.4	SCS215a	20100707.111143	20100707.112558	8	0.013328	60	10	60-180	60	128	GapExp	0	128	2	4	0	target	0	1013	-1000	-35524	13.328	13.293	13.364
ProbeTrackDT01	14	ProbeTrack	10.4	SCS215a	20100707.111143	20100707.112605	8	0.013328	60	10	60-180	60	84	GapExp	0	129	2	4	1	distractor	0	1266	-1000	-36524	13.328	13.232	13.425
ProbeTrackDT01	14	ProbeTrack	10.4	SCS215a	20100707.111143	20100707.112611	8	0.013328	60	10	60-180	60	65	GapExp	0	130	2	4	0	target	0	973	-1000	-37524	13.328	13.285	13.372
ProbeTrackDT01	14	ProbeTrack	10.4	SCS215a	20100707.111143	20100707.112616	8	0.013328	60	10	60-180	60	180	GapExp	0	131	2	2	0	distractor	1	1253	374	-37150	13.328	13.290	13.363
ProbeTrackDT01	14	ProbeTrack	10.4	SCS215a	20100707.111143	20100707.112623	8	0.013328	60	10	60-180	60	86	GapExp	0	132	2	75	1	target	1	1520	240	-36910	13.328	13.293	13.363
ProbeTrackDT01	14	ProbeTrack	10.4	SCS215a	20100707.111143	20100707.112630	8	0.013328	60	10	60-180	60	76	GapExp	0	133	2	1	0	target	0	613	-1000	-37910	13.328	13.290	13.363
ProbeTrackDT01	14	ProbeTrack	10.4	SCS215a	20100707.111143	20100707.112635	8	0.013328	60	10	60-180	60	156	GapExp	0	134	2	0	1	distractor	0	1480	-1000	-38910	13.328	13.111	13.511
ProbeTrackDT01	14	ProbeTrack	10.4	SCS215a	20100707.111143	20100707.112642	8	0.013328	60	10	60-180	60	171	GapExp	0	135	2	4	1	target	1	1600	200	-38710	13.328	13.259	13.396
ProbeTrackDT01	14	ProbeTrack	10.4	SCS215a	20100707.111143	20100707.112650	8	0.013328	60	10	60-180	60	146	GapExp	0	136	2	0	0	target	0	1653	-1000	-39710	13.328	13.291	13.366
ProbeTrackDT01	14	ProbeTrack	10.4	SCS215a	20100707.111143	20100707.112657	8	0.013328	60	10	60-180	60	76	GapExp	0	137	2	2	1	distractor	0	1613	-1000	-40710	13.328	13.292	13.363
ProbeTrackDT01	14	ProbeTrack	10.4	SCS215a	20100707.111143	20100707.112703	8	0.013328	60	10	60-180	60	92	GapExp	0	138	2	2	0	distractor	1	2146	0	-40710	13.328	13.204	13.452
ProbeTrackDT01	14	ProbeTrack	10.4	SCS215a	20100707.111143	20100707.112709	8	0.013328	60	10	60-180	60	148	GapExp	0	139	2	75	0	distractor	1	787	607	-40103	13.328	13.293	13.363
ProbeTrackDT01	14	ProbeTrack	10.4	SCS215a	20100707.111143	20100707.112717	8	0.013328	60	10	60-180	60	111	GapExp	0	140	2	2	0	target	0	1000	-1000	-41103	13.328	13.102	13.520
ProbeTrackDT01	14	ProbeTrack	10.4	SCS215a	20100707.111143	20100707.112723	8	0.013328	60	10	60-180	60	179	GapExp	0	141	2	4	0	distractor	1	693	654	-40449	13.328	13.127	13.529
ProbeTrackDT01	14	ProbeTrack	10.4	SCS215a	20100707.111143	20100707.112729	8	0.013328	60	10	60-180	60	122	GapExp	0	142	2	75	0	distractor	1	1413	294	-40155	13.328	13.197	13.458
ProbeTrackDT01	14	ProbeTrack	10.4	SCS215a	20100707.111143	20100707.112737	8	0.013328	60	10	60-180	60	159	GapExp	0	143	2	4	1	target	1	1760	120	-40035	13.328	13.293	13.363
ProbeTrackDT01	14	ProbeTrack	10.4	SCS215a	20100707.111143	20100707.112744	8	0.013328	60	10	60-180	60	134	GapExp	0	144	2	2	1	target	1	1440	280	-39755	13.328	13.289	13.363
ProbeTrackDT01	14	ProbeTrack	10.4	SCS215a	20100707.111143	20100707.112751	8	0.013328	60	10	60-180	60	156	GapExp	0	145	2	75	1	target	1	747	627	-39128	13.328	13.224	13.433
ProbeTrackDT01	14	ProbeTrack	10.4	SCS215a	20100707.111143	20100707.112758	8	0.013328	60	10	60-180	60	102	GapExp	0	146	2	1	0	distractor	1	813	594	-38534	13.328	13.293	13.363
ProbeTrackDT01	14	ProbeTrack	10.4	SCS215a	20100707.111143	20100707.112804	8	0.013328	60	10	60-180	60	123	GapExp	0	147	2	1	1	distractor	0	693	-1000	-39534	13.328	13.109	13.529
ProbeTrackDT01	14	ProbeTrack	10.4	SCS215a	20100707.111143	20100707.112809	8	0.013328	60	10	60-180	60	166	GapExp	0	148	2	2	0	target	0	440	-1000	-40534	13.328	13.293	13.363
ProbeTrackDT01	14	ProbeTrack	10.4	SCS215a	20100707.111143	20100707.112815	8	0.013328	60	10	60-180	60	118	GapExp	0	149	2	0	1	distractor	0	427	-1000	-41534	13.328	13.193	13.496
ProbeTrackDT01	14	ProbeTrack	10.4	SCS215a	20100707.111143	20100707.112821	8	0.013328	60	10	60-180	60	93	GapExp	0	150	2	4	0	target	0	414	-1000	-42534	13.328	13.240	13.415
ProbeTrackDT01	14	ProbeTrack	10.4	SCS215a	20100707.111143	20100707.112838	8	0.013328	60	10	60-180	60	161	GapExp	0	151	2	2	1	target	1	1360	320	-42214	13.328	13.293	13.363
ProbeTrackDT01	14	ProbeTrack	10.4	SCS215a	20100707.111143	20100707.112845	8	0.013328	60	10	60-180	60	170	GapExp	0	152	2	1	0	target	0	440	-1000	-43214	13.328	13.009	13.646
ProbeTrackDT01	14	ProbeTrack	10.4	SCS215a	20100707.111143	20100707.112851	8	0.013328	60	10	60-180	60	66	GapExp	0	153	2	2	0	distractor	1	1013	494	-42720	13.328	13.293	13.363
ProbeTrackDT01	14	ProbeTrack	10.4	SCS215a	20100707.111143	20100707.112857	8	0.013328	60	10	60-180	60	71	GapExp	0	154	2	1	0	distractor	1	760	620	-42100	13.328	13.194	13.430
ProbeTrackDT01	14	ProbeTrack	10.4	SCS215a	20100707.111143	20100707.112902	8	0.013328	60	10	60-180	60	152	GapExp	0	155	2	1	1	distractor	0	800	-1000	-43100	13.328	13.288	13.367
ProbeTrackDT01	14	ProbeTrack	10.4	SCS215a	20100707.111143	20100707.112908	8	0.013328	60	10	60-180	60	170	GapExp	0	156	2	4	1	target	1	347	827	-42273	13.328	13.249	13.408
ProbeTrackDT01	14	ProbeTrack	10.4	SCS215a	20100707.111143	20100707.112914	8	0.013328	60	10	60-180	60	152	GapExp	0	157	2	2	1	target	1	414	793	-41480	13.328	13.234	13.388
ProbeTrackDT01	14	ProbeTrack	10.4	SCS215a	20100707.111143	20100707.112920	8	0.013328	60	10	60-180	60	165	GapExp	0	158	2	1	0	target	0	533	-1000	-42480	13.328	13.293	13.376
ProbeTrackDT01	14	ProbeTrack	10.4	SCS215a	20100707.111143	20100707.112926	8	0.013328	60	10	60-180	60	70	GapExp	0	159	2	2	1	distractor	0	1280	-1000	-43480	13.328	13.293	13.363
ProbeTrackDT01	14	ProbeTrack	10.4	SCS215a	20100707.111143	20100707.112932	8	0.013328	60	10	60-180	60	62	GapExp	0	160	2	0	1	target	1	507	747	-42733	13.328	13.293	13.363
ProbeTrackDT01	14	ProbeTrack	10.4	SCS215a	20100707.111143	20100707.112936	8	0.013328	60	10	60-180	60	157	GapExp	0	161	2	4	1	target	1	1546	227	-42506	13.328	13.293	13.363
ProbeTrackDT01	14	ProbeTrack	10.4	SCS215a	20100707.111143	20100707.112943	8	0.013328	60	10	60-180	60	130	GapExp	0	162	2	0	0	target	0	2919	-1000	-43506	13.328	13.293	13.363
ProbeTrackDT01	14	ProbeTrack	10.4	SCS215a	20100707.111143	20100707.112952	8	0.013328	60	10	60-180	60	124	GapExp	0	163	2	4	0	distractor	1	720	640	-42866	13.328	13.274	13.415
ProbeTrackDT01	14	ProbeTrack	10.4	SCS215a	20100707.111143	20100707.112957	8	0.013328	60	10	60-180	60	68	GapExp	0	164	2	4	0	distractor	1	787	607	-42259	13.328	13.103	13.552
ProbeTrackDT01	14	ProbeTrack	10.4	SCS215a	20100707.111143	20100707.113003	8	0.013328	60	10	60-180	60	148	GapExp	0	165	2	0	0	distractor	1	573	714	-41545	13.328	13.293	13.363
ProbeTrackDT01	14	ProbeTrack	10.4	SCS215a	20100707.111143	20100707.113009	8	0.013328	60	10	60-180	60	154	GapExp	0	166	2	75	1	distractor	0	1413	-1000	-42545	13.328	13.147	13.510
ProbeTrackDT01	14	ProbeTrack	10.4	SCS215a	20100707.111143	20100707.113016	8	0.013328	60	10	60-180	60	122	GapExp	0	167	2	0	1	distractor	0	1573	-1000	-43545	13.328	13.293	13.363
ProbeTrackDT01	14	ProbeTrack	10.4	SCS215a	20100707.111143	20100707.113023	8	0.013328	60	10	60-180	60	99	GapExp	0	168	2	0	1	target	1	2413	0	-43545	13.328	13.293	13.363
ProbeTrackDT01	14	ProbeTrack	10.4	SCS215a	20100707.111143	20100707.113030	8	0.013328	60	10	60-180	60	108	GapExp	0	169	2	2	0	target	0	547	-1000	-44545	13.328	13.087	13.569
ProbeTrackDT01	14	ProbeTrack	10.4	SCS215a	20100707.111143	20100707.113036	8	0.013328	60	10	60-180	60	138	GapExp	0	170	2	4	1	distractor	0	387	-1000	-45545	13.328	13.121	13.534
ProbeTrackDT01	14	ProbeTrack	10.4	SCS215a	20100707.111143	20100707.113041	8	0.013328	60	10	60-180	60	178	GapExp	0	171	2	0	0	target	0	347	-1000	-46545	13.328	13.227	13.396
ProbeTrackDT01	14	ProbeTrack	10.4	SCS215a	20100707.111143	20100707.113047	8	0.013328	60	10	60-180	60	162	GapExp	0	172	2	4	0	distractor	1	560	720	-45825	13.328	13.151	13.538
ProbeTrackDT01	14	ProbeTrack	10.4	SCS215a	20100707.111143	20100707.113054	8	0.013328	60	10	60-180	60	177	GapExp	0	173	2	0	1	distractor	0	560	-1000	-46825	13.328	13.291	13.365
ProbeTrackDT01	14	ProbeTrack	10.4	SCS215a	20100707.111143	20100707.113100	8	0.013328	60	10	60-180	60	84	GapExp	0	174	2	0	1	target	1	1280	360	-46465	13.328	13.255	13.399
ProbeTrackDT01	14	ProbeTrack	10.4	SCS215a	20100707.111143	20100707.113106	8	0.013328	60	10	60-180	60	153	GapExp	0	175	2	1	1	target	1	4159	0	-46465	13.328	13.145	13.544
ProbeTrackDT01	14	ProbeTrack	10.4	SCS215a	20100707.111143	20100707.113115	8	0.013328	60	10	60-180	60	91	GapExp	0	176	2	0	1	target	1	1187	407	-46058	13.328	13.278	13.368
ProbeTrackDT01	14	ProbeTrack	10.4	SCS215a	20100707.111143	20100707.113121	8	0.013328	60	10	60-180	60	80	GapExp	0	177	2	1	1	target	1	467	767	-45291	13.328	13.204	13.479
ProbeTrackDT01	14	ProbeTrack	10.4	SCS215a	20100707.111143	20100707.113126	8	0.013328	60	10	60-180	60	173	GapExp	0	178	2	75	0	target	0	414	-1000	-46291	13.328	13.154	13.502
ProbeTrackDT01	14	ProbeTrack	10.4	SCS215a	20100707.111143	20100707.113133	8	0.013328	60	10	60-180	60	170	GapExp	0	179	2	1	1	distractor	0	400	-1000	-47291	13.328	13.077	13.544
ProbeTrackDT01	14	ProbeTrack	10.4	SCS215a	20100707.111143	20100707.113139	8	0.013328	60	10	60-180	60	125	GapExp	0	180	2	2	0	target	0	1053	-1000	-48291	13.328	13.231	13.393
ProbeTrackDT01	14	ProbeTrack	10.4	SCS215a	20100707.111143	20100707.113146	8	0.013328	60	10	60-180	60	142	GapExp	0	181	2	1	1	distractor	0	507	-1000	-49291	13.328	13.100	13.590
ProbeTrackDT01	14	ProbeTrack	10.4	SCS215a	20100707.111143	20100707.113151	8	0.013328	60	10	60-180	60	166	GapExp	0	182	2	2	0	target	0	787	-1000	-50291	13.328	13.067	13.555
ProbeTrackDT01	14	ProbeTrack	10.4	SCS215a	20100707.111143	20100707.113158	8	0.013328	60	10	60-180	60	75	GapExp	0	183	2	4	0	target	0	1552	-1000	-51291	13.387	13.182	26.691
ProbeTrackDT01	14	ProbeTrack	10.4	SCS215a	20100707.111143	20100707.113204	8	0.013328	60	10	60-180	60	170	GapExp	0	184	2	1	0	target	0	560	-1000	-52291	13.328	13.056	13.601
ProbeTrackDT01	14	ProbeTrack	10.4	SCS215a	20100707.111143	20100707.113210	8	0.013328	60	10	60-180	60	143	GapExp	0	185	2	0	0	distractor	1	1600	200	-52091	13.328	13.257	13.433
ProbeTrackDT01	14	ProbeTrack	10.4	SCS215a	20100707.111143	20100707.113217	8	0.013328	60	10	60-180	60	109	GapExp	0	186	2	4	0	target	0	693	-1000	-53091	13.328	13.233	13.457
ProbeTrackDT01	14	ProbeTrack	10.4	SCS215a	20100707.111143	20100707.113223	8	0.013328	60	10	60-180	60	92	GapExp	0	187	2	1	1	distractor	0	747	-1000	-54091	13.328	13.248	13.443
ProbeTrackDT01	14	ProbeTrack	10.4	SCS215a	20100707.111143	20100707.113228	8	0.013328	60	10	60-180	60	180	GapExp	0	188	2	2	1	distractor	0	907	-1000	-55091	13.328	13.293	13.363
ProbeTrackDT01	14	ProbeTrack	10.4	SCS215a	20100707.111143	20100707.113235	8	0.013328	60	10	60-180	60	152	GapExp	0	189	2	4	0	target	0	3106	-1000	-56091	13.328	13.033	13.623
ProbeTrackDT01	14	ProbeTrack	10.4	SCS215a	20100707.111143	20100707.113243	8	0.013328	60	10	60-180	60	135	GapExp	0	190	2	4	0	target	0	693	-1000	-57091	13.328	13.080	13.574
ProbeTrackDT01	14	ProbeTrack	10.4	SCS215a	20100707.111143	20100707.113249	8	0.013328	60	10	60-180	60	88	GapExp	0	191	2	0	1	distractor	0	720	-1000	-58091	13.328	13.028	13.627
ProbeTrackDT01	14	ProbeTrack	10.4	SCS215a	20100707.111143	20100707.113255	8	0.013328	60	10	60-180	60	97	GapExp	0	192	2	1	1	target	1	867	567	-57524	13.328	13.143	13.512
ProbeTrackDT01	14	ProbeTrack	10.4	SCS215a	20100707.111143	20100707.113300	8	0.013328	60	10	60-180	60	179	GapExp	0	193	2	4	1	target	1	1080	460	-57064	13.328	13.152	13.538
ProbeTrackDT01	14	ProbeTrack	10.4	SCS215a	20100707.111143	20100707.113307	8	0.013328	60	10	60-180	60	92	GapExp	0	194	2	2	0	target	0	1133	-1000	-58064	13.328	13.289	13.395
ProbeTrackDT01	14	ProbeTrack	10.4	SCS215a	20100707.111143	20100707.113313	8	0.013328	60	10	60-180	60	69	GapExp	0	195	2	0	1	target	1	1173	414	-57650	13.328	13.240	13.450
ProbeTrackDT01	14	ProbeTrack	10.4	SCS215a	20100707.111143	20100707.113318	8	0.013328	60	10	60-180	60	145	GapExp	0	196	2	1	1	target	1	640	680	-56970	13.328	13.093	13.598
ProbeTrackDT01	14	ProbeTrack	10.4	SCS215a	20100707.111143	20100707.113324	8	0.013328	60	10	60-180	60	167	GapExp	0	197	2	4	0	target	0	787	-1000	-57970	13.328	13.195	13.494
ProbeTrackDT01	14	ProbeTrack	10.4	SCS215a	20100707.111143	20100707.113331	8	0.013328	60	10	60-180	60	108	GapExp	0	198	2	0	0	target	0	1160	-1000	-58970	13.328	13.293	13.390
ProbeTrackDT01	14	ProbeTrack	10.4	SCS215a	20100707.111143	20100707.113337	8	0.013328	60	10	60-180	60	156	GapExp	0	199	2	2	1	distractor	0	467	-1000	-59970	13.328	13.138	13.518
ProbeTrackDT01	14	ProbeTrack	10.4	SCS215a	20100707.111143	20100707.113343	8	0.013328	60	10	60-180	60	90	GapExp	0	200	2	2	0	target	0	494	-1000	-60970	13.328	13.206	13.482
ProbeTrackDT01	14	ProbeTrack	10.4	SCS215a	20100707.111143	20100707.113404	8	0.013328	60	10	60-180	60	70	GapExp	0	201	2	4	1	target	1	667	667	-60303	13.328	13.083	13.574
ProbeTrackDT01	14	ProbeTrack	10.4	SCS215a	20100707.111143	20100707.113409	8	0.013328	60	10	60-180	60	87	GapExp	0	202	2	2	1	target	1	2746	0	-60303	13.328	13.128	13.561
ProbeTrackDT01	14	ProbeTrack	10.4	SCS215a	20100707.111143	20100707.113416	8	0.013328	60	10	60-180	60	69	GapExp	0	203	2	0	0	target	0	1640	-1000	-61303	13.328	13.293	13.363
ProbeTrackDT01	14	ProbeTrack	10.4	SCS215a	20100707.111143	20100707.113422	8	0.013328	60	10	60-180	60	153	GapExp	0	204	2	1	1	distractor	0	467	-1000	-62303	13.328	12.986	13.670
ProbeTrackDT01	14	ProbeTrack	10.4	SCS215a	20100707.111143	20100707.113428	8	0.013328	60	10	60-180	60	109	GapExp	0	205	2	2	1	target	1	400	800	-61503	13.328	13.118	13.538
ProbeTrackDT01	14	ProbeTrack	10.4	SCS215a	20100707.111143	20100707.113434	8	0.013328	60	10	60-180	60	92	GapExp	0	206	2	2	1	target	1	760	620	-60883	13.328	13.244	13.412
ProbeTrackDT01	14	ProbeTrack	10.4	SCS215a	20100707.111143	20100707.113439	8	0.013328	60	10	60-180	60	180	GapExp	0	207	2	75	1	target	1	907	547	-60336	13.328	13.291	13.365
ProbeTrackDT01	14	ProbeTrack	10.4	SCS215a	20100707.111143	20100707.113447	8	0.013328	60	10	60-180	60	158	GapExp	0	208	2	4	1	target	1	494	753	-59583	13.328	13.293	13.363
ProbeTrackDT01	14	ProbeTrack	10.4	SCS215a	20100707.111143	20100707.113453	8	0.013328	60	10	60-180	60	98	GapExp	0	209	2	0	0	target	0	1413	-1000	-60583	13.328	13.147	13.509
ProbeTrackDT01	14	ProbeTrack	10.4	SCS215a	20100707.111143	20100707.113459	8	0.013328	60	10	60-180	60	124	GapExp	0	210	2	1	1	distractor	0	1160	-1000	-61583	13.328	12.952	13.737
