exp	sub	code	rev	comp	runtime	trialtime	nstim	refreshdur	cuedur	gapdur	gapOnsetRange	durPostProbe	gapOnsetTime	blocktype	prac	trial	ntargets	soa	probeTarget	resp	acc	rt	pts	tpts	meanFrameDur	minFrameDur	maxFrameDur
ProbeTrackDT01	21	ProbeTrack	10.4	SCS215a	20100712.122145	20100712.122209	8	0.013327	60	0	60-180	60	134	NoGap	1	1	2	0	1	target	1	2959	0	0	13.328	13.293	13.363
ProbeTrackDT01	21	ProbeTrack	10.4	SCS215a	20100712.122145	20100712.122217	8	0.013327	60	0	60-180	60	160	NoGap	1	2	2	0	1	target	1	1027	487	487	13.328	13.260	13.429
ProbeTrackDT01	21	ProbeTrack	10.4	SCS215a	20100712.122145	20100712.122223	8	0.013327	60	0	60-180	60	83	NoGap	1	3	2	1	1	target	1	1080	460	947	13.328	13.293	13.395
ProbeTrackDT01	21	ProbeTrack	10.4	SCS215a	20100712.122145	20100712.122229	8	0.013327	60	0	60-180	60	101	NoGap	1	4	2	2	0	target	0	534	-1000	-53	13.328	13.293	13.363
ProbeTrackDT01	21	ProbeTrack	10.4	SCS215a	20100712.122145	20100712.122234	8	0.013327	60	0	60-180	60	85	NoGap	1	5	2	1	0	distractor	1	1147	427	374	13.328	13.292	13.366
ProbeTrackDT01	21	ProbeTrack	10.4	SCS215a	20100712.122145	20100712.122240	8	0.013327	60	0	60-180	60	155	NoGap	1	6	2	1	1	target	1	454	773	1147	13.328	13.293	13.363
ProbeTrackDT01	21	ProbeTrack	10.4	SCS215a	20100712.122145	20100712.122246	8	0.013327	60	0	60-180	60	134	NoGap	1	7	2	4	0	distractor	1	534	733	1880	13.328	13.293	13.363
ProbeTrackDT01	21	ProbeTrack	10.4	SCS215a	20100712.122145	20100712.122251	8	0.013327	60	0	60-180	60	174	NoGap	1	8	2	1	1	distractor	0	400	-1000	880	13.328	13.293	13.363
ProbeTrackDT01	21	ProbeTrack	10.4	SCS215a	20100712.122145	20100712.122257	8	0.013327	60	0	60-180	60	81	NoGap	1	9	2	4	0	target	0	1067	-1000	-120	13.328	13.293	13.363
ProbeTrackDT01	21	ProbeTrack	10.4	SCS215a	20100712.122145	20100712.122303	8	0.013327	60	0	60-180	60	86	NoGap	1	10	2	0	1	target	1	613	694	574	13.328	13.221	13.468
ProbeTrackDT01	21	ProbeTrack	10.4	SCS215a	20100712.122145	20100712.122308	8	0.013327	60	0	60-180	60	150	NoGap	1	11	2	2	1	target	1	467	767	1341	13.328	13.293	13.363
ProbeTrackDT01	21	ProbeTrack	10.4	SCS215a	20100712.122145	20100712.122314	8	0.013327	60	0	60-180	60	113	NoGap	1	12	2	2	1	target	1	627	687	2028	13.328	13.249	13.407
ProbeTrackDT01	21	ProbeTrack	10.4	SCS215a	20100712.122145	20100712.122319	8	0.013327	60	0	60-180	60	118	NoGap	1	13	2	2	1	target	1	613	694	2722	13.328	13.262	13.393
ProbeTrackDT01	21	ProbeTrack	10.4	SCS215a	20100712.122145	20100712.122325	8	0.013327	60	0	60-180	60	68	NoGap	1	14	2	1	0	distractor	1	627	687	3409	13.328	13.187	13.502
ProbeTrackDT01	21	ProbeTrack	10.4	SCS215a	20100712.122145	20100712.122329	8	0.013327	60	0	60-180	60	130	NoGap	1	15	2	4	1	target	1	600	700	4109	13.328	13.292	13.363
ProbeTrackDT01	21	ProbeTrack	10.4	SCS215a	20100712.122145	20100712.122335	8	0.013327	60	0	60-180	60	87	NoGap	1	16	2	75	1	target	1	454	773	4882	13.328	13.293	13.363
ProbeTrackDT01	21	ProbeTrack	10.4	SCS215a	20100712.122145	20100712.122341	8	0.013327	60	0	60-180	60	106	NoGap	1	17	2	2	0	distractor	1	654	673	5555	13.328	13.293	13.363
ProbeTrackDT01	21	ProbeTrack	10.4	SCS215a	20100712.122145	20100712.122346	8	0.013327	60	0	60-180	60	108	NoGap	1	18	2	4	1	target	1	520	740	6295	13.328	13.203	13.485
ProbeTrackDT01	21	ProbeTrack	10.4	SCS215a	20100712.122145	20100712.122352	8	0.013327	60	0	60-180	60	78	NoGap	1	19	2	4	1	target	1	747	627	6922	13.328	13.293	13.363
ProbeTrackDT01	21	ProbeTrack	10.4	SCS215a	20100712.122145	20100712.122357	8	0.013327	60	0	60-180	60	121	NoGap	1	20	2	2	0	distractor	1	653	674	7596	13.328	13.181	13.475
ProbeTrackDT01	21	ProbeTrack	10.4	SCS215a	20100712.122145	20100712.122402	8	0.013327	60	0	60-180	60	112	NoGap	1	21	2	2	1	target	1	560	720	8316	13.328	13.263	13.366
ProbeTrackDT01	21	ProbeTrack	10.4	SCS215a	20100712.122145	20100712.122408	8	0.013327	60	0	60-180	60	125	NoGap	1	22	2	0	0	distractor	1	600	700	9016	13.328	13.206	13.449
ProbeTrackDT01	21	ProbeTrack	10.4	SCS215a	20100712.122145	20100712.122413	8	0.013327	60	0	60-180	60	180	NoGap	1	23	2	4	0	distractor	1	600	700	9716	13.328	13.272	13.419
ProbeTrackDT01	21	ProbeTrack	10.4	SCS215a	20100712.122145	20100712.122420	8	0.013327	60	0	60-180	60	73	NoGap	1	24	2	75	1	target	1	587	707	10423	13.328	13.293	13.363
ProbeTrackDT01	21	ProbeTrack	10.4	SCS215a	20100712.122145	20100712.122425	8	0.013327	60	0	60-180	60	122	NoGap	1	25	2	4	1	target	1	520	740	11163	13.328	13.190	13.465
ProbeTrackDT01	21	ProbeTrack	10.4	SCS215a	20100712.122145	20100712.122431	8	0.013327	60	0	60-180	60	64	NoGap	1	26	2	75	0	distractor	1	547	727	11890	13.328	13.245	13.444
ProbeTrackDT01	21	ProbeTrack	10.4	SCS215a	20100712.122145	20100712.122437	8	0.013327	60	0	60-180	60	129	NoGap	1	27	2	0	1	target	1	507	747	12637	13.328	13.113	13.543
ProbeTrackDT01	21	ProbeTrack	10.4	SCS215a	20100712.122145	20100712.122442	8	0.013327	60	0	60-180	60	141	NoGap	1	28	2	1	1	target	1	454	773	13410	13.328	13.293	13.363
ProbeTrackDT01	21	ProbeTrack	10.4	SCS215a	20100712.122145	20100712.122448	8	0.013327	60	0	60-180	60	100	NoGap	1	29	2	2	0	distractor	1	560	720	14130	13.328	13.293	13.363
ProbeTrackDT01	21	ProbeTrack	10.4	SCS215a	20100712.122145	20100712.122453	8	0.013327	60	0	60-180	60	92	NoGap	1	30	2	75	0	distractor	1	573	714	14844	13.328	13.214	13.475
ProbeTrackDT01	21	ProbeTrack	10.4	SCS215a	20100712.122145	20100712.122459	8	0.013327	60	0	60-180	60	145	NoGap	1	31	2	75	1	target	1	494	753	15597	13.328	13.131	13.491
ProbeTrackDT01	21	ProbeTrack	10.4	SCS215a	20100712.122145	20100712.122506	8	0.013327	60	0	60-180	60	165	NoGap	1	32	2	75	1	target	1	560	720	16317	13.328	13.084	13.537
ProbeTrackDT01	21	ProbeTrack	10.4	SCS215a	20100712.122145	20100712.122513	8	0.013327	60	0	60-180	60	134	NoGap	1	33	2	75	0	distractor	1	707	647	16964	13.328	13.091	13.599
ProbeTrackDT01	21	ProbeTrack	10.4	SCS215a	20100712.122145	20100712.122519	8	0.013327	60	0	60-180	60	65	NoGap	1	34	2	4	0	distractor	1	1013	494	17458	13.328	13.293	13.363
ProbeTrackDT01	21	ProbeTrack	10.4	SCS215a	20100712.122145	20100712.122525	8	0.013327	60	0	60-180	60	136	NoGap	1	35	2	1	0	distractor	1	640	680	18138	13.328	13.293	13.367
ProbeTrackDT01	21	ProbeTrack	10.4	SCS215a	20100712.122145	20100712.122530	8	0.013327	60	0	60-180	60	170	NoGap	1	36	2	75	0	distractor	1	547	727	18865	13.328	13.260	13.414
ProbeTrackDT01	21	ProbeTrack	10.4	SCS215a	20100712.122145	20100712.122538	8	0.013327	60	0	60-180	60	87	NoGap	1	37	2	0	0	distractor	1	720	640	19505	13.328	13.275	13.413
ProbeTrackDT01	21	ProbeTrack	10.4	SCS215a	20100712.122145	20100712.122543	8	0.013327	60	0	60-180	60	165	NoGap	1	38	2	1	0	distractor	1	720	640	20145	13.328	13.044	13.576
ProbeTrackDT01	21	ProbeTrack	10.4	SCS215a	20100712.122145	20100712.122549	8	0.013327	60	0	60-180	60	115	NoGap	1	39	2	0	0	distractor	1	560	720	20865	13.328	13.228	13.427
ProbeTrackDT01	21	ProbeTrack	10.4	SCS215a	20100712.122145	20100712.122554	8	0.013327	60	0	60-180	60	153	NoGap	1	40	2	0	0	distractor	1	720	640	21505	13.328	13.027	13.596
ProbeTrackDT01	21	ProbeTrack	10.4	SCS215a	20100712.122639	20100712.122645	8	0.013328	60	10	60-180	60	127	GapPrac	1	1	2	4	0	distractor	1	374	813	22318	13.328	13.100	13.556
ProbeTrackDT01	21	ProbeTrack	10.4	SCS215a	20100712.122639	20100712.122650	8	0.013328	60	10	60-180	60	74	GapPrac	1	2	2	2	1	distractor	0	307	-1000	21318	13.328	13.292	13.366
ProbeTrackDT01	21	ProbeTrack	10.4	SCS215a	20100712.122639	20100712.122655	8	0.013328	60	10	60-180	60	166	GapPrac	1	3	2	75	0	distractor	1	747	627	21945	13.328	13.051	13.566
ProbeTrackDT01	21	ProbeTrack	10.4	SCS215a	20100712.122639	20100712.122703	8	0.013328	60	10	60-180	60	61	GapPrac	1	4	2	1	1	distractor	0	587	-1000	20945	13.328	13.159	13.529
ProbeTrackDT01	21	ProbeTrack	10.4	SCS215a	20100712.122639	20100712.122707	8	0.013328	60	10	60-180	60	121	GapPrac	1	5	2	75	0	186	-3	533	-1000	19945	13.328	12.887	13.769
ProbeTrackDT01	21	ProbeTrack	10.4	SCS215a	20100712.122639	20100712.122714	8	0.013328	60	10	60-180	60	127	GapPrac	1	6	2	1	0	distractor	1	667	667	20612	13.328	13.283	13.372
ProbeTrackDT01	21	ProbeTrack	10.4	SCS215a	20100712.122639	20100712.122720	8	0.013328	60	10	60-180	60	157	GapPrac	1	7	2	2	0	distractor	1	587	707	21319	13.328	13.200	13.423
ProbeTrackDT01	21	ProbeTrack	10.4	SCS215a	20100712.122639	20100712.122726	8	0.013328	60	10	60-180	60	142	GapPrac	1	8	2	1	1	186	-3	387	-1000	20319	13.328	13.232	13.407
ProbeTrackDT01	21	ProbeTrack	10.4	SCS215a	20100712.122639	20100712.122732	8	0.013328	60	10	60-180	60	169	GapPrac	1	9	2	75	1	target	1	467	767	21086	13.328	13.149	13.474
ProbeTrackDT01	21	ProbeTrack	10.4	SCS215a	20100712.122639	20100712.122739	8	0.013328	60	10	60-180	60	154	GapPrac	1	10	2	75	1	target	1	467	767	21853	13.328	13.293	13.363
ProbeTrackDT01	21	ProbeTrack	10.4	SCS215a	20100712.122639	20100712.122746	8	0.013328	60	10	60-180	60	178	GapPrac	1	11	2	2	1	target	1	613	694	22547	13.328	13.119	13.537
ProbeTrackDT01	21	ProbeTrack	10.4	SCS215a	20100712.122639	20100712.122752	8	0.013328	60	10	60-180	60	180	GapPrac	1	12	2	0	1	target	1	534	733	23280	13.328	13.066	13.588
ProbeTrackDT01	21	ProbeTrack	10.4	SCS215a	20100712.122639	20100712.122759	8	0.013328	60	10	60-180	60	138	GapPrac	1	13	2	1	0	distractor	1	587	707	23987	13.328	13.218	13.471
ProbeTrackDT01	21	ProbeTrack	10.4	SCS215a	20100712.122639	20100712.122804	8	0.013328	60	10	60-180	60	137	GapPrac	1	14	2	0	0	distractor	1	520	740	24727	13.328	13.077	13.545
ProbeTrackDT01	21	ProbeTrack	10.4	SCS215a	20100712.122639	20100712.122810	8	0.013328	60	10	60-180	60	176	GapPrac	1	15	2	0	1	target	1	600	700	25427	13.328	13.279	13.377
ProbeTrackDT01	21	ProbeTrack	10.4	SCS215a	20100712.122639	20100712.122817	8	0.013328	60	10	60-180	60	71	GapPrac	1	16	2	0	0	distractor	1	534	733	26160	13.328	13.122	13.533
ProbeTrackDT01	21	ProbeTrack	10.4	SCS215a	20100712.122639	20100712.122822	8	0.013328	60	10	60-180	60	96	GapPrac	1	17	2	2	0	distractor	1	627	687	26847	13.328	13.293	13.363
ProbeTrackDT01	21	ProbeTrack	10.4	SCS215a	20100712.122639	20100712.122827	8	0.013328	60	10	60-180	60	167	GapPrac	1	18	2	4	1	target	1	334	833	27680	13.328	13.129	13.493
ProbeTrackDT01	21	ProbeTrack	10.4	SCS215a	20100712.122639	20100712.122833	8	0.013328	60	10	60-180	60	138	GapPrac	1	19	2	4	0	distractor	1	507	747	28427	13.328	13.080	13.577
ProbeTrackDT01	21	ProbeTrack	10.4	SCS215a	20100712.122639	20100712.122839	8	0.013328	60	10	60-180	60	101	GapPrac	1	20	2	4	1	target	1	534	733	29160	13.328	12.959	13.729
ProbeTrackDT01	21	ProbeTrack	10.4	SCS215a	20100712.123014	20100712.123018	8	0.013328	60	10	60-180	60	177	GapPrac	1	1	2	2	1	distractor	0	1506	-1000	28160	13.328	13.198	13.458
ProbeTrackDT01	21	ProbeTrack	10.4	SCS215a	20100712.123014	20100712.123025	8	0.013328	60	10	60-180	60	81	GapPrac	1	2	2	2	1	target	1	8663	0	28160	13.328	13.289	13.365
ProbeTrackDT01	21	ProbeTrack	10.4	SCS215a	20100712.123014	20100712.123038	8	0.013328	60	10	60-180	60	143	GapPrac	1	3	2	75	1	distractor	0	414	-1000	27160	13.328	13.193	13.463
ProbeTrackDT01	21	ProbeTrack	10.4	SCS215a	20100712.123014	20100712.123045	8	0.013328	60	10	60-180	60	99	GapPrac	1	4	2	0	1	target	1	507	747	27907	13.328	13.293	13.363
ProbeTrackDT01	21	ProbeTrack	10.4	SCS215a	20100712.123014	20100712.123050	8	0.013328	60	10	60-180	60	91	GapPrac	1	5	2	1	0	distractor	1	1120	440	28347	13.384	12.879	26.655
ProbeTrackDT01	21	ProbeTrack	10.4	SCS215a	20100712.123014	20100712.123056	8	0.013328	60	10	60-180	60	106	GapPrac	1	6	2	75	0	distractor	1	627	687	29034	13.328	13.293	13.364
ProbeTrackDT01	21	ProbeTrack	10.4	SCS215a	20100712.123014	20100712.123103	8	0.013328	60	10	60-180	60	69	GapPrac	1	7	2	1	0	target	0	1786	-1000	28034	13.328	13.293	13.363
ProbeTrackDT01	21	ProbeTrack	10.4	SCS215a	20100712.123014	20100712.123109	8	0.013328	60	10	60-180	60	90	GapPrac	1	8	2	4	1	distractor	0	693	-1000	27034	13.614	12.977	39.924
ProbeTrackDT01	21	ProbeTrack	10.4	SCS215a	20100712.123014	20100712.123114	8	0.013328	60	10	60-180	60	174	GapPrac	1	9	2	75	0	target	0	720	-1000	26034	13.328	13.290	13.363
ProbeTrackDT01	21	ProbeTrack	10.4	SCS215a	20100712.123014	20100712.123122	8	0.013328	60	10	60-180	60	108	GapPrac	1	10	2	1	1	distractor	0	507	-1000	25034	13.328	13.293	13.363
ProbeTrackDT01	21	ProbeTrack	10.4	SCS215a	20100712.123014	20100712.123127	8	0.013328	60	10	60-180	60	113	GapPrac	1	11	2	1	1	target	1	1306	347	25381	13.328	13.239	13.383
ProbeTrackDT01	21	ProbeTrack	10.4	SCS215a	20100712.123014	20100712.123133	8	0.013328	60	10	60-180	60	96	GapPrac	1	12	2	4	0	distractor	1	3186	0	25381	13.328	13.293	13.363
ProbeTrackDT01	21	ProbeTrack	10.4	SCS215a	20100712.123014	20100712.123141	8	0.013328	60	10	60-180	60	81	GapPrac	1	13	2	2	0	distractor	1	1600	200	25581	13.328	13.243	13.447
ProbeTrackDT01	21	ProbeTrack	10.4	SCS215a	20100712.123014	20100712.123147	8	0.013328	60	10	60-180	60	178	GapPrac	1	14	2	4	1	distractor	0	667	-1000	24581	13.328	12.966	13.722
ProbeTrackDT01	21	ProbeTrack	10.4	SCS215a	20100712.123014	20100712.123154	8	0.013328	60	10	60-180	60	65	GapPrac	1	15	2	2	0	distractor	1	893	554	25135	13.328	12.972	13.682
ProbeTrackDT01	21	ProbeTrack	10.4	SCS215a	20100712.123014	20100712.123159	8	0.013328	60	10	60-180	60	180	GapPrac	1	16	2	0	1	distractor	0	294	-1000	24135	13.650	12.854	26.901
ProbeTrackDT01	21	ProbeTrack	10.4	SCS215a	20100712.123014	20100712.123205	8	0.013328	60	10	60-180	60	173	GapPrac	1	17	2	4	0	target	0	1000	-1000	23135	13.328	13.293	13.365
ProbeTrackDT01	21	ProbeTrack	10.4	SCS215a	20100712.123014	20100712.123212	8	0.013328	60	10	60-180	60	154	GapPrac	1	18	2	0	0	distractor	1	933	534	23669	13.328	13.127	13.561
ProbeTrackDT01	21	ProbeTrack	10.4	SCS215a	20100712.123014	20100712.123218	8	0.013328	60	10	60-180	60	131	GapPrac	1	19	2	0	0	target	0	1080	-1000	22669	13.328	13.033	13.622
ProbeTrackDT01	21	ProbeTrack	10.4	SCS215a	20100712.123014	20100712.123225	8	0.013328	60	10	60-180	60	76	GapPrac	1	20	2	75	1	target	1	800	600	23269	13.328	13.163	13.492
ProbeTrackDT01	21	ProbeTrack	10.4	SCS215a	20100712.123426	20100712.123454	8	0.013328	60	10	60-180	60	77	GapExp	1	1	2	75	0	distractor	1	2226	0	23269	13.328	13.284	13.405
ProbeTrackDT01	21	ProbeTrack	10.4	SCS215a	20100712.123426	20100712.123502	8	0.013328	60	10	60-180	60	71	GapExp	1	2	2	0	0	target	0	1173	-1000	22269	13.328	13.156	13.500
ProbeTrackDT01	21	ProbeTrack	10.4	SCS215a	20100712.123426	20100712.123507	8	0.013328	60	10	60-180	60	105	GapExp	1	3	2	1	0	distractor	1	667	667	22936	13.328	13.164	13.459
ProbeTrackDT01	21	ProbeTrack	10.4	SCS215a	20100712.123426	20100712.123513	8	0.013328	60	10	60-180	60	76	GapExp	1	4	2	2	0	target	0	1653	-1000	21936	13.328	13.293	13.363
ProbeTrackDT01	21	ProbeTrack	10.4	SCS215a	20100712.123426	20100712.123519	8	0.013328	60	10	60-180	60	75	GapExp	1	5	2	0	1	target	1	1133	434	22370	13.328	13.289	13.363
ProbeTrackDT01	21	ProbeTrack	10.4	SCS215a	20100712.123426	20100712.123525	8	0.013328	60	10	60-180	60	108	GapExp	1	6	2	4	0	target	0	827	-1000	21370	13.328	13.293	13.373
ProbeTrackDT01	21	ProbeTrack	10.4	SCS215a	20100712.123426	20100712.123530	8	0.013328	60	10	60-180	60	153	GapExp	1	7	2	2	1	target	1	920	540	21910	13.328	13.293	13.363
ProbeTrackDT01	21	ProbeTrack	10.4	SCS215a	20100712.123426	20100712.123537	8	0.013328	60	10	60-180	60	154	GapExp	1	8	2	4	1	target	1	973	514	22424	13.328	13.293	13.366
ProbeTrackDT01	21	ProbeTrack	10.4	SCS215a	20100712.123426	20100712.123543	8	0.013328	60	10	60-180	60	83	GapExp	1	9	2	75	1	target	1	773	614	23038	13.328	13.293	13.363
ProbeTrackDT01	21	ProbeTrack	10.4	SCS215a	20100712.123426	20100712.123549	8	0.013328	60	10	60-180	60	63	GapExp	1	10	2	1	1	target	1	1227	387	23425	13.328	13.290	13.367
ProbeTrackDT01	21	ProbeTrack	10.4	SCS215a	20100712.123426	20100712.123555	8	0.013328	60	10	60-180	60	114	GapExp	0	11	2	2	0	target	0	787	-1000	22425	13.328	13.117	13.504
ProbeTrackDT01	21	ProbeTrack	10.4	SCS215a	20100712.123426	20100712.123601	8	0.013328	60	10	60-180	60	149	GapExp	0	12	2	0	1	distractor	0	800	-1000	21425	13.328	13.188	13.468
ProbeTrackDT01	21	ProbeTrack	10.4	SCS215a	20100712.123426	20100712.123607	8	0.013328	60	10	60-180	60	138	GapExp	0	13	2	2	0	distractor	1	720	640	22065	13.328	13.293	13.363
ProbeTrackDT01	21	ProbeTrack	10.4	SCS215a	20100712.123426	20100712.123613	8	0.013328	60	10	60-180	60	87	GapExp	0	14	2	4	1	target	1	1640	180	22245	13.384	13.171	26.543
ProbeTrackDT01	21	ProbeTrack	10.4	SCS215a	20100712.123426	20100712.123619	8	0.013328	60	10	60-180	60	146	GapExp	0	15	2	4	1	target	1	1293	354	22599	13.328	13.015	13.607
ProbeTrackDT01	21	ProbeTrack	10.4	SCS215a	20100712.123426	20100712.123626	8	0.013328	60	10	60-180	60	94	GapExp	0	16	2	4	1	target	1	2066	0	22599	13.328	13.289	13.363
ProbeTrackDT01	21	ProbeTrack	10.4	SCS215a	20100712.123426	20100712.123633	8	0.013328	60	10	60-180	60	176	GapExp	0	17	2	4	0	target	0	1240	-1000	21599	13.369	13.156	26.690
ProbeTrackDT01	21	ProbeTrack	10.4	SCS215a	20100712.123426	20100712.123640	8	0.013328	60	10	60-180	60	172	GapExp	0	18	2	75	1	distractor	0	454	-1000	20599	13.328	13.124	13.497
ProbeTrackDT01	21	ProbeTrack	10.4	SCS215a	20100712.123426	20100712.123647	8	0.013328	60	10	60-180	60	158	GapExp	0	19	2	0	1	target	1	760	620	21219	13.328	13.080	13.575
ProbeTrackDT01	21	ProbeTrack	10.4	SCS215a	20100712.123426	20100712.123653	8	0.013328	60	10	60-180	60	156	GapExp	0	20	2	75	0	target	0	1333	-1000	20219	13.328	13.002	13.620
ProbeTrackDT01	21	ProbeTrack	10.4	SCS215a	20100712.123426	20100712.123701	8	0.013328	60	10	60-180	60	61	GapExp	0	21	2	2	1	distractor	0	1733	-1000	19219	13.328	13.275	13.381
ProbeTrackDT01	21	ProbeTrack	10.4	SCS215a	20100712.123426	20100712.123707	8	0.013328	60	10	60-180	60	172	GapExp	0	22	2	0	1	target	1	653	674	19893	13.328	13.292	13.364
ProbeTrackDT01	21	ProbeTrack	10.4	SCS215a	20100712.123426	20100712.123713	8	0.013328	60	10	60-180	60	123	GapExp	0	23	2	4	0	target	0	1013	-1000	18893	13.328	13.293	13.364
ProbeTrackDT01	21	ProbeTrack	10.4	SCS215a	20100712.123426	20100712.123720	8	0.013328	60	10	60-180	60	108	GapExp	0	24	2	75	0	83	-3	773	-1000	17893	13.328	13.056	13.633
ProbeTrackDT01	21	ProbeTrack	10.4	SCS215a	20100712.123426	20100712.123726	8	0.013328	60	10	60-180	60	177	GapExp	0	25	2	4	1	target	1	1120	440	18333	13.328	13.127	13.506
ProbeTrackDT01	21	ProbeTrack	10.4	SCS215a	20100712.123426	20100712.123733	8	0.013328	60	10	60-180	60	125	GapExp	0	26	2	1	1	target	1	1067	467	18800	13.328	13.178	13.479
ProbeTrackDT01	21	ProbeTrack	10.4	SCS215a	20100712.123426	20100712.123739	8	0.013328	60	10	60-180	60	72	GapExp	0	27	2	75	1	target	1	1120	440	19240	13.328	13.149	13.474
ProbeTrackDT01	21	ProbeTrack	10.4	SCS215a	20100712.123426	20100712.123746	8	0.013328	60	10	60-180	60	158	GapExp	0	28	2	75	0	distractor	1	454	773	20013	13.328	13.227	13.462
ProbeTrackDT01	21	ProbeTrack	10.4	SCS215a	20100712.123426	20100712.123753	8	0.013328	60	10	60-180	60	81	GapExp	0	29	2	1	1	target	1	1507	247	20260	13.328	13.292	13.363
ProbeTrackDT01	21	ProbeTrack	10.4	SCS215a	20100712.123426	20100712.123759	8	0.013328	60	10	60-180	60	124	GapExp	0	30	2	4	1	target	1	893	554	20814	13.328	13.292	13.363
ProbeTrackDT01	21	ProbeTrack	10.4	SCS215a	20100712.123426	20100712.123805	8	0.013328	60	10	60-180	60	171	GapExp	0	31	2	2	1	target	1	1107	447	21261	13.328	13.291	13.364
ProbeTrackDT01	21	ProbeTrack	10.4	SCS215a	20100712.123426	20100712.123812	8	0.013328	60	10	60-180	60	135	GapExp	0	32	2	2	0	target	0	1666	-1000	20261	13.328	13.290	13.364
ProbeTrackDT01	21	ProbeTrack	10.4	SCS215a	20100712.123426	20100712.123818	8	0.013328	60	10	60-180	60	63	GapExp	0	33	2	0	0	distractor	1	1320	340	20601	13.328	13.151	13.503
ProbeTrackDT01	21	ProbeTrack	10.4	SCS215a	20100712.123426	20100712.123824	8	0.013328	60	10	60-180	60	136	GapExp	0	34	2	4	1	target	1	1906	47	20648	13.328	12.864	13.790
ProbeTrackDT01	21	ProbeTrack	10.4	SCS215a	20100712.123426	20100712.123831	8	0.013328	60	10	60-180	60	84	GapExp	0	35	2	1	0	target	0	880	-1000	19648	13.328	13.144	13.512
ProbeTrackDT01	21	ProbeTrack	10.4	SCS215a	20100712.123426	20100712.123837	8	0.013328	60	10	60-180	60	176	GapExp	0	36	2	1	1	target	1	2039	0	19648	13.328	13.293	13.363
ProbeTrackDT01	21	ProbeTrack	10.4	SCS215a	20100712.123426	20100712.123844	8	0.013328	60	10	60-180	60	90	GapExp	0	37	2	75	1	target	1	707	647	20295	13.328	13.148	13.507
ProbeTrackDT01	21	ProbeTrack	10.4	SCS215a	20100712.123426	20100712.123851	8	0.013328	60	10	60-180	60	61	GapExp	0	38	2	4	1	target	1	760	620	20915	13.328	13.293	13.364
ProbeTrackDT01	21	ProbeTrack	10.4	SCS215a	20100712.123426	20100712.123856	8	0.013328	60	10	60-180	60	101	GapExp	0	39	2	75	1	target	1	1493	254	21169	13.328	13.293	13.363
ProbeTrackDT01	21	ProbeTrack	10.4	SCS215a	20100712.123426	20100712.123903	8	0.013328	60	10	60-180	60	171	GapExp	0	40	2	1	0	target	0	1040	-1000	20169	13.328	13.192	13.465
ProbeTrackDT01	21	ProbeTrack	10.4	SCS215a	20100712.123426	20100712.123910	8	0.013328	60	10	60-180	60	103	GapExp	0	41	2	1	1	distractor	0	1373	-1000	19169	13.328	13.216	13.439
ProbeTrackDT01	21	ProbeTrack	10.4	SCS215a	20100712.123426	20100712.123916	8	0.013328	60	10	60-180	60	171	GapExp	0	42	2	1	0	target	0	653	-1000	18169	13.328	13.293	13.363
ProbeTrackDT01	21	ProbeTrack	10.4	SCS215a	20100712.123426	20100712.123922	8	0.013328	60	10	60-180	60	105	GapExp	0	43	2	75	1	distractor	0	1080	-1000	17169	13.328	13.254	13.368
ProbeTrackDT01	21	ProbeTrack	10.4	SCS215a	20100712.123426	20100712.123929	8	0.013328	60	10	60-180	60	134	GapExp	0	44	2	4	0	distractor	1	1067	467	17636	13.328	13.039	13.617
ProbeTrackDT01	21	ProbeTrack	10.4	SCS215a	20100712.123426	20100712.123936	8	0.013328	60	10	60-180	60	137	GapExp	0	45	2	75	1	target	1	1067	467	18103	13.328	13.232	13.423
ProbeTrackDT01	21	ProbeTrack	10.4	SCS215a	20100712.123426	20100712.123943	8	0.013328	60	10	60-180	60	113	GapExp	0	46	2	0	0	distractor	1	1027	487	18590	13.328	13.276	13.415
ProbeTrackDT01	21	ProbeTrack	10.4	SCS215a	20100712.123426	20100712.123949	8	0.013328	60	10	60-180	60	118	GapExp	0	47	2	4	0	target	0	3905	-1000	17590	13.328	13.133	13.557
ProbeTrackDT01	21	ProbeTrack	10.4	SCS215a	20100712.123426	20100712.123958	8	0.013328	60	10	60-180	60	107	GapExp	0	48	2	75	1	target	1	800	600	18190	13.328	13.293	13.363
ProbeTrackDT01	21	ProbeTrack	10.4	SCS215a	20100712.123426	20100712.124005	8	0.013328	60	10	60-180	60	162	GapExp	0	49	2	1	0	target	0	2666	-1000	17190	13.328	13.218	13.436
ProbeTrackDT01	21	ProbeTrack	10.4	SCS215a	20100712.123426	20100712.124013	8	0.013328	60	10	60-180	60	139	GapExp	0	50	2	1	1	distractor	0	773	-1000	16190	13.328	13.129	13.494
ProbeTrackDT01	21	ProbeTrack	10.4	SCS215a	20100712.123426	20100712.124108	8	0.013328	60	10	60-180	60	92	GapExp	0	51	2	4	1	target	1	893	554	16744	13.328	13.286	13.369
ProbeTrackDT01	21	ProbeTrack	10.4	SCS215a	20100712.123426	20100712.124114	8	0.013328	60	10	60-180	60	151	GapExp	0	52	2	4	0	distractor	1	627	687	17431	13.328	13.292	13.363
ProbeTrackDT01	21	ProbeTrack	10.4	SCS215a	20100712.123426	20100712.124120	8	0.013328	60	10	60-180	60	168	GapExp	0	53	2	2	1	target	1	707	647	18078	13.328	13.293	13.363
ProbeTrackDT01	21	ProbeTrack	10.4	SCS215a	20100712.123426	20100712.124127	8	0.013328	60	10	60-180	60	101	GapExp	0	54	2	1	0	distractor	1	467	767	18845	13.328	13.293	13.363
ProbeTrackDT01	21	ProbeTrack	10.4	SCS215a	20100712.123426	20100712.124132	8	0.013328	60	10	60-180	60	119	GapExp	0	55	2	2	1	target	1	960	520	19365	13.328	13.164	13.492
ProbeTrackDT01	21	ProbeTrack	10.4	SCS215a	20100712.123426	20100712.124138	8	0.013328	60	10	60-180	60	165	GapExp	0	56	2	0	1	distractor	0	800	-1000	18365	13.328	13.255	13.399
ProbeTrackDT01	21	ProbeTrack	10.4	SCS215a	20100712.123426	20100712.124144	8	0.013328	60	10	60-180	60	90	GapExp	0	57	2	0	0	target	0	893	-1000	17365	13.328	13.178	13.477
ProbeTrackDT01	21	ProbeTrack	10.4	SCS215a	20100712.123426	20100712.124150	8	0.013328	60	10	60-180	60	128	GapExp	0	58	2	2	0	distractor	1	693	654	18019	13.328	13.292	13.363
ProbeTrackDT01	21	ProbeTrack	10.4	SCS215a	20100712.123426	20100712.124155	8	0.013328	60	10	60-180	60	97	GapExp	0	59	2	1	1	target	1	1973	14	18033	13.328	13.062	13.560
ProbeTrackDT01	21	ProbeTrack	10.4	SCS215a	20100712.123426	20100712.124202	8	0.013328	60	10	60-180	60	121	GapExp	0	60	2	2	0	target	0	693	-1000	17033	13.328	13.171	13.486
ProbeTrackDT01	21	ProbeTrack	10.4	SCS215a	20100712.123426	20100712.124208	8	0.013328	60	10	60-180	60	93	GapExp	0	61	2	4	1	target	1	1053	474	17507	13.328	13.216	13.472
ProbeTrackDT01	21	ProbeTrack	10.4	SCS215a	20100712.123426	20100712.124214	8	0.013328	60	10	60-180	60	164	GapExp	0	62	2	0	0	target	0	867	-1000	16507	13.328	13.169	13.497
ProbeTrackDT01	21	ProbeTrack	10.4	SCS215a	20100712.123426	20100712.124220	8	0.013328	60	10	60-180	60	74	GapExp	0	63	2	1	1	distractor	0	733	-1000	15507	13.328	13.293	13.365
ProbeTrackDT01	21	ProbeTrack	10.4	SCS215a	20100712.123426	20100712.124225	8	0.013328	60	10	60-180	60	114	GapExp	0	64	2	75	0	distractor	1	893	554	16061	13.328	13.252	13.406
ProbeTrackDT01	21	ProbeTrack	10.4	SCS215a	20100712.123426	20100712.124232	8	0.013328	60	10	60-180	60	162	GapExp	0	65	2	0	0	target	0	747	-1000	15061	13.328	13.293	13.363
ProbeTrackDT01	21	ProbeTrack	10.4	SCS215a	20100712.123426	20100712.124238	8	0.013328	60	10	60-180	60	114	GapExp	0	66	2	75	1	target	1	694	653	15714	13.328	13.107	13.547
ProbeTrackDT01	21	ProbeTrack	10.4	SCS215a	20100712.123426	20100712.124245	8	0.013328	60	10	60-180	60	64	GapExp	0	67	2	75	0	distractor	1	667	667	16381	13.328	13.293	13.363
ProbeTrackDT01	21	ProbeTrack	10.4	SCS215a	20100712.123426	20100712.124251	8	0.013328	60	10	60-180	60	98	GapExp	0	68	2	0	1	target	1	1040	480	16861	13.328	13.293	13.363
ProbeTrackDT01	21	ProbeTrack	10.4	SCS215a	20100712.123426	20100712.124257	8	0.013328	60	10	60-180	60	62	GapExp	0	69	2	1	0	distractor	1	614	693	17554	13.328	13.010	13.644
ProbeTrackDT01	21	ProbeTrack	10.4	SCS215a	20100712.123426	20100712.124301	8	0.013328	60	10	60-180	60	158	GapExp	0	70	2	2	1	distractor	0	387	-1000	16554	13.328	13.098	13.556
ProbeTrackDT01	21	ProbeTrack	10.4	SCS215a	20100712.123426	20100712.124307	8	0.013328	60	10	60-180	60	155	GapExp	0	71	2	0	1	target	1	400	800	17354	13.328	13.165	13.490
ProbeTrackDT01	21	ProbeTrack	10.4	SCS215a	20100712.123426	20100712.124313	8	0.013328	60	10	60-180	60	85	GapExp	0	72	2	75	1	target	1	640	680	18034	13.328	13.293	13.366
ProbeTrackDT01	21	ProbeTrack	10.4	SCS215a	20100712.123426	20100712.124319	8	0.013328	60	10	60-180	60	122	GapExp	0	73	2	0	0	target	0	454	-1000	17034	13.328	12.966	13.691
ProbeTrackDT01	21	ProbeTrack	10.4	SCS215a	20100712.123426	20100712.124325	8	0.013328	60	10	60-180	60	128	GapExp	0	74	2	2	1	distractor	0	507	-1000	16034	13.328	13.274	13.382
ProbeTrackDT01	21	ProbeTrack	10.4	SCS215a	20100712.123426	20100712.124331	8	0.013328	60	10	60-180	60	84	GapExp	0	75	2	1	0	target	0	988	-1000	15034	13.328	13.150	13.507
ProbeTrackDT01	21	ProbeTrack	10.4	SCS215a	20100712.123426	20100712.124336	8	0.013328	60	10	60-180	60	164	GapExp	0	76	2	1	0	distractor	1	667	667	15701	13.328	13.114	13.541
ProbeTrackDT01	21	ProbeTrack	10.4	SCS215a	20100712.123426	20100712.124342	8	0.013328	60	10	60-180	60	110	GapExp	0	77	2	1	0	distractor	1	813	594	16295	13.328	13.293	13.363
ProbeTrackDT01	21	ProbeTrack	10.4	SCS215a	20100712.123426	20100712.124348	8	0.013328	60	10	60-180	60	78	GapExp	0	78	2	0	1	target	1	680	660	16955	13.389	13.052	26.899
ProbeTrackDT01	21	ProbeTrack	10.4	SCS215a	20100712.123426	20100712.124353	8	0.013328	60	10	60-180	60	172	GapExp	0	79	2	4	1	target	1	693	654	17609	13.328	13.234	13.419
ProbeTrackDT01	21	ProbeTrack	10.4	SCS215a	20100712.123426	20100712.124400	8	0.013328	60	10	60-180	60	164	GapExp	0	80	2	75	1	distractor	0	547	-1000	16609	13.328	13.290	13.366
ProbeTrackDT01	21	ProbeTrack	10.4	SCS215a	20100712.123426	20100712.124407	8	0.013328	60	10	60-180	60	74	GapExp	0	81	2	4	0	target	0	1027	-1000	15609	13.328	13.293	13.363
ProbeTrackDT01	21	ProbeTrack	10.4	SCS215a	20100712.123426	20100712.124412	8	0.013328	60	10	60-180	60	82	GapExp	0	82	2	0	1	target	1	653	674	16283	13.328	13.291	13.363
ProbeTrackDT01	21	ProbeTrack	10.4	SCS215a	20100712.123426	20100712.124417	8	0.013328	60	10	60-180	60	84	GapExp	0	83	2	75	0	distractor	1	574	713	16996	13.328	12.982	13.640
ProbeTrackDT01	21	ProbeTrack	10.4	SCS215a	20100712.123426	20100712.124424	8	0.013328	60	10	60-180	60	176	GapExp	0	84	2	2	1	distractor	0	467	-1000	15996	13.328	13.051	13.571
ProbeTrackDT01	21	ProbeTrack	10.4	SCS215a	20100712.123426	20100712.124430	8	0.013328	60	10	60-180	60	102	GapExp	0	85	2	0	1	target	1	1107	447	16443	13.328	13.073	13.581
ProbeTrackDT01	21	ProbeTrack	10.4	SCS215a	20100712.123426	20100712.124436	8	0.013328	60	10	60-180	60	94	GapExp	0	86	2	2	0	target	0	853	-1000	15443	13.328	13.293	13.363
ProbeTrackDT01	21	ProbeTrack	10.4	SCS215a	20100712.123426	20100712.124441	8	0.013328	60	10	60-180	60	76	GapExp	0	87	2	4	1	target	1	1653	174	15617	13.328	12.997	13.624
ProbeTrackDT01	21	ProbeTrack	10.4	SCS215a	20100712.123426	20100712.124447	8	0.013328	60	10	60-180	60	72	GapExp	0	88	2	2	1	target	1	1786	107	15724	13.328	13.095	13.559
ProbeTrackDT01	21	ProbeTrack	10.4	SCS215a	20100712.123426	20100712.124453	8	0.013328	60	10	60-180	60	125	GapExp	0	89	2	1	1	target	1	773	614	16338	13.328	13.011	13.680
ProbeTrackDT01	21	ProbeTrack	10.4	SCS215a	20100712.123426	20100712.124459	8	0.013328	60	10	60-180	60	81	GapExp	0	90	2	2	0	target	0	1000	-1000	15338	13.328	13.089	13.566
ProbeTrackDT01	21	ProbeTrack	10.4	SCS215a	20100712.123426	20100712.124505	8	0.013328	60	10	60-180	60	70	GapExp	0	91	2	2	0	distractor	1	1640	180	15518	13.328	13.293	13.363
ProbeTrackDT01	21	ProbeTrack	10.4	SCS215a	20100712.123426	20100712.124511	8	0.013328	60	10	60-180	60	170	GapExp	0	92	2	2	0	target	0	187	-1000	14518	13.328	13.293	13.383
ProbeTrackDT01	21	ProbeTrack	10.4	SCS215a	20100712.123426	20100712.124517	8	0.013328	60	10	60-180	60	134	GapExp	0	93	2	4	0	distractor	1	827	587	15105	13.375	13.268	26.655
ProbeTrackDT01	21	ProbeTrack	10.4	SCS215a	20100712.123426	20100712.124523	8	0.013328	60	10	60-180	60	180	GapExp	0	94	2	1	0	target	0	600	-1000	14105	13.328	13.272	13.383
ProbeTrackDT01	21	ProbeTrack	10.4	SCS215a	20100712.123426	20100712.124529	8	0.013328	60	10	60-180	60	67	GapExp	0	95	2	75	1	distractor	0	454	-1000	13105	13.328	13.293	13.385
ProbeTrackDT01	21	ProbeTrack	10.4	SCS215a	20100712.123426	20100712.124535	8	0.013328	60	10	60-180	60	96	GapExp	0	96	2	4	1	target	1	587	707	13812	13.328	13.290	13.366
ProbeTrackDT01	21	ProbeTrack	10.4	SCS215a	20100712.123426	20100712.124540	8	0.013328	60	10	60-180	60	159	GapExp	0	97	2	75	0	distractor	1	400	800	14612	13.328	13.293	13.363
ProbeTrackDT01	21	ProbeTrack	10.4	SCS215a	20100712.123426	20100712.124547	8	0.013328	60	10	60-180	60	134	GapExp	0	98	2	2	1	target	1	640	680	15292	13.328	13.293	13.363
ProbeTrackDT01	21	ProbeTrack	10.4	SCS215a	20100712.123426	20100712.124553	8	0.013328	60	10	60-180	60	102	GapExp	0	99	2	4	0	distractor	1	680	660	15952	13.328	13.223	13.433
ProbeTrackDT01	21	ProbeTrack	10.4	SCS215a	20100712.123426	20100712.124559	8	0.013328	60	10	60-180	60	89	GapExp	0	100	2	0	1	target	1	840	580	16532	13.328	13.104	13.553
ProbeTrackDT01	21	ProbeTrack	10.4	SCS215a	20100712.123426	20100712.124635	8	0.013328	60	10	60-180	60	95	GapExp	0	101	2	75	1	target	1	667	667	17199	13.328	13.293	13.363
ProbeTrackDT01	21	ProbeTrack	10.4	SCS215a	20100712.123426	20100712.124642	8	0.013328	60	10	60-180	60	63	GapExp	0	102	2	1	1	target	1	627	687	17886	13.328	13.190	13.465
ProbeTrackDT01	21	ProbeTrack	10.4	SCS215a	20100712.123426	20100712.124647	8	0.013328	60	10	60-180	60	84	GapExp	0	103	2	2	1	target	1	613	694	18580	13.328	13.114	13.542
ProbeTrackDT01	21	ProbeTrack	10.4	SCS215a	20100712.123426	20100712.124652	8	0.013328	60	10	60-180	60	146	GapExp	0	104	2	0	0	target	0	747	-1000	17580	13.328	13.255	13.434
ProbeTrackDT01	21	ProbeTrack	10.4	SCS215a	20100712.123426	20100712.124658	8	0.013328	60	10	60-180	60	174	GapExp	0	105	2	2	1	target	1	1120	440	18020	13.328	13.293	13.363
ProbeTrackDT01	21	ProbeTrack	10.4	SCS215a	20100712.123426	20100712.124705	8	0.013328	60	10	60-180	60	96	GapExp	0	106	2	1	0	distractor	1	693	654	18674	13.328	13.292	13.363
ProbeTrackDT01	21	ProbeTrack	10.4	SCS215a	20100712.123426	20100712.124710	8	0.013328	60	10	60-180	60	142	GapExp	0	107	2	75	0	target	0	627	-1000	17674	13.328	13.293	13.363
ProbeTrackDT01	21	ProbeTrack	10.4	SCS215a	20100712.123426	20100712.124717	8	0.013328	60	10	60-180	60	100	GapExp	0	108	2	1	1	target	1	494	753	18427	13.328	13.153	13.468
ProbeTrackDT01	21	ProbeTrack	10.4	SCS215a	20100712.123426	20100712.124722	8	0.013328	60	10	60-180	60	124	GapExp	0	109	2	4	1	target	1	520	740	19167	13.328	12.979	13.643
ProbeTrackDT01	21	ProbeTrack	10.4	SCS215a	20100712.123426	20100712.124728	8	0.013328	60	10	60-180	60	100	GapExp	0	110	2	2	1	target	1	653	674	19841	13.328	13.179	13.443
ProbeTrackDT01	21	ProbeTrack	10.4	SCS215a	20100712.123426	20100712.124733	8	0.013328	60	10	60-180	60	114	GapExp	0	111	2	75	0	target	0	467	-1000	18841	13.328	13.293	13.363
ProbeTrackDT01	21	ProbeTrack	10.4	SCS215a	20100712.123426	20100712.124740	8	0.013328	60	10	60-180	60	172	GapExp	0	112	2	4	1	target	1	600	700	19541	13.328	13.175	13.452
ProbeTrackDT01	21	ProbeTrack	10.4	SCS215a	20100712.123426	20100712.124746	8	0.013328	60	10	60-180	60	149	GapExp	0	113	2	4	0	distractor	1	480	760	20301	13.328	13.255	13.401
ProbeTrackDT01	21	ProbeTrack	10.4	SCS215a	20100712.123426	20100712.124752	8	0.013328	60	10	60-180	60	137	GapExp	0	114	2	0	0	distractor	1	707	647	20948	13.328	13.197	13.457
ProbeTrackDT01	21	ProbeTrack	10.4	SCS215a	20100712.123426	20100712.124758	8	0.013328	60	10	60-180	60	69	GapExp	0	115	2	2	0	distractor	1	627	687	21635	13.328	13.137	13.485
ProbeTrackDT01	21	ProbeTrack	10.4	SCS215a	20100712.123426	20100712.124803	8	0.013328	60	10	60-180	60	124	GapExp	0	116	2	1	1	target	1	667	667	22302	13.328	13.267	13.363
ProbeTrackDT01	21	ProbeTrack	10.4	SCS215a	20100712.123426	20100712.124809	8	0.013328	60	10	60-180	60	108	GapExp	0	117	2	1	0	distractor	1	720	640	22942	13.328	13.050	13.607
ProbeTrackDT01	21	ProbeTrack	10.4	SCS215a	20100712.123426	20100712.124814	8	0.013328	60	10	60-180	60	90	GapExp	0	118	2	0	1	distractor	0	920	-1000	21942	13.328	13.293	13.363
ProbeTrackDT01	21	ProbeTrack	10.4	SCS215a	20100712.123426	20100712.124820	8	0.013328	60	10	60-180	60	173	GapExp	0	119	2	4	0	distractor	1	627	687	22629	13.328	13.293	13.363
ProbeTrackDT01	21	ProbeTrack	10.4	SCS215a	20100712.123426	20100712.124826	8	0.013328	60	10	60-180	60	170	GapExp	0	120	2	0	0	distractor	1	693	654	23283	13.328	13.188	13.435
ProbeTrackDT01	21	ProbeTrack	10.4	SCS215a	20100712.123426	20100712.124833	8	0.013328	60	10	60-180	60	85	GapExp	0	121	2	75	0	distractor	1	880	560	23843	13.328	13.144	13.544
ProbeTrackDT01	21	ProbeTrack	10.4	SCS215a	20100712.123426	20100712.124839	8	0.013328	60	10	60-180	60	176	GapExp	0	122	2	2	0	distractor	1	1013	494	24337	13.328	13.113	13.509
ProbeTrackDT01	21	ProbeTrack	10.4	SCS215a	20100712.123426	20100712.124846	8	0.013328	60	10	60-180	60	121	GapExp	0	123	2	2	0	target	0	827	-1000	23337	13.328	13.245	13.445
ProbeTrackDT01	21	ProbeTrack	10.4	SCS215a	20100712.123426	20100712.124852	8	0.013328	60	10	60-180	60	177	GapExp	0	124	2	0	1	target	1	653	674	24011	13.328	13.293	13.363
ProbeTrackDT01	21	ProbeTrack	10.4	SCS215a	20100712.123426	20100712.124858	8	0.013328	60	10	60-180	60	97	GapExp	0	125	2	75	0	distractor	1	587	707	24718	13.328	13.293	13.364
ProbeTrackDT01	21	ProbeTrack	10.4	SCS215a	20100712.123426	20100712.124905	8	0.013328	60	10	60-180	60	139	GapExp	0	126	2	1	1	target	1	667	667	25385	13.328	13.293	13.363
ProbeTrackDT01	21	ProbeTrack	10.4	SCS215a	20100712.123426	20100712.124910	8	0.013328	60	10	60-180	60	171	GapExp	0	127	2	4	0	target	0	867	-1000	24385	13.328	13.052	13.603
ProbeTrackDT01	21	ProbeTrack	10.4	SCS215a	20100712.123426	20100712.124917	8	0.013328	60	10	60-180	60	74	GapExp	0	128	2	75	0	target	0	547	-1000	23385	13.328	13.225	13.432
ProbeTrackDT01	21	ProbeTrack	10.4	SCS215a	20100712.123426	20100712.124923	8	0.013328	60	10	60-180	60	171	GapExp	0	129	2	4	1	target	1	480	760	24145	13.328	13.293	13.363
ProbeTrackDT01	21	ProbeTrack	10.4	SCS215a	20100712.123426	20100712.124929	8	0.013328	60	10	60-180	60	101	GapExp	0	130	2	4	0	distractor	1	680	660	24805	13.328	13.292	13.363
ProbeTrackDT01	21	ProbeTrack	10.4	SCS215a	20100712.123426	20100712.124935	8	0.013328	60	10	60-180	60	165	GapExp	0	131	2	0	0	distractor	1	907	547	25352	13.328	13.178	13.513
ProbeTrackDT01	21	ProbeTrack	10.4	SCS215a	20100712.123426	20100712.124941	8	0.013328	60	10	60-180	60	157	GapExp	0	132	2	4	1	target	1	707	647	25999	13.328	13.172	13.517
ProbeTrackDT01	21	ProbeTrack	10.4	SCS215a	20100712.123426	20100712.124948	8	0.013328	60	10	60-180	60	170	GapExp	0	133	2	4	0	target	0	667	-1000	24999	13.328	13.292	13.363
ProbeTrackDT01	21	ProbeTrack	10.4	SCS215a	20100712.123426	20100712.124954	8	0.013328	60	10	60-180	60	70	GapExp	0	134	2	4	1	target	1	653	674	25673	13.328	13.293	13.363
ProbeTrackDT01	21	ProbeTrack	10.4	SCS215a	20100712.123426	20100712.124959	8	0.013328	60	10	60-180	60	82	GapExp	0	135	2	1	1	target	1	547	727	26400	13.328	13.139	13.550
ProbeTrackDT01	21	ProbeTrack	10.4	SCS215a	20100712.123426	20100712.125004	8	0.013328	60	10	60-180	60	80	GapExp	0	136	2	0	1	target	1	840	580	26980	13.328	13.293	13.363
ProbeTrackDT01	21	ProbeTrack	10.4	SCS215a	20100712.123426	20100712.125009	8	0.013328	60	10	60-180	60	157	GapExp	0	137	2	4	1	target	1	600	700	27680	13.328	13.293	13.365
ProbeTrackDT01	21	ProbeTrack	10.4	SCS215a	20100712.123426	20100712.125016	8	0.013328	60	10	60-180	60	131	GapExp	0	138	2	2	1	target	1	720	640	28320	13.328	13.178	13.477
ProbeTrackDT01	21	ProbeTrack	10.4	SCS215a	20100712.123426	20100712.125021	8	0.013328	60	10	60-180	60	138	GapExp	0	139	2	0	1	target	1	587	707	29027	13.328	13.219	13.403
ProbeTrackDT01	21	ProbeTrack	10.4	SCS215a	20100712.123426	20100712.125027	8	0.013328	60	10	60-180	60	180	GapExp	0	140	2	2	1	target	1	560	720	29747	13.328	13.293	13.363
ProbeTrackDT01	21	ProbeTrack	10.4	SCS215a	20100712.123426	20100712.125034	8	0.013328	60	10	60-180	60	179	GapExp	0	141	2	0	0	target	0	773	-1000	28747	13.328	13.293	13.363
ProbeTrackDT01	21	ProbeTrack	10.4	SCS215a	20100712.123426	20100712.125040	8	0.013328	60	10	60-180	60	106	GapExp	0	142	2	1	1	target	1	587	707	29454	13.328	13.293	13.363
ProbeTrackDT01	21	ProbeTrack	10.4	SCS215a	20100712.123426	20100712.125046	8	0.013328	60	10	60-180	60	79	GapExp	0	143	2	1	1	target	1	773	614	30068	13.328	13.293	13.363
ProbeTrackDT01	21	ProbeTrack	10.4	SCS215a	20100712.123426	20100712.125051	8	0.013328	60	10	60-180	60	79	GapExp	0	144	2	1	0	target	0	1373	-1000	29068	13.328	13.293	13.363
ProbeTrackDT01	21	ProbeTrack	10.4	SCS215a	20100712.123426	20100712.125057	8	0.013328	60	10	60-180	60	123	GapExp	0	145	2	75	0	target	0	733	-1000	28068	13.328	13.138	13.551
ProbeTrackDT01	21	ProbeTrack	10.4	SCS215a	20100712.123426	20100712.125104	8	0.013328	60	10	60-180	60	105	GapExp	0	146	2	2	1	distractor	0	920	-1000	27068	13.328	13.293	13.363
ProbeTrackDT01	21	ProbeTrack	10.4	SCS215a	20100712.123426	20100712.125109	8	0.013328	60	10	60-180	60	163	GapExp	0	147	2	2	1	target	1	600	700	27768	13.417	13.292	39.937
ProbeTrackDT01	21	ProbeTrack	10.4	SCS215a	20100712.123426	20100712.125116	8	0.013328	60	10	60-180	60	158	GapExp	0	148	2	1	0	distractor	1	640	680	28448	13.328	13.293	13.363
ProbeTrackDT01	21	ProbeTrack	10.4	SCS215a	20100712.123426	20100712.125122	8	0.013328	60	10	60-180	60	111	GapExp	0	149	2	0	0	target	0	987	-1000	27448	13.328	13.144	13.512
ProbeTrackDT01	21	ProbeTrack	10.4	SCS215a	20100712.123426	20100712.125128	8	0.013328	60	10	60-180	60	98	GapExp	0	150	2	1	0	distractor	1	627	687	28135	13.328	13.257	13.364
ProbeTrackDT01	21	ProbeTrack	10.4	SCS215a	20100712.123426	20100712.125157	8	0.013328	60	10	60-180	60	105	GapExp	0	151	2	2	0	target	0	1120	-1000	27135	13.328	13.293	13.363
ProbeTrackDT01	21	ProbeTrack	10.4	SCS215a	20100712.123426	20100712.125203	8	0.013328	60	10	60-180	60	99	GapExp	0	152	2	75	1	distractor	0	547	-1000	26135	13.328	13.277	13.413
ProbeTrackDT01	21	ProbeTrack	10.4	SCS215a	20100712.123426	20100712.125209	8	0.013328	60	10	60-180	60	125	GapExp	0	153	2	75	0	distractor	1	507	747	26882	13.328	13.293	13.363
ProbeTrackDT01	21	ProbeTrack	10.4	SCS215a	20100712.123426	20100712.125216	8	0.013328	60	10	60-180	60	160	GapExp	0	154	2	2	0	target	0	587	-1000	25882	13.328	13.182	13.507
ProbeTrackDT01	21	ProbeTrack	10.4	SCS215a	20100712.123426	20100712.125222	8	0.013328	60	10	60-180	60	123	GapExp	0	155	2	4	0	target	0	547	-1000	24882	13.328	13.290	13.363
ProbeTrackDT01	21	ProbeTrack	10.4	SCS215a	20100712.123426	20100712.125228	8	0.013328	60	10	60-180	60	85	GapExp	0	156	2	0	1	target	1	614	693	25575	13.328	13.284	13.373
ProbeTrackDT01	21	ProbeTrack	10.4	SCS215a	20100712.123426	20100712.125233	8	0.013328	60	10	60-180	60	92	GapExp	0	157	2	75	1	target	1	547	727	26302	13.328	13.229	13.425
ProbeTrackDT01	21	ProbeTrack	10.4	SCS215a	20100712.123426	20100712.125239	8	0.013328	60	10	60-180	60	127	GapExp	0	158	2	4	0	target	0	733	-1000	25302	13.328	13.293	13.363
ProbeTrackDT01	21	ProbeTrack	10.4	SCS215a	20100712.123426	20100712.125245	8	0.013328	60	10	60-180	60	84	GapExp	0	159	2	75	1	target	1	520	740	26042	13.328	13.291	13.390
ProbeTrackDT01	21	ProbeTrack	10.4	SCS215a	20100712.123426	20100712.125251	8	0.013328	60	10	60-180	60	176	GapExp	0	160	2	75	1	target	1	547	727	26769	13.328	13.293	13.363
ProbeTrackDT01	21	ProbeTrack	10.4	SCS215a	20100712.123426	20100712.125258	8	0.013328	60	10	60-180	60	85	GapExp	0	161	2	1	0	distractor	1	574	713	27482	13.328	13.117	13.539
ProbeTrackDT01	21	ProbeTrack	10.4	SCS215a	20100712.123426	20100712.125303	8	0.013328	60	10	60-180	60	103	GapExp	0	162	2	0	0	distractor	1	800	600	28082	13.328	13.293	13.363
ProbeTrackDT01	21	ProbeTrack	10.4	SCS215a	20100712.123426	20100712.125309	8	0.013328	60	10	60-180	60	147	GapExp	0	163	2	4	1	target	1	520	740	28822	13.328	13.293	13.363
ProbeTrackDT01	21	ProbeTrack	10.4	SCS215a	20100712.123426	20100712.125315	8	0.013328	60	10	60-180	60	162	GapExp	0	164	2	1	0	distractor	1	667	667	29489	13.328	13.247	13.408
ProbeTrackDT01	21	ProbeTrack	10.4	SCS215a	20100712.123426	20100712.125321	8	0.013328	60	10	60-180	60	126	GapExp	0	165	2	1	1	target	1	1080	460	29949	13.328	13.293	13.366
ProbeTrackDT01	21	ProbeTrack	10.4	SCS215a	20100712.123426	20100712.125327	8	0.013328	60	10	60-180	60	90	GapExp	0	166	2	2	0	target	0	867	-1000	28949	13.328	12.947	13.676
ProbeTrackDT01	21	ProbeTrack	10.4	SCS215a	20100712.123426	20100712.125333	8	0.013328	60	10	60-180	60	102	GapExp	0	167	2	4	0	target	0	653	-1000	27949	13.328	13.086	13.535
ProbeTrackDT01	21	ProbeTrack	10.4	SCS215a	20100712.123426	20100712.125338	8	0.013328	60	10	60-180	60	162	GapExp	0	168	2	0	0	distractor	1	613	694	28643	13.373	13.089	26.728
ProbeTrackDT01	21	ProbeTrack	10.4	SCS215a	20100712.123426	20100712.125344	8	0.013328	60	10	60-180	60	129	GapExp	0	169	2	2	0	target	0	773	-1000	27643	13.328	13.293	13.363
ProbeTrackDT01	21	ProbeTrack	10.4	SCS215a	20100712.123426	20100712.125350	8	0.013328	60	10	60-180	60	134	GapExp	0	170	2	0	1	distractor	0	1000	-1000	26643	13.328	13.102	13.521
ProbeTrackDT01	21	ProbeTrack	10.4	SCS215a	20100712.123426	20100712.125357	8	0.013328	60	10	60-180	60	83	GapExp	0	171	2	75	0	target	0	653	-1000	25643	13.328	13.108	13.546
ProbeTrackDT01	21	ProbeTrack	10.4	SCS215a	20100712.123426	20100712.125403	8	0.013328	60	10	60-180	60	174	GapExp	0	172	2	0	1	target	1	707	647	26290	13.328	13.081	13.607
ProbeTrackDT01	21	ProbeTrack	10.4	SCS215a	20100712.123426	20100712.125409	8	0.013328	60	10	60-180	60	93	GapExp	0	173	2	4	1	target	1	707	647	26937	13.328	13.286	13.371
ProbeTrackDT01	21	ProbeTrack	10.4	SCS215a	20100712.123426	20100712.125415	8	0.013328	60	10	60-180	60	62	GapExp	0	174	2	75	1	target	1	1120	440	27377	13.328	13.293	13.365
ProbeTrackDT01	21	ProbeTrack	10.4	SCS215a	20100712.123426	20100712.125421	8	0.013328	60	10	60-180	60	123	GapExp	0	175	2	2	0	target	0	2386	-1000	26377	13.328	13.280	13.375
ProbeTrackDT01	21	ProbeTrack	10.4	SCS215a	20100712.123426	20100712.125429	8	0.013328	60	10	60-180	60	144	GapExp	0	176	2	75	0	target	0	760	-1000	25377	13.328	12.976	13.645
ProbeTrackDT01	21	ProbeTrack	10.4	SCS215a	20100712.123426	20100712.125436	8	0.013328	60	10	60-180	60	180	GapExp	0	177	2	0	0	distractor	1	693	654	26031	13.328	13.277	13.363
ProbeTrackDT01	21	ProbeTrack	10.4	SCS215a	20100712.123426	20100712.125442	8	0.013328	60	10	60-180	60	134	GapExp	0	178	2	75	1	distractor	0	547	-1000	25031	13.328	13.293	13.364
ProbeTrackDT01	21	ProbeTrack	10.4	SCS215a	20100712.123426	20100712.125449	8	0.013328	60	10	60-180	60	154	GapExp	0	179	2	0	1	target	1	654	673	25704	13.328	13.095	13.560
ProbeTrackDT01	21	ProbeTrack	10.4	SCS215a	20100712.123426	20100712.125455	8	0.013328	60	10	60-180	60	128	GapExp	0	180	2	2	1	target	1	627	687	26391	13.328	13.216	13.441
ProbeTrackDT01	21	ProbeTrack	10.4	SCS215a	20100712.123426	20100712.125501	8	0.013328	60	10	60-180	60	155	GapExp	0	181	2	1	1	target	1	627	687	27078	13.328	13.189	13.481
ProbeTrackDT01	21	ProbeTrack	10.4	SCS215a	20100712.123426	20100712.125507	8	0.013328	60	10	60-180	60	106	GapExp	0	182	2	75	1	distractor	0	600	-1000	26078	13.328	13.211	13.408
ProbeTrackDT01	21	ProbeTrack	10.4	SCS215a	20100712.123426	20100712.125513	8	0.013328	60	10	60-180	60	153	GapExp	0	183	2	4	0	target	0	627	-1000	25078	13.328	13.164	13.491
ProbeTrackDT01	21	ProbeTrack	10.4	SCS215a	20100712.123426	20100712.125520	8	0.013328	60	10	60-180	60	95	GapExp	0	184	2	2	0	distractor	1	613	694	25772	13.328	12.999	13.623
ProbeTrackDT01	21	ProbeTrack	10.4	SCS215a	20100712.123426	20100712.125525	8	0.013328	60	10	60-180	60	140	GapExp	0	185	2	4	0	distractor	1	787	607	26379	13.328	13.293	13.366
ProbeTrackDT01	21	ProbeTrack	10.4	SCS215a	20100712.123426	20100712.125531	8	0.013328	60	10	60-180	60	122	GapExp	0	186	2	75	1	target	1	707	647	27026	13.328	13.187	13.469
ProbeTrackDT01	21	ProbeTrack	10.4	SCS215a	20100712.123426	20100712.125538	8	0.013328	60	10	60-180	60	96	GapExp	0	187	2	75	0	target	0	560	-1000	26026	13.328	13.132	13.523
ProbeTrackDT01	21	ProbeTrack	10.4	SCS215a	20100712.123426	20100712.125544	8	0.013328	60	10	60-180	60	162	GapExp	0	188	2	1	1	distractor	0	560	-1000	25026	13.328	13.228	13.461
ProbeTrackDT01	21	ProbeTrack	10.4	SCS215a	20100712.123426	20100712.125550	8	0.013328	60	10	60-180	60	69	GapExp	0	189	2	0	0	distractor	1	680	660	25686	13.327	13.253	13.401
ProbeTrackDT01	21	ProbeTrack	10.4	SCS215a	20100712.123426	20100712.125555	8	0.013328	60	10	60-180	60	92	GapExp	0	190	2	2	0	target	0	647	-1000	24686	13.328	13.047	13.604
ProbeTrackDT01	21	ProbeTrack	10.4	SCS215a	20100712.123426	20100712.125601	8	0.013328	60	10	60-180	60	97	GapExp	0	191	2	1	0	distractor	1	653	674	25360	13.328	13.154	13.468
ProbeTrackDT01	21	ProbeTrack	10.4	SCS215a	20100712.123426	20100712.125606	8	0.013328	60	10	60-180	60	93	GapExp	0	192	2	0	1	target	1	587	707	26067	13.328	13.293	13.363
ProbeTrackDT01	21	ProbeTrack	10.4	SCS215a	20100712.123426	20100712.125611	8	0.013328	60	10	60-180	60	142	GapExp	0	193	2	1	0	distractor	1	587	707	26774	13.328	13.053	13.602
ProbeTrackDT01	21	ProbeTrack	10.4	SCS215a	20100712.123426	20100712.125617	8	0.013328	60	10	60-180	60	170	GapExp	0	194	2	1	1	target	1	693	654	27428	13.328	13.037	13.618
ProbeTrackDT01	21	ProbeTrack	10.4	SCS215a	20100712.123426	20100712.125623	8	0.013328	60	10	60-180	60	134	GapExp	0	195	2	4	0	target	0	693	-1000	26428	13.328	13.293	13.363
ProbeTrackDT01	21	ProbeTrack	10.4	SCS215a	20100712.123426	20100712.125629	8	0.013328	60	10	60-180	60	79	GapExp	0	196	2	1	0	distractor	1	1107	447	26875	13.328	13.116	13.538
ProbeTrackDT01	21	ProbeTrack	10.4	SCS215a	20100712.123426	20100712.125635	8	0.013328	60	10	60-180	60	175	GapExp	0	197	2	0	0	target	0	547	-1000	25875	13.328	13.293	13.363
ProbeTrackDT01	21	ProbeTrack	10.4	SCS215a	20100712.123426	20100712.125641	8	0.013328	60	10	60-180	60	126	GapExp	0	198	2	2	1	target	1	693	654	26529	13.328	13.292	13.363
ProbeTrackDT01	21	ProbeTrack	10.4	SCS215a	20100712.123426	20100712.125647	8	0.013328	60	10	60-180	60	70	GapExp	0	199	2	75	0	distractor	1	613	694	27223	13.328	13.142	13.547
ProbeTrackDT01	21	ProbeTrack	10.4	SCS215a	20100712.123426	20100712.125653	8	0.013328	60	10	60-180	60	113	GapExp	0	200	2	4	0	target	0	600	-1000	26223	13.328	13.047	13.608
ProbeTrackDT01	21	ProbeTrack	10.4	SCS215a	20100712.123426	20100712.125708	8	0.013328	60	10	60-180	60	139	GapExp	0	201	2	2	0	distractor	1	614	693	26916	13.328	13.017	13.672
ProbeTrackDT01	21	ProbeTrack	10.4	SCS215a	20100712.123426	20100712.125714	8	0.013328	60	10	60-180	60	169	GapExp	0	202	2	75	0	distractor	1	440	780	27696	13.328	13.293	13.363
ProbeTrackDT01	21	ProbeTrack	10.4	SCS215a	20100712.123426	20100712.125721	8	0.013328	60	10	60-180	60	148	GapExp	0	203	2	1	1	target	1	574	713	28409	13.328	13.147	13.519
ProbeTrackDT01	21	ProbeTrack	10.4	SCS215a	20100712.123426	20100712.125727	8	0.013328	60	10	60-180	60	84	GapExp	0	204	2	0	0	distractor	1	614	693	29102	13.328	13.079	13.581
ProbeTrackDT01	21	ProbeTrack	10.4	SCS215a	20100712.123426	20100712.125732	8	0.013328	60	10	60-180	60	164	GapExp	0	205	2	0	0	target	0	640	-1000	28102	13.328	13.147	13.544
ProbeTrackDT01	21	ProbeTrack	10.4	SCS215a	20100712.123426	20100712.125739	8	0.013328	60	10	60-180	60	139	GapExp	0	206	2	0	1	target	1	640	680	28782	13.328	13.293	13.363
ProbeTrackDT01	21	ProbeTrack	10.4	SCS215a	20100712.123426	20100712.125745	8	0.013328	60	10	60-180	60	178	GapExp	0	207	2	75	0	distractor	1	454	773	29555	13.328	13.128	13.494
ProbeTrackDT01	21	ProbeTrack	10.4	SCS215a	20100712.123426	20100712.125752	8	0.013328	60	10	60-180	60	148	GapExp	0	208	2	2	1	target	1	667	667	30222	13.328	13.137	13.486
ProbeTrackDT01	21	ProbeTrack	10.4	SCS215a	20100712.123426	20100712.125758	8	0.013328	60	10	60-180	60	128	GapExp	0	209	2	2	1	target	1	627	687	30909	13.328	13.054	13.601
ProbeTrackDT01	21	ProbeTrack	10.4	SCS215a	20100712.123426	20100712.125804	8	0.013328	60	10	60-180	60	81	GapExp	0	210	2	0	0	target	0	747	-1000	29909	13.328	13.278	13.378
