exp	sub	code	rev	comp	runtime	trialtime	nstim	refreshdur	cuedur	gapdur	gapOnsetRange	durPostProbe	gapOnsetTime	blocktype	prac	trial	ntargets	soa	probeTarget	resp	acc	rt	pts	tpts	meanFrameDur	minFrameDur	maxFrameDur
ProbeTrackDT01	19	ProbeTrack	10.4	SCS215a	20100708.125518	20100708.125529	8	0.013328	60	0	60-180	60	149	NoGap	1	1	2	1	0	distractor	1	853	574	574	13.328	13.293	13.363
ProbeTrackDT01	19	ProbeTrack	10.4	SCS215a	20100708.125518	20100708.125535	8	0.013328	60	0	60-180	60	136	NoGap	1	2	2	2	1	target	1	880	560	1134	13.328	13.293	13.363
ProbeTrackDT01	19	ProbeTrack	10.4	SCS215a	20100708.125518	20100708.125541	8	0.013328	60	0	60-180	60	122	NoGap	1	3	2	75	0	target	0	573	-1000	134	13.328	13.293	13.363
ProbeTrackDT01	19	ProbeTrack	10.4	SCS215a	20100708.125518	20100708.125548	8	0.013328	60	0	60-180	60	122	NoGap	1	4	2	75	1	distractor	0	400	-1000	-866	13.328	13.096	13.525
ProbeTrackDT01	19	ProbeTrack	10.4	SCS215a	20100708.125518	20100708.125554	8	0.013328	60	0	60-180	60	124	NoGap	1	5	2	1	0	distractor	1	547	727	-139	13.328	13.145	13.511
ProbeTrackDT01	19	ProbeTrack	10.4	SCS215a	20100708.125518	20100708.125559	8	0.013328	60	0	60-180	60	171	NoGap	1	6	2	2	0	distractor	1	440	780	641	13.328	13.293	13.363
ProbeTrackDT01	19	ProbeTrack	10.4	SCS215a	20100708.125518	20100708.125605	8	0.013328	60	0	60-180	60	164	NoGap	1	7	2	4	0	distractor	1	560	720	1361	13.328	13.293	13.363
ProbeTrackDT01	19	ProbeTrack	10.4	SCS215a	20100708.125518	20100708.125611	8	0.013328	60	0	60-180	60	68	NoGap	1	8	2	75	0	target	0	534	-1000	361	13.328	13.293	13.366
ProbeTrackDT01	19	ProbeTrack	10.4	SCS215a	20100708.125518	20100708.125617	8	0.013328	60	0	60-180	60	84	NoGap	1	9	2	4	1	target	1	507	747	1108	13.328	13.293	13.363
ProbeTrackDT01	19	ProbeTrack	10.4	SCS215a	20100708.125518	20100708.125622	8	0.013328	60	0	60-180	60	97	NoGap	1	10	2	1	0	distractor	1	787	607	1715	13.328	13.293	13.363
ProbeTrackDT01	19	ProbeTrack	10.4	SCS215a	20100708.125518	20100708.125628	8	0.013328	60	0	60-180	60	62	NoGap	1	11	2	1	1	target	1	440	780	2495	13.328	13.293	13.363
ProbeTrackDT01	19	ProbeTrack	10.4	SCS215a	20100708.125518	20100708.125632	8	0.013328	60	0	60-180	60	157	NoGap	1	12	2	0	0	distractor	1	547	727	3222	13.328	13.292	13.363
ProbeTrackDT01	19	ProbeTrack	10.4	SCS215a	20100708.125518	20100708.125638	8	0.013328	60	0	60-180	60	70	NoGap	1	13	2	2	0	distractor	1	587	707	3929	13.328	13.084	13.538
ProbeTrackDT01	19	ProbeTrack	10.4	SCS215a	20100708.125518	20100708.125643	8	0.013328	60	0	60-180	60	100	NoGap	1	14	2	0	1	target	1	440	780	4709	13.328	13.111	13.576
ProbeTrackDT01	19	ProbeTrack	10.4	SCS215a	20100708.125518	20100708.125648	8	0.013328	60	0	60-180	60	135	NoGap	1	15	2	0	1	target	1	520	740	5449	13.328	13.293	13.363
ProbeTrackDT01	19	ProbeTrack	10.4	SCS215a	20100708.125518	20100708.125653	8	0.013328	60	0	60-180	60	179	NoGap	1	16	2	75	0	distractor	1	427	787	6236	13.328	13.290	13.363
ProbeTrackDT01	19	ProbeTrack	10.4	SCS215a	20100708.125518	20100708.125701	8	0.013328	60	0	60-180	60	158	NoGap	1	17	2	2	1	target	1	507	747	6983	13.328	13.273	13.382
ProbeTrackDT01	19	ProbeTrack	10.4	SCS215a	20100708.125518	20100708.125706	8	0.013328	60	0	60-180	60	63	NoGap	1	18	2	4	1	target	1	467	767	7750	13.328	13.289	13.363
ProbeTrackDT01	19	ProbeTrack	10.4	SCS215a	20100708.125518	20100708.125711	8	0.013328	60	0	60-180	60	132	NoGap	1	19	2	2	0	distractor	1	520	740	8490	13.328	13.156	13.533
ProbeTrackDT01	19	ProbeTrack	10.4	SCS215a	20100708.125518	20100708.125717	8	0.013328	60	0	60-180	60	106	NoGap	1	20	2	2	1	multi	-2	387	-1000	7490	13.328	13.293	13.363
ProbeTrackDT01	19	ProbeTrack	10.4	SCS215a	20100708.125518	20100708.125722	8	0.013328	60	0	60-180	60	152	NoGap	1	21	2	1	0	target	0	427	-1000	6490	13.328	13.293	13.363
ProbeTrackDT01	19	ProbeTrack	10.4	SCS215a	20100708.125518	20100708.125727	8	0.013328	60	0	60-180	60	114	NoGap	1	22	2	2	1	target	1	374	813	7303	13.328	13.070	13.586
ProbeTrackDT01	19	ProbeTrack	10.4	SCS215a	20100708.125518	20100708.125733	8	0.013328	60	0	60-180	60	110	NoGap	1	23	2	0	0	distractor	1	520	740	8043	13.328	13.293	13.364
ProbeTrackDT01	19	ProbeTrack	10.4	SCS215a	20100708.125518	20100708.125738	8	0.013328	60	0	60-180	60	116	NoGap	1	24	2	0	0	distractor	1	600	700	8743	13.328	13.293	13.363
ProbeTrackDT01	19	ProbeTrack	10.4	SCS215a	20100708.125518	20100708.125743	8	0.013328	60	0	60-180	60	165	NoGap	1	25	2	4	0	distractor	1	534	733	9476	13.328	13.292	13.363
ProbeTrackDT01	19	ProbeTrack	10.4	SCS215a	20100708.125518	20100708.125749	8	0.013328	60	0	60-180	60	96	NoGap	1	26	2	1	1	target	1	400	800	10276	13.328	13.293	13.363
ProbeTrackDT01	19	ProbeTrack	10.4	SCS215a	20100708.125518	20100708.125754	8	0.013328	60	0	60-180	60	92	NoGap	1	27	2	75	1	target	1	360	820	11096	13.328	13.194	13.463
ProbeTrackDT01	19	ProbeTrack	10.4	SCS215a	20100708.125518	20100708.125800	8	0.013328	60	0	60-180	60	85	NoGap	1	28	2	4	1	distractor	0	427	-1000	10096	13.328	13.114	13.507
ProbeTrackDT01	19	ProbeTrack	10.4	SCS215a	20100708.125518	20100708.125805	8	0.013328	60	0	60-180	60	169	NoGap	1	29	2	1	1	target	1	360	820	10916	13.328	13.293	13.363
ProbeTrackDT01	19	ProbeTrack	10.4	SCS215a	20100708.125518	20100708.125811	8	0.013328	60	0	60-180	60	77	NoGap	1	30	2	4	0	distractor	1	520	740	11656	13.328	13.293	13.363
ProbeTrackDT01	19	ProbeTrack	10.4	SCS215a	20100708.125518	20100708.125816	8	0.013328	60	0	60-180	60	124	NoGap	1	31	2	1	1	target	1	347	827	12483	13.328	13.293	13.363
ProbeTrackDT01	19	ProbeTrack	10.4	SCS215a	20100708.125518	20100708.125821	8	0.013328	60	0	60-180	60	78	NoGap	1	32	2	2	0	distractor	1	573	714	13197	13.328	13.293	13.383
ProbeTrackDT01	19	ProbeTrack	10.4	SCS215a	20100708.125518	20100708.125826	8	0.013328	60	0	60-180	60	165	NoGap	1	33	2	0	1	target	1	374	813	14010	13.328	13.034	13.587
ProbeTrackDT01	19	ProbeTrack	10.4	SCS215a	20100708.125518	20100708.125832	8	0.013328	60	0	60-180	60	102	NoGap	1	34	2	75	1	target	1	360	820	14830	13.328	13.293	13.363
ProbeTrackDT01	19	ProbeTrack	10.4	SCS215a	20100708.125518	20100708.125838	8	0.013328	60	0	60-180	60	118	NoGap	1	35	2	0	0	distractor	1	560	720	15550	13.328	13.281	13.375
ProbeTrackDT01	19	ProbeTrack	10.4	SCS215a	20100708.125518	20100708.125843	8	0.013328	60	0	60-180	60	95	NoGap	1	36	2	75	0	distractor	1	427	787	16337	13.328	13.293	13.363
ProbeTrackDT01	19	ProbeTrack	10.4	SCS215a	20100708.125518	20100708.125849	8	0.013328	60	0	60-180	60	124	NoGap	1	37	2	0	1	target	1	440	780	17117	13.328	13.293	13.363
ProbeTrackDT01	19	ProbeTrack	10.4	SCS215a	20100708.125518	20100708.125854	8	0.013328	60	0	60-180	60	66	NoGap	1	38	2	4	1	target	1	427	787	17904	13.328	13.293	13.362
ProbeTrackDT01	19	ProbeTrack	10.4	SCS215a	20100708.125518	20100708.125859	8	0.013328	60	0	60-180	60	118	NoGap	1	39	2	4	0	distractor	1	520	740	18644	13.328	13.261	13.395
ProbeTrackDT01	19	ProbeTrack	10.4	SCS215a	20100708.125518	20100708.125904	8	0.013328	60	0	60-180	60	103	NoGap	1	40	2	75	1	target	1	320	840	19484	13.328	13.292	13.363
ProbeTrackDT01	19	ProbeTrack	10.4	SCS215a	20100708.130012	20100708.130019	8	0.013328	60	10	60-180	60	138	GapPrac	1	1	2	0	1	distractor	0	560	-1000	18484	13.328	13.290	13.363
ProbeTrackDT01	19	ProbeTrack	10.4	SCS215a	20100708.130012	20100708.130025	8	0.013328	60	10	60-180	60	179	GapPrac	1	2	2	1	0	distractor	1	667	667	19151	13.328	13.145	13.544
ProbeTrackDT01	19	ProbeTrack	10.4	SCS215a	20100708.130012	20100708.130031	8	0.013328	60	10	60-180	60	142	GapPrac	1	3	2	1	1	distractor	0	467	-1000	18151	13.328	13.293	13.363
ProbeTrackDT01	19	ProbeTrack	10.4	SCS215a	20100708.130012	20100708.130037	8	0.013328	60	10	60-180	60	77	GapPrac	1	4	2	75	0	distractor	1	627	687	18838	13.328	13.263	13.425
ProbeTrackDT01	19	ProbeTrack	10.4	SCS215a	20100708.130012	20100708.130043	8	0.013328	60	10	60-180	60	61	GapPrac	1	5	2	4	0	target	0	600	-1000	17838	13.328	13.293	13.363
ProbeTrackDT01	19	ProbeTrack	10.4	SCS215a	20100708.130012	20100708.130048	8	0.013328	60	10	60-180	60	67	GapPrac	1	6	2	2	1	target	1	467	767	18605	13.328	13.293	13.363
ProbeTrackDT01	19	ProbeTrack	10.4	SCS215a	20100708.130012	20100708.130052	8	0.013328	60	10	60-180	60	175	GapPrac	1	7	2	0	0	distractor	1	680	660	19265	13.328	13.293	13.363
ProbeTrackDT01	19	ProbeTrack	10.4	SCS215a	20100708.130012	20100708.130059	8	0.013328	60	10	60-180	60	165	GapPrac	1	8	2	4	1	target	1	427	787	20052	13.328	13.231	13.457
ProbeTrackDT01	19	ProbeTrack	10.4	SCS215a	20100708.130012	20100708.130105	8	0.013328	60	10	60-180	60	151	GapPrac	1	9	2	75	0	distractor	1	613	694	20746	13.328	13.293	13.363
ProbeTrackDT01	19	ProbeTrack	10.4	SCS215a	20100708.130012	20100708.130112	8	0.013328	60	10	60-180	60	95	GapPrac	1	10	2	0	1	target	1	560	720	21466	13.328	13.293	13.366
ProbeTrackDT01	19	ProbeTrack	10.4	SCS215a	20100708.130012	20100708.130117	8	0.013328	60	10	60-180	60	164	GapPrac	1	11	2	75	1	target	1	547	727	22193	13.328	13.293	13.363
ProbeTrackDT01	19	ProbeTrack	10.4	SCS215a	20100708.130012	20100708.130124	8	0.013328	60	10	60-180	60	65	GapPrac	1	12	2	1	1	target	1	467	767	22960	13.328	13.293	13.363
ProbeTrackDT01	19	ProbeTrack	10.4	SCS215a	20100708.130012	20100708.130129	8	0.013328	60	10	60-180	60	157	GapPrac	1	13	2	0	0	distractor	1	560	720	23680	13.328	13.293	13.363
ProbeTrackDT01	19	ProbeTrack	10.4	SCS215a	20100708.130012	20100708.130135	8	0.013328	60	10	60-180	60	122	GapPrac	1	14	2	1	0	distractor	1	707	647	24327	13.328	13.169	13.488
ProbeTrackDT01	19	ProbeTrack	10.4	SCS215a	20100708.130012	20100708.130141	8	0.013328	60	10	60-180	60	81	GapPrac	1	15	2	4	0	distractor	1	613	694	25021	13.328	13.293	13.363
ProbeTrackDT01	19	ProbeTrack	10.4	SCS215a	20100708.130012	20100708.130146	8	0.013328	60	10	60-180	60	77	GapPrac	1	16	2	2	0	distractor	1	534	733	25754	13.328	13.046	13.610
ProbeTrackDT01	19	ProbeTrack	10.4	SCS215a	20100708.130012	20100708.130151	8	0.013328	60	10	60-180	60	91	GapPrac	1	17	2	4	1	distractor	0	520	-1000	24754	13.328	13.293	13.363
ProbeTrackDT01	19	ProbeTrack	10.4	SCS215a	20100708.130012	20100708.130156	8	0.013328	60	10	60-180	60	81	GapPrac	1	18	2	2	1	target	1	693	654	25408	13.328	13.292	13.363
ProbeTrackDT01	19	ProbeTrack	10.4	SCS215a	20100708.130012	20100708.130201	8	0.013328	60	10	60-180	60	146	GapPrac	1	19	2	2	0	distractor	1	600	700	26108	13.328	13.293	13.363
ProbeTrackDT01	19	ProbeTrack	10.4	SCS215a	20100708.130012	20100708.130207	8	0.013328	60	10	60-180	60	130	GapPrac	1	20	2	75	1	target	1	587	707	26815	13.328	13.293	13.363
ProbeTrackDT01	19	ProbeTrack	10.4	SCS215a	20100708.130354	20100708.130415	8	0.013328	60	10	60-180	60	121	GapPrac	1	1	2	4	1	distractor	0	1013	-1000	25815	13.328	13.293	13.363
ProbeTrackDT01	19	ProbeTrack	10.4	SCS215a	20100708.130354	20100708.130421	8	0.013328	60	10	60-180	60	177	GapPrac	1	2	2	2	0	distractor	1	1213	394	26209	13.328	13.293	13.363
ProbeTrackDT01	19	ProbeTrack	10.4	SCS215a	20100708.130354	20100708.130428	8	0.013328	60	10	60-180	60	135	GapPrac	1	3	2	75	0	distractor	1	853	574	26783	13.328	13.195	13.428
ProbeTrackDT01	19	ProbeTrack	10.4	SCS215a	20100708.130354	20100708.130435	8	0.013328	60	10	60-180	60	83	GapPrac	1	4	2	0	1	target	1	1413	294	27077	13.328	13.152	13.504
ProbeTrackDT01	19	ProbeTrack	10.4	SCS215a	20100708.130354	20100708.130441	8	0.013328	60	10	60-180	60	139	GapPrac	1	5	2	2	1	target	1	1426	287	27364	13.328	13.293	13.363
ProbeTrackDT01	19	ProbeTrack	10.4	SCS215a	20100708.130354	20100708.130447	8	0.013328	60	10	60-180	60	129	GapPrac	1	6	2	1	0	target	0	480	-1000	26364	13.328	13.044	13.645
ProbeTrackDT01	19	ProbeTrack	10.4	SCS215a	20100708.130354	20100708.130453	8	0.013328	60	10	60-180	60	94	GapPrac	1	7	2	4	0	distractor	1	787	607	26971	13.328	13.293	13.362
ProbeTrackDT01	19	ProbeTrack	10.4	SCS215a	20100708.130354	20100708.130458	8	0.013328	60	10	60-180	60	172	GapPrac	1	8	2	2	0	distractor	1	587	707	27678	13.328	13.293	13.363
ProbeTrackDT01	19	ProbeTrack	10.4	SCS215a	20100708.130354	20100708.130505	8	0.013328	60	10	60-180	60	89	GapPrac	1	9	2	0	1	target	1	547	727	28405	13.328	13.262	13.394
ProbeTrackDT01	19	ProbeTrack	10.4	SCS215a	20100708.130354	20100708.130510	8	0.013328	60	10	60-180	60	91	GapPrac	1	10	2	1	1	target	1	680	660	29065	13.328	13.293	13.363
ProbeTrackDT01	19	ProbeTrack	10.4	SCS215a	20100708.130354	20100708.130515	8	0.013328	60	10	60-180	60	162	GapPrac	1	11	2	1	0	distractor	1	787	607	29672	13.328	13.292	13.364
ProbeTrackDT01	19	ProbeTrack	10.4	SCS215a	20100708.130354	20100708.130522	8	0.013328	60	10	60-180	60	163	GapPrac	1	12	2	1	1	target	1	827	587	30259	13.328	13.149	13.506
ProbeTrackDT01	19	ProbeTrack	10.4	SCS215a	20100708.130354	20100708.130528	8	0.013328	60	10	60-180	60	120	GapPrac	1	13	2	4	1	target	1	907	547	30806	13.328	13.293	13.363
ProbeTrackDT01	19	ProbeTrack	10.4	SCS215a	20100708.130354	20100708.130534	8	0.013328	60	10	60-180	60	95	GapPrac	1	14	2	0	0	target	0	1120	-1000	29806	13.328	13.293	13.363
ProbeTrackDT01	19	ProbeTrack	10.4	SCS215a	20100708.130354	20100708.130540	8	0.013328	60	10	60-180	60	74	GapPrac	1	15	2	4	0	target	0	1093	-1000	28806	13.328	13.293	13.363
ProbeTrackDT01	19	ProbeTrack	10.4	SCS215a	20100708.130354	20100708.130545	8	0.013328	60	10	60-180	60	99	GapPrac	1	16	2	75	1	target	1	653	674	29480	13.328	13.293	13.374
ProbeTrackDT01	19	ProbeTrack	10.4	SCS215a	20100708.130354	20100708.130551	8	0.013328	60	10	60-180	60	106	GapPrac	1	17	2	75	0	distractor	1	640	680	30160	13.328	13.221	13.434
ProbeTrackDT01	19	ProbeTrack	10.4	SCS215a	20100708.130354	20100708.130558	8	0.013328	60	10	60-180	60	165	GapPrac	1	18	2	2	1	13	-3	8650	-1000	29160	13.328	13.293	13.366
ProbeTrackDT01	19	ProbeTrack	10.4	SCS215a	20100708.130354	20100708.130612	8	0.013328	60	10	60-180	60	118	GapPrac	1	19	2	75	1	target	1	534	733	29893	13.328	13.085	13.571
ProbeTrackDT01	19	ProbeTrack	10.4	SCS215a	20100708.130354	20100708.130619	8	0.013328	60	10	60-180	60	156	GapPrac	1	20	2	0	0	distractor	1	600	700	30593	13.328	13.290	13.366
ProbeTrackDT01	19	ProbeTrack	10.4	SCS215a	20100708.130728	20100708.130741	8	0.013328	60	10	60-180	60	145	GapExp	1	1	2	0	1	target	1	427	787	31380	13.328	13.049	13.607
ProbeTrackDT01	19	ProbeTrack	10.4	SCS215a	20100708.130728	20100708.130746	8	0.013328	60	10	60-180	60	138	GapExp	1	2	2	0	0	target	0	560	-1000	30380	13.328	13.162	13.493
ProbeTrackDT01	19	ProbeTrack	10.4	SCS215a	20100708.130728	20100708.130752	8	0.013328	60	10	60-180	60	177	GapExp	1	3	2	4	0	target	0	1106	-1000	29380	13.328	13.293	13.363
ProbeTrackDT01	19	ProbeTrack	10.4	SCS215a	20100708.130728	20100708.130759	8	0.013328	60	10	60-180	60	121	GapExp	1	4	2	2	0	target	0	853	-1000	28380	13.328	13.236	13.421
ProbeTrackDT01	19	ProbeTrack	10.4	SCS215a	20100708.130728	20100708.130805	8	0.013328	60	10	60-180	60	180	GapExp	1	5	2	75	0	target	0	1640	-1000	27380	13.328	13.244	13.411
ProbeTrackDT01	19	ProbeTrack	10.4	SCS215a	20100708.130728	20100708.130813	8	0.013328	60	10	60-180	60	171	GapExp	1	6	2	1	0	distractor	1	667	667	28047	13.328	13.293	13.363
ProbeTrackDT01	19	ProbeTrack	10.4	SCS215a	20100708.130728	20100708.130820	8	0.013328	60	10	60-180	60	99	GapExp	1	7	2	4	1	target	1	947	527	28574	13.328	13.031	13.579
ProbeTrackDT01	19	ProbeTrack	10.4	SCS215a	20100708.130728	20100708.130826	8	0.013328	60	10	60-180	60	171	GapExp	1	8	2	1	1	target	1	427	787	29361	13.328	13.293	13.364
ProbeTrackDT01	19	ProbeTrack	10.4	SCS215a	20100708.130728	20100708.130832	8	0.013328	60	10	60-180	60	116	GapExp	1	9	2	75	1	target	1	494	753	30114	13.328	12.959	13.664
ProbeTrackDT01	19	ProbeTrack	10.4	SCS215a	20100708.130728	20100708.130838	8	0.013328	60	10	60-180	60	86	GapExp	1	10	2	2	1	target	1	1240	380	30494	13.328	13.290	13.362
ProbeTrackDT01	19	ProbeTrack	10.4	SCS215a	20100708.130728	20100708.130844	8	0.013328	60	10	60-180	60	85	GapExp	0	11	2	75	0	distractor	1	600	700	31194	13.328	13.259	13.398
ProbeTrackDT01	19	ProbeTrack	10.4	SCS215a	20100708.130728	20100708.130850	8	0.013328	60	10	60-180	60	156	GapExp	0	12	2	75	1	target	1	1053	474	31668	13.328	13.290	13.365
ProbeTrackDT01	19	ProbeTrack	10.4	SCS215a	20100708.130728	20100708.130858	8	0.013328	60	10	60-180	60	121	GapExp	0	13	2	0	0	target	0	1226	-1000	30668	13.328	13.293	13.363
ProbeTrackDT01	19	ProbeTrack	10.4	SCS215a	20100708.130728	20100708.130904	8	0.013328	60	10	60-180	60	79	GapExp	0	14	2	1	0	target	0	520	-1000	29668	13.328	13.219	13.404
ProbeTrackDT01	19	ProbeTrack	10.4	SCS215a	20100708.130728	20100708.130909	8	0.013328	60	10	60-180	60	75	GapExp	0	15	2	2	1	target	1	387	807	30475	13.328	13.293	13.363
ProbeTrackDT01	19	ProbeTrack	10.4	SCS215a	20100708.130728	20100708.130914	8	0.013328	60	10	60-180	60	141	GapExp	0	16	2	75	1	13	-3	12062	-1000	29475	13.328	13.293	13.363
ProbeTrackDT01	19	ProbeTrack	10.4	SCS215a	20100708.130728	20100708.130932	8	0.013328	60	10	60-180	60	71	GapExp	0	17	2	75	0	target	0	1373	-1000	28475	13.328	13.139	13.534
ProbeTrackDT01	19	ProbeTrack	10.4	SCS215a	20100708.130728	20100708.130939	8	0.013328	60	10	60-180	60	74	GapExp	0	18	2	1	1	target	1	4532	0	28475	13.328	13.293	13.363
ProbeTrackDT01	19	ProbeTrack	10.4	SCS215a	20100708.130728	20100708.130948	8	0.013328	60	10	60-180	60	108	GapExp	0	19	2	1	1	target	1	2066	0	28475	13.328	13.221	13.435
ProbeTrackDT01	19	ProbeTrack	10.4	SCS215a	20100708.130728	20100708.130955	8	0.013328	60	10	60-180	60	66	GapExp	0	20	2	1	1	target	1	3599	0	28475	13.328	13.293	13.364
ProbeTrackDT01	19	ProbeTrack	10.4	SCS215a	20100708.130728	20100708.131002	8	0.013328	60	10	60-180	60	108	GapExp	0	21	2	0	0	target	0	693	-1000	27475	13.328	13.198	13.458
ProbeTrackDT01	19	ProbeTrack	10.4	SCS215a	20100708.130728	20100708.131008	8	0.013328	60	10	60-180	60	144	GapExp	0	22	2	4	1	target	1	881	560	28035	13.328	13.053	13.602
ProbeTrackDT01	19	ProbeTrack	10.4	SCS215a	20100708.130728	20100708.131014	8	0.013328	60	10	60-180	60	99	GapExp	0	23	2	1	0	distractor	1	613	694	28729	13.328	13.289	13.400
ProbeTrackDT01	19	ProbeTrack	10.4	SCS215a	20100708.130728	20100708.131020	8	0.013328	60	10	60-180	60	61	GapExp	0	24	2	2	0	target	0	867	-1000	27729	13.328	13.169	13.488
ProbeTrackDT01	19	ProbeTrack	10.4	SCS215a	20100708.130728	20100708.131025	8	0.013328	60	10	60-180	60	116	GapExp	0	25	2	2	0	target	0	600	-1000	26729	13.328	13.220	13.435
ProbeTrackDT01	19	ProbeTrack	10.4	SCS215a	20100708.130728	20100708.131030	8	0.013328	60	10	60-180	60	112	GapExp	0	26	2	75	1	target	1	1027	487	27216	13.328	13.172	13.452
ProbeTrackDT01	19	ProbeTrack	10.4	SCS215a	20100708.130728	20100708.131037	8	0.013328	60	10	60-180	60	172	GapExp	0	27	2	1	1	target	1	2519	0	27216	13.328	13.287	13.368
ProbeTrackDT01	19	ProbeTrack	10.4	SCS215a	20100708.130728	20100708.131045	8	0.013328	60	10	60-180	60	159	GapExp	0	28	2	0	1	target	1	6144	0	27216	13.328	13.265	13.390
ProbeTrackDT01	19	ProbeTrack	10.4	SCS215a	20100708.130728	20100708.131057	8	0.013328	60	10	60-180	60	95	GapExp	0	29	2	4	1	target	1	1706	147	27363	13.328	13.042	13.581
ProbeTrackDT01	19	ProbeTrack	10.4	SCS215a	20100708.130728	20100708.131103	8	0.013328	60	10	60-180	60	125	GapExp	0	30	2	75	1	target	1	853	574	27937	13.328	13.275	13.381
ProbeTrackDT01	19	ProbeTrack	10.4	SCS215a	20100708.130728	20100708.131110	8	0.013328	60	10	60-180	60	155	GapExp	0	31	2	0	0	target	0	1093	-1000	26937	13.328	13.077	13.583
ProbeTrackDT01	19	ProbeTrack	10.4	SCS215a	20100708.130728	20100708.131117	8	0.013328	60	10	60-180	60	171	GapExp	0	32	2	1	0	target	0	2079	-1000	25937	13.328	13.246	13.410
ProbeTrackDT01	19	ProbeTrack	10.4	SCS215a	20100708.130728	20100708.131125	8	0.013328	60	10	60-180	60	126	GapExp	0	33	2	1	0	target	0	880	-1000	24937	13.328	13.268	13.386
ProbeTrackDT01	19	ProbeTrack	10.4	SCS215a	20100708.130728	20100708.131131	8	0.013328	60	10	60-180	60	129	GapExp	0	34	2	1	1	target	1	1053	474	25411	13.328	13.293	13.368
ProbeTrackDT01	19	ProbeTrack	10.4	SCS215a	20100708.130728	20100708.131137	8	0.013328	60	10	60-180	60	147	GapExp	0	35	2	0	1	target	1	5571	0	25411	13.328	12.998	13.691
ProbeTrackDT01	19	ProbeTrack	10.4	SCS215a	20100708.130728	20100708.131148	8	0.013328	60	10	60-180	60	162	GapExp	0	36	2	75	0	target	0	720	-1000	24411	13.328	13.138	13.550
ProbeTrackDT01	19	ProbeTrack	10.4	SCS215a	20100708.130728	20100708.131155	8	0.013328	60	10	60-180	60	124	GapExp	0	37	2	75	0	distractor	1	640	680	25091	13.328	13.176	13.481
ProbeTrackDT01	19	ProbeTrack	10.4	SCS215a	20100708.130728	20100708.131202	8	0.013328	60	10	60-180	60	171	GapExp	0	38	2	2	0	target	0	480	-1000	24091	13.328	13.084	13.571
ProbeTrackDT01	19	ProbeTrack	10.4	SCS215a	20100708.130728	20100708.131208	8	0.013328	60	10	60-180	60	146	GapExp	0	39	2	1	1	target	1	400	800	24891	13.328	13.181	13.475
ProbeTrackDT01	19	ProbeTrack	10.4	SCS215a	20100708.130728	20100708.131214	8	0.013328	60	10	60-180	60	142	GapExp	0	40	2	0	1	target	1	454	773	25664	13.328	13.248	13.374
ProbeTrackDT01	19	ProbeTrack	10.4	SCS215a	20100708.130728	20100708.131219	8	0.013328	60	10	60-180	60	173	GapExp	0	41	2	0	0	target	0	1600	-1000	24664	13.328	13.258	13.397
ProbeTrackDT01	19	ProbeTrack	10.4	SCS215a	20100708.130728	20100708.131227	8	0.013328	60	10	60-180	60	73	GapExp	0	42	2	4	1	distractor	0	1000	-1000	23664	13.328	13.293	13.363
ProbeTrackDT01	19	ProbeTrack	10.4	SCS215a	20100708.130728	20100708.131232	8	0.013328	60	10	60-180	60	141	GapExp	0	43	2	2	1	target	1	653	674	24338	13.328	13.245	13.377
ProbeTrackDT01	19	ProbeTrack	10.4	SCS215a	20100708.130728	20100708.131238	8	0.013328	60	10	60-180	60	141	GapExp	0	44	2	4	1	target	1	587	707	25045	13.328	13.097	13.559
ProbeTrackDT01	19	ProbeTrack	10.4	SCS215a	20100708.130728	20100708.131244	8	0.013328	60	10	60-180	60	162	GapExp	0	45	2	2	0	target	0	1173	-1000	24045	13.328	13.125	13.530
ProbeTrackDT01	19	ProbeTrack	10.4	SCS215a	20100708.130728	20100708.131251	8	0.013328	60	10	60-180	60	147	GapExp	0	46	2	2	1	target	1	414	793	24838	13.328	13.195	13.427
ProbeTrackDT01	19	ProbeTrack	10.4	SCS215a	20100708.130728	20100708.131257	8	0.013328	60	10	60-180	60	75	GapExp	0	47	2	1	0	target	0	773	-1000	23838	13.328	13.293	13.363
ProbeTrackDT01	19	ProbeTrack	10.4	SCS215a	20100708.130728	20100708.131302	8	0.013328	60	10	60-180	60	91	GapExp	0	48	2	75	0	distractor	1	600	700	24538	13.328	13.240	13.416
ProbeTrackDT01	19	ProbeTrack	10.4	SCS215a	20100708.130728	20100708.131308	8	0.013328	60	10	60-180	60	130	GapExp	0	49	2	1	0	target	0	707	-1000	23538	13.328	13.204	13.485
ProbeTrackDT01	19	ProbeTrack	10.4	SCS215a	20100708.130728	20100708.131314	8	0.013328	60	10	60-180	60	145	GapExp	0	50	2	4	1	target	1	574	713	24251	13.328	13.293	13.363
ProbeTrackDT01	19	ProbeTrack	10.4	SCS215a	20100708.130728	20100708.131331	8	0.013328	60	10	60-180	60	100	GapExp	0	51	2	75	1	target	1	1173	414	24665	13.328	13.060	13.595
ProbeTrackDT01	19	ProbeTrack	10.4	SCS215a	20100708.130728	20100708.131338	8	0.013328	60	10	60-180	60	149	GapExp	0	52	2	75	0	target	0	1653	-1000	23665	13.328	13.287	13.402
ProbeTrackDT01	19	ProbeTrack	10.4	SCS215a	20100708.130728	20100708.131346	8	0.013328	60	10	60-180	60	105	GapExp	0	53	2	1	0	target	0	6331	-1000	22665	13.328	13.096	13.593
ProbeTrackDT01	19	ProbeTrack	10.4	SCS215a	20100708.130728	20100708.131357	8	0.013328	60	10	60-180	60	132	GapExp	0	54	2	0	1	target	1	1053	474	23139	13.328	13.289	13.363
ProbeTrackDT01	19	ProbeTrack	10.4	SCS215a	20100708.130728	20100708.131403	8	0.013328	60	10	60-180	60	122	GapExp	0	55	2	0	0	target	0	1067	-1000	22139	13.328	13.200	13.456
ProbeTrackDT01	19	ProbeTrack	10.4	SCS215a	20100708.130728	20100708.131409	8	0.013328	60	10	60-180	60	103	GapExp	0	56	2	4	1	target	1	480	760	22899	13.328	13.126	13.496
ProbeTrackDT01	19	ProbeTrack	10.4	SCS215a	20100708.130728	20100708.131414	8	0.013328	60	10	60-180	60	141	GapExp	0	57	2	75	0	target	0	1013	-1000	21899	13.328	13.293	13.363
ProbeTrackDT01	19	ProbeTrack	10.4	SCS215a	20100708.130728	20100708.131422	8	0.013328	60	10	60-180	60	156	GapExp	0	58	2	0	1	target	1	867	567	22466	13.328	13.292	13.363
ProbeTrackDT01	19	ProbeTrack	10.4	SCS215a	20100708.130728	20100708.131428	8	0.013328	60	10	60-180	60	88	GapExp	0	59	2	0	1	target	1	1280	360	22826	13.328	13.293	13.363
ProbeTrackDT01	19	ProbeTrack	10.4	SCS215a	20100708.130728	20100708.131434	8	0.013328	60	10	60-180	60	102	GapExp	0	60	2	75	0	target	0	653	-1000	21826	13.328	13.282	13.374
ProbeTrackDT01	19	ProbeTrack	10.4	SCS215a	20100708.130728	20100708.131440	8	0.013328	60	10	60-180	60	149	GapExp	0	61	2	75	1	target	1	507	747	22573	13.328	13.278	13.411
ProbeTrackDT01	19	ProbeTrack	10.4	SCS215a	20100708.130728	20100708.131447	8	0.013328	60	10	60-180	60	132	GapExp	0	62	2	2	1	target	1	467	767	23340	13.328	13.290	13.366
ProbeTrackDT01	19	ProbeTrack	10.4	SCS215a	20100708.130728	20100708.131453	8	0.013328	60	10	60-180	60	116	GapExp	0	63	2	4	1	target	1	560	720	24060	13.328	13.293	13.363
ProbeTrackDT01	19	ProbeTrack	10.4	SCS215a	20100708.130728	20100708.131458	8	0.013328	60	10	60-180	60	138	GapExp	0	64	2	0	1	target	1	1173	414	24474	13.328	13.293	13.362
ProbeTrackDT01	19	ProbeTrack	10.4	SCS215a	20100708.130728	20100708.131505	8	0.013328	60	10	60-180	60	95	GapExp	0	65	2	75	0	target	0	2799	-1000	23474	13.328	13.293	13.363
ProbeTrackDT01	19	ProbeTrack	10.4	SCS215a	20100708.130728	20100708.131513	8	0.013328	60	10	60-180	60	141	GapExp	0	66	2	4	0	distractor	1	1773	114	23588	13.328	13.293	13.366
ProbeTrackDT01	19	ProbeTrack	10.4	SCS215a	20100708.130728	20100708.131520	8	0.013328	60	10	60-180	60	142	GapExp	0	67	2	4	0	target	0	9316	-1000	22588	13.328	13.293	13.363
ProbeTrackDT01	19	ProbeTrack	10.4	SCS215a	20100708.130728	20100708.131535	8	0.013328	60	10	60-180	60	154	GapExp	0	68	2	75	1	distractor	0	2879	-1000	21588	13.328	13.293	13.363
ProbeTrackDT01	19	ProbeTrack	10.4	SCS215a	20100708.130728	20100708.131544	8	0.013328	60	10	60-180	60	173	GapExp	0	69	2	0	0	target	0	1306	-1000	20588	13.328	13.220	13.403
ProbeTrackDT01	19	ProbeTrack	10.4	SCS215a	20100708.130728	20100708.131552	8	0.013328	60	10	60-180	60	107	GapExp	0	70	2	75	1	target	1	480	760	21348	13.328	12.970	13.687
ProbeTrackDT01	19	ProbeTrack	10.4	SCS215a	20100708.130728	20100708.131558	8	0.013328	60	10	60-180	60	137	GapExp	0	71	2	0	1	target	1	480	760	22108	13.328	13.293	13.363
ProbeTrackDT01	19	ProbeTrack	10.4	SCS215a	20100708.130728	20100708.131604	8	0.013328	60	10	60-180	60	86	GapExp	0	72	2	75	0	target	0	627	-1000	21108	13.328	13.293	13.364
ProbeTrackDT01	19	ProbeTrack	10.4	SCS215a	20100708.130728	20100708.131610	8	0.013328	60	10	60-180	60	124	GapExp	0	73	2	0	1	target	1	1946	27	21135	13.328	13.292	13.366
ProbeTrackDT01	19	ProbeTrack	10.4	SCS215a	20100708.130728	20100708.131617	8	0.013328	60	10	60-180	60	83	GapExp	0	74	2	0	1	target	1	1853	74	21209	13.328	13.293	13.363
ProbeTrackDT01	19	ProbeTrack	10.4	SCS215a	20100708.130728	20100708.131623	8	0.013328	60	10	60-180	60	61	GapExp	0	75	2	75	0	distractor	1	773	614	21823	13.328	13.292	13.363
ProbeTrackDT01	19	ProbeTrack	10.4	SCS215a	20100708.130728	20100708.131629	8	0.013328	60	10	60-180	60	106	GapExp	0	76	2	1	0	target	0	667	-1000	20823	13.328	13.293	13.363
ProbeTrackDT01	19	ProbeTrack	10.4	SCS215a	20100708.130728	20100708.131634	8	0.013328	60	10	60-180	60	99	GapExp	0	77	2	0	0	target	0	3999	-1000	19823	13.328	13.061	13.595
ProbeTrackDT01	19	ProbeTrack	10.4	SCS215a	20100708.130728	20100708.131643	8	0.013328	60	10	60-180	60	65	GapExp	0	78	2	1	1	target	1	1067	467	20290	13.328	12.957	13.699
ProbeTrackDT01	19	ProbeTrack	10.4	SCS215a	20100708.130728	20100708.131649	8	0.013328	60	10	60-180	60	154	GapExp	0	79	2	75	1	target	1	720	640	20930	13.328	13.293	13.363
ProbeTrackDT01	19	ProbeTrack	10.4	SCS215a	20100708.130728	20100708.131656	8	0.013328	60	10	60-180	60	67	GapExp	0	80	2	2	1	target	1	440	780	21710	13.328	13.293	13.363
ProbeTrackDT01	19	ProbeTrack	10.4	SCS215a	20100708.130728	20100708.131701	8	0.013328	60	10	60-180	60	92	GapExp	0	81	2	1	1	target	1	747	627	22337	13.328	13.293	13.363
ProbeTrackDT01	19	ProbeTrack	10.4	SCS215a	20100708.130728	20100708.131706	8	0.013328	60	10	60-180	60	147	GapExp	0	82	2	4	1	target	1	2679	0	22337	13.328	13.293	13.365
ProbeTrackDT01	19	ProbeTrack	10.4	SCS215a	20100708.130728	20100708.131714	8	0.013328	60	10	60-180	60	74	GapExp	0	83	2	2	1	target	1	1386	307	22644	13.328	13.293	13.363
ProbeTrackDT01	19	ProbeTrack	10.4	SCS215a	20100708.130728	20100708.131720	8	0.013328	60	10	60-180	60	82	GapExp	0	84	2	1	0	target	0	2679	-1000	21644	13.328	13.293	13.363
ProbeTrackDT01	19	ProbeTrack	10.4	SCS215a	20100708.130728	20100708.131727	8	0.013328	60	10	60-180	60	69	GapExp	0	85	2	2	0	distractor	1	1626	187	21831	13.328	13.293	13.364
ProbeTrackDT01	19	ProbeTrack	10.4	SCS215a	20100708.130728	20100708.131733	8	0.013328	60	10	60-180	60	87	GapExp	0	86	2	2	1	target	1	1986	7	21838	13.328	13.293	13.363
ProbeTrackDT01	19	ProbeTrack	10.4	SCS215a	20100708.130728	20100708.131740	8	0.013328	60	10	60-180	60	128	GapExp	0	87	2	4	1	target	1	787	607	22445	13.328	13.293	13.363
ProbeTrackDT01	19	ProbeTrack	10.4	SCS215a	20100708.130728	20100708.131746	8	0.013328	60	10	60-180	60	171	GapExp	0	88	2	75	0	target	0	2639	-1000	21445	13.328	13.293	13.363
ProbeTrackDT01	19	ProbeTrack	10.4	SCS215a	20100708.130728	20100708.131755	8	0.013328	60	10	60-180	60	101	GapExp	0	89	2	4	1	target	1	7024	0	21445	13.328	13.293	13.364
ProbeTrackDT01	19	ProbeTrack	10.4	SCS215a	20100708.130728	20100708.131807	8	0.013328	60	10	60-180	60	69	GapExp	0	90	2	0	0	target	0	11022	-1000	20445	13.328	13.293	13.363
ProbeTrackDT01	19	ProbeTrack	10.4	SCS215a	20100708.130728	20100708.131822	8	0.013328	60	10	60-180	60	168	GapExp	0	91	2	4	0	target	0	1280	-1000	19445	13.328	13.292	13.363
ProbeTrackDT01	19	ProbeTrack	10.4	SCS215a	20100708.130728	20100708.131829	8	0.013328	60	10	60-180	60	129	GapExp	0	92	2	2	0	target	0	2013	-1000	18445	13.328	13.293	13.363
ProbeTrackDT01	19	ProbeTrack	10.4	SCS215a	20100708.130728	20100708.131836	8	0.013328	60	10	60-180	60	73	GapExp	0	93	2	4	0	distractor	1	800	600	19045	13.328	13.293	13.364
ProbeTrackDT01	19	ProbeTrack	10.4	SCS215a	20100708.130728	20100708.131841	8	0.013328	60	10	60-180	60	155	GapExp	0	94	2	1	1	target	1	5078	0	19045	13.328	13.293	13.363
ProbeTrackDT01	19	ProbeTrack	10.4	SCS215a	20100708.130728	20100708.131852	8	0.013328	60	10	60-180	60	118	GapExp	0	95	2	0	0	target	0	1200	-1000	18045	13.328	13.293	13.363
ProbeTrackDT01	19	ProbeTrack	10.4	SCS215a	20100708.130728	20100708.131858	8	0.013328	60	10	60-180	60	97	GapExp	0	96	2	2	0	target	0	933	-1000	17045	13.328	13.290	13.363
ProbeTrackDT01	19	ProbeTrack	10.4	SCS215a	20100708.130728	20100708.131904	8	0.013328	60	10	60-180	60	86	GapExp	0	97	2	75	1	target	1	520	740	17785	13.328	13.291	13.364
ProbeTrackDT01	19	ProbeTrack	10.4	SCS215a	20100708.130728	20100708.131910	8	0.013328	60	10	60-180	60	176	GapExp	0	98	2	2	1	target	1	520	740	18525	13.328	13.204	13.450
ProbeTrackDT01	19	ProbeTrack	10.4	SCS215a	20100708.130728	20100708.131916	8	0.013328	60	10	60-180	60	174	GapExp	0	99	2	0	0	target	0	587	-1000	17525	13.328	13.293	13.363
ProbeTrackDT01	19	ProbeTrack	10.4	SCS215a	20100708.130728	20100708.131922	8	0.013328	60	10	60-180	60	152	GapExp	0	100	2	1	0	target	0	867	-1000	16525	13.328	13.097	13.558
ProbeTrackDT01	19	ProbeTrack	10.4	SCS215a	20100708.130728	20100708.131953	8	0.013328	60	10	60-180	60	154	GapExp	0	101	2	2	1	target	1	1626	187	16712	13.328	13.293	13.363
ProbeTrackDT01	19	ProbeTrack	10.4	SCS215a	20100708.130728	20100708.132000	8	0.013328	60	10	60-180	60	95	GapExp	0	102	2	0	0	distractor	1	853	574	17286	13.328	13.293	13.363
ProbeTrackDT01	19	ProbeTrack	10.4	SCS215a	20100708.130728	20100708.132006	8	0.013328	60	10	60-180	60	141	GapExp	0	103	2	2	0	target	0	2239	-1000	16286	13.328	13.293	13.363
ProbeTrackDT01	19	ProbeTrack	10.4	SCS215a	20100708.130728	20100708.132014	8	0.013328	60	10	60-180	60	120	GapExp	0	104	2	0	0	target	0	1720	-1000	15286	13.328	13.293	13.363
ProbeTrackDT01	19	ProbeTrack	10.4	SCS215a	20100708.130728	20100708.132020	8	0.013328	60	10	60-180	60	148	GapExp	0	105	2	0	0	target	0	560	-1000	14286	13.328	13.293	13.363
ProbeTrackDT01	19	ProbeTrack	10.4	SCS215a	20100708.130728	20100708.132026	8	0.013328	60	10	60-180	60	110	GapExp	0	106	2	1	1	target	1	1133	434	14720	13.328	13.293	13.363
ProbeTrackDT01	19	ProbeTrack	10.4	SCS215a	20100708.130728	20100708.132032	8	0.013328	60	10	60-180	60	129	GapExp	0	107	2	0	1	target	1	4452	0	14720	13.328	13.293	13.363
ProbeTrackDT01	19	ProbeTrack	10.4	SCS215a	20100708.130728	20100708.132042	8	0.013328	60	10	60-180	60	99	GapExp	0	108	2	1	0	target	0	2319	-1000	13720	13.328	13.268	13.388
ProbeTrackDT01	19	ProbeTrack	10.4	SCS215a	20100708.130728	20100708.132049	8	0.013328	60	10	60-180	60	122	GapExp	0	109	2	1	1	target	1	1600	200	13920	13.328	13.266	13.424
ProbeTrackDT01	19	ProbeTrack	10.4	SCS215a	20100708.130728	20100708.132056	8	0.013328	60	10	60-180	60	74	GapExp	0	110	2	4	0	distractor	1	2186	0	13920	13.328	13.267	13.366
ProbeTrackDT01	19	ProbeTrack	10.4	SCS215a	20100708.130728	20100708.132102	8	0.013328	60	10	60-180	60	135	GapExp	0	111	2	1	0	target	0	747	-1000	12920	13.328	13.293	13.363
ProbeTrackDT01	19	ProbeTrack	10.4	SCS215a	20100708.130728	20100708.132108	8	0.013328	60	10	60-180	60	99	GapExp	0	112	2	0	1	target	1	1413	294	13214	13.328	13.293	13.363
ProbeTrackDT01	19	ProbeTrack	10.4	SCS215a	20100708.130728	20100708.132114	8	0.013328	60	10	60-180	60	145	GapExp	0	113	2	75	1	target	1	600	700	13914	13.328	13.292	13.363
ProbeTrackDT01	19	ProbeTrack	10.4	SCS215a	20100708.130728	20100708.132121	8	0.013328	60	10	60-180	60	103	GapExp	0	114	2	2	1	target	1	1200	400	14314	13.328	13.290	13.363
ProbeTrackDT01	19	ProbeTrack	10.4	SCS215a	20100708.130728	20100708.132127	8	0.013328	60	10	60-180	60	68	GapExp	0	115	2	75	1	target	1	440	780	15094	13.328	13.293	13.363
ProbeTrackDT01	19	ProbeTrack	10.4	SCS215a	20100708.130728	20100708.132133	8	0.013328	60	10	60-180	60	109	GapExp	0	116	2	4	0	target	0	4185	-1000	14094	13.328	13.203	13.452
ProbeTrackDT01	19	ProbeTrack	10.4	SCS215a	20100708.130728	20100708.132142	8	0.013328	60	10	60-180	60	112	GapExp	0	117	2	75	0	distractor	1	787	607	14701	13.328	13.293	13.363
ProbeTrackDT01	19	ProbeTrack	10.4	SCS215a	20100708.130728	20100708.132149	8	0.013328	60	10	60-180	60	70	GapExp	0	118	2	4	0	target	0	827	-1000	13701	13.328	13.293	13.363
ProbeTrackDT01	19	ProbeTrack	10.4	SCS215a	20100708.130728	20100708.132154	8	0.013328	60	10	60-180	60	160	GapExp	0	119	2	2	0	target	0	813	-1000	12701	13.328	13.293	13.363
ProbeTrackDT01	19	ProbeTrack	10.4	SCS215a	20100708.130728	20100708.132200	8	0.013328	60	10	60-180	60	164	GapExp	0	120	2	0	1	target	1	947	527	13228	13.328	13.293	13.363
ProbeTrackDT01	19	ProbeTrack	10.4	SCS215a	20100708.130728	20100708.132207	8	0.013328	60	10	60-180	60	138	GapExp	0	121	2	2	1	target	1	933	534	13762	13.328	13.293	13.363
ProbeTrackDT01	19	ProbeTrack	10.4	SCS215a	20100708.130728	20100708.132213	8	0.013328	60	10	60-180	60	121	GapExp	0	122	2	1	1	target	1	4612	0	13762	13.328	13.293	13.363
ProbeTrackDT01	19	ProbeTrack	10.4	SCS215a	20100708.130728	20100708.132223	8	0.013328	60	10	60-180	60	62	GapExp	0	123	2	2	1	target	1	494	753	14515	13.328	13.293	13.363
ProbeTrackDT01	19	ProbeTrack	10.4	SCS215a	20100708.130728	20100708.132227	8	0.013328	60	10	60-180	60	127	GapExp	0	124	2	4	0	target	0	947	-1000	13515	13.328	13.293	13.363
ProbeTrackDT01	19	ProbeTrack	10.4	SCS215a	20100708.130728	20100708.132234	8	0.013328	60	10	60-180	60	176	GapExp	0	125	2	75	0	distractor	1	8357	0	13515	13.328	13.291	13.363
ProbeTrackDT01	19	ProbeTrack	10.4	SCS215a	20100708.130728	20100708.132249	8	0.013328	60	10	60-180	60	90	GapExp	0	126	2	4	1	target	1	867	567	14082	13.328	13.100	13.555
ProbeTrackDT01	19	ProbeTrack	10.4	SCS215a	20100708.130728	20100708.132254	8	0.013328	60	10	60-180	60	160	GapExp	0	127	2	75	1	target	1	427	787	14869	13.328	13.250	13.372
ProbeTrackDT01	19	ProbeTrack	10.4	SCS215a	20100708.130728	20100708.132301	8	0.013328	60	10	60-180	60	111	GapExp	0	128	2	75	1	target	1	10756	0	14869	13.328	13.007	13.649
ProbeTrackDT01	19	ProbeTrack	10.4	SCS215a	20100708.130728	20100708.132318	8	0.013328	60	10	60-180	60	124	GapExp	0	129	2	0	0	target	0	1506	-1000	13869	13.328	13.193	13.497
ProbeTrackDT01	19	ProbeTrack	10.4	SCS215a	20100708.130728	20100708.132324	8	0.013328	60	10	60-180	60	167	GapExp	0	130	2	1	0	target	0	534	-1000	12869	13.328	13.293	13.363
ProbeTrackDT01	19	ProbeTrack	10.4	SCS215a	20100708.130728	20100708.132331	8	0.013328	60	10	60-180	60	135	GapExp	0	131	2	75	0	83	-3	1067	-1000	11869	13.328	13.231	13.424
ProbeTrackDT01	19	ProbeTrack	10.4	SCS215a	20100708.130728	20100708.132338	8	0.013328	60	10	60-180	60	76	GapExp	0	132	2	4	0	multi	-2	8690	-1000	10869	13.328	13.293	13.363
ProbeTrackDT01	19	ProbeTrack	10.4	SCS215a	20100708.130728	20100708.132351	8	0.013328	60	10	60-180	60	171	GapExp	0	133	2	4	1	target	1	574	713	11582	13.328	13.150	13.471
ProbeTrackDT01	19	ProbeTrack	10.4	SCS215a	20100708.130728	20100708.132357	8	0.013328	60	10	60-180	60	141	GapExp	0	134	2	75	0	target	0	933	-1000	10582	13.328	13.188	13.502
ProbeTrackDT01	19	ProbeTrack	10.4	SCS215a	20100708.130728	20100708.132405	8	0.013328	60	10	60-180	60	129	GapExp	0	135	2	1	1	target	1	2453	0	10582	13.328	13.271	13.384
ProbeTrackDT01	19	ProbeTrack	10.4	SCS215a	20100708.130728	20100708.132412	8	0.013328	60	10	60-180	60	137	GapExp	0	136	2	4	1	target	1	507	747	11329	13.328	13.292	13.397
ProbeTrackDT01	19	ProbeTrack	10.4	SCS215a	20100708.130728	20100708.132418	8	0.013328	60	10	60-180	60	140	GapExp	0	137	2	2	1	target	1	760	620	11949	13.328	13.293	13.363
ProbeTrackDT01	19	ProbeTrack	10.4	SCS215a	20100708.130728	20100708.132424	8	0.013328	60	10	60-180	60	66	GapExp	0	138	2	75	1	target	1	587	707	12656	13.328	13.142	13.480
ProbeTrackDT01	19	ProbeTrack	10.4	SCS215a	20100708.130728	20100708.132430	8	0.013328	60	10	60-180	60	101	GapExp	0	139	2	0	0	target	0	840	-1000	11656	13.328	13.135	13.522
ProbeTrackDT01	19	ProbeTrack	10.4	SCS215a	20100708.130728	20100708.132436	8	0.013328	60	10	60-180	60	121	GapExp	0	140	2	1	1	target	1	1600	200	11856	13.328	13.292	13.363
ProbeTrackDT01	19	ProbeTrack	10.4	SCS215a	20100708.130728	20100708.132442	8	0.013328	60	10	60-180	60	73	GapExp	0	141	2	4	0	target	0	747	-1000	10856	13.328	13.267	13.422
ProbeTrackDT01	19	ProbeTrack	10.4	SCS215a	20100708.130728	20100708.132447	8	0.013328	60	10	60-180	60	85	GapExp	0	142	2	4	1	distractor	0	4225	-1000	9856	13.328	13.233	13.422
ProbeTrackDT01	19	ProbeTrack	10.4	SCS215a	20100708.130728	20100708.132456	8	0.013328	60	10	60-180	60	127	GapExp	0	143	2	0	0	target	0	1360	-1000	8856	13.328	13.125	13.564
ProbeTrackDT01	19	ProbeTrack	10.4	SCS215a	20100708.130728	20100708.132503	8	0.013328	60	10	60-180	60	139	GapExp	0	144	2	4	0	target	0	773	-1000	7856	13.328	13.102	13.589
ProbeTrackDT01	19	ProbeTrack	10.4	SCS215a	20100708.130728	20100708.132509	8	0.013328	60	10	60-180	60	108	GapExp	0	145	2	1	1	target	1	2839	0	7856	13.328	13.292	13.363
ProbeTrackDT01	19	ProbeTrack	10.4	SCS215a	20100708.130728	20100708.132516	8	0.013328	60	10	60-180	60	66	GapExp	0	146	2	4	0	target	0	1187	-1000	6856	13.328	13.072	13.584
ProbeTrackDT01	19	ProbeTrack	10.4	SCS215a	20100708.130728	20100708.132522	8	0.013328	60	10	60-180	60	96	GapExp	0	147	2	2	0	target	0	534	-1000	5856	13.328	13.293	13.363
ProbeTrackDT01	19	ProbeTrack	10.4	SCS215a	20100708.130728	20100708.132527	8	0.013328	60	10	60-180	60	62	GapExp	0	148	2	2	0	distractor	1	1080	460	6316	13.328	13.138	13.483
ProbeTrackDT01	19	ProbeTrack	10.4	SCS215a	20100708.130728	20100708.132533	8	0.013328	60	10	60-180	60	116	GapExp	0	149	2	1	0	distractor	1	2852	0	6316	13.328	13.173	13.483
ProbeTrackDT01	19	ProbeTrack	10.4	SCS215a	20100708.130728	20100708.132540	8	0.013328	60	10	60-180	60	100	GapExp	0	150	2	2	0	distractor	1	1506	247	6563	13.328	12.906	13.783
ProbeTrackDT01	19	ProbeTrack	10.4	SCS215a	20100708.130728	20100708.132632	8	0.013328	60	10	60-180	60	122	GapExp	0	151	2	1	1	target	1	600	700	7263	13.328	13.158	13.531
ProbeTrackDT01	19	ProbeTrack	10.4	SCS215a	20100708.130728	20100708.132638	8	0.013328	60	10	60-180	60	70	GapExp	0	152	2	75	1	distractor	0	600	-1000	6263	13.328	13.171	13.486
ProbeTrackDT01	19	ProbeTrack	10.4	SCS215a	20100708.130728	20100708.132644	8	0.013328	60	10	60-180	60	88	GapExp	0	153	2	2	0	target	0	813	-1000	5263	13.328	13.156	13.499
ProbeTrackDT01	19	ProbeTrack	10.4	SCS215a	20100708.130728	20100708.132649	8	0.013328	60	10	60-180	60	112	GapExp	0	154	2	0	1	target	1	787	607	5870	13.328	13.290	13.363
ProbeTrackDT01	19	ProbeTrack	10.4	SCS215a	20100708.130728	20100708.132655	8	0.013328	60	10	60-180	60	125	GapExp	0	155	2	2	0	target	0	760	-1000	4870	13.328	13.293	13.363
ProbeTrackDT01	19	ProbeTrack	10.4	SCS215a	20100708.130728	20100708.132701	8	0.013328	60	10	60-180	60	131	GapExp	0	156	2	4	0	target	0	1426	-1000	3870	13.328	13.154	13.501
ProbeTrackDT01	19	ProbeTrack	10.4	SCS215a	20100708.130728	20100708.132707	8	0.013328	60	10	60-180	60	73	GapExp	0	157	2	75	0	target	0	1187	-1000	2870	13.328	13.293	13.363
ProbeTrackDT01	19	ProbeTrack	10.4	SCS215a	20100708.130728	20100708.132714	8	0.013328	60	10	60-180	60	81	GapExp	0	158	2	75	1	target	1	653	674	3544	13.328	13.250	13.373
ProbeTrackDT01	19	ProbeTrack	10.4	SCS215a	20100708.130728	20100708.132720	8	0.013328	60	10	60-180	60	61	GapExp	0	159	2	4	1	target	1	547	727	4271	13.328	13.292	13.363
ProbeTrackDT01	19	ProbeTrack	10.4	SCS215a	20100708.130728	20100708.132725	8	0.013328	60	10	60-180	60	177	GapExp	0	160	2	4	1	target	1	1147	427	4698	13.328	13.196	13.459
ProbeTrackDT01	19	ProbeTrack	10.4	SCS215a	20100708.130728	20100708.132732	8	0.013328	60	10	60-180	60	112	GapExp	0	161	2	0	1	target	1	547	727	5425	13.328	13.140	13.481
ProbeTrackDT01	19	ProbeTrack	10.4	SCS215a	20100708.130728	20100708.132737	8	0.013328	60	10	60-180	60	161	GapExp	0	162	2	2	1	target	1	600	700	6125	13.328	13.293	13.363
ProbeTrackDT01	19	ProbeTrack	10.4	SCS215a	20100708.130728	20100708.132743	8	0.013328	60	10	60-180	60	131	GapExp	0	163	2	4	0	target	0	1453	-1000	5125	13.328	13.292	13.363
ProbeTrackDT01	19	ProbeTrack	10.4	SCS215a	20100708.130728	20100708.132750	8	0.013328	60	10	60-180	60	167	GapExp	0	164	2	2	1	target	1	1027	487	5612	13.328	13.289	13.364
ProbeTrackDT01	19	ProbeTrack	10.4	SCS215a	20100708.130728	20100708.132757	8	0.013328	60	10	60-180	60	178	GapExp	0	165	2	2	0	target	0	1053	-1000	4612	13.328	13.293	13.363
ProbeTrackDT01	19	ProbeTrack	10.4	SCS215a	20100708.130728	20100708.132804	8	0.013328	60	10	60-180	60	81	GapExp	0	166	2	2	1	target	1	680	660	5272	13.328	13.211	13.461
ProbeTrackDT01	19	ProbeTrack	10.4	SCS215a	20100708.130728	20100708.132809	8	0.013328	60	10	60-180	60	98	GapExp	0	167	2	75	0	distractor	1	2306	0	5272	13.328	13.278	13.377
ProbeTrackDT01	19	ProbeTrack	10.4	SCS215a	20100708.130728	20100708.132817	8	0.013328	60	10	60-180	60	173	GapExp	0	168	2	1	1	target	1	1000	500	5772	13.328	13.046	13.609
ProbeTrackDT01	19	ProbeTrack	10.4	SCS215a	20100708.130728	20100708.132824	8	0.013328	60	10	60-180	60	147	GapExp	0	169	2	75	1	target	1	507	747	6519	13.328	13.031	13.626
ProbeTrackDT01	19	ProbeTrack	10.4	SCS215a	20100708.130728	20100708.132830	8	0.013328	60	10	60-180	60	136	GapExp	0	170	2	0	1	target	1	1000	500	7019	13.375	13.293	13.578
ProbeTrackDT01	19	ProbeTrack	10.4	SCS215a	20100708.130728	20100708.132837	8	0.013328	60	10	60-180	60	139	GapExp	0	171	2	4	0	target	0	813	-1000	6019	13.328	13.264	13.390
ProbeTrackDT01	19	ProbeTrack	10.4	SCS215a	20100708.130728	20100708.132843	8	0.013328	60	10	60-180	60	165	GapExp	0	172	2	75	0	target	0	853	-1000	5019	13.328	13.116	13.541
ProbeTrackDT01	19	ProbeTrack	10.4	SCS215a	20100708.130728	20100708.132850	8	0.013328	60	10	60-180	60	63	GapExp	0	173	2	4	0	target	0	853	-1000	4019	13.328	13.141	13.482
ProbeTrackDT01	19	ProbeTrack	10.4	SCS215a	20100708.130728	20100708.132855	8	0.013328	60	10	60-180	60	77	GapExp	0	174	2	1	1	target	1	667	667	4686	13.328	13.144	13.477
ProbeTrackDT01	19	ProbeTrack	10.4	SCS215a	20100708.130728	20100708.132900	8	0.013328	60	10	60-180	60	168	GapExp	0	175	2	1	0	target	0	494	-1000	3686	13.328	13.292	13.363
ProbeTrackDT01	19	ProbeTrack	10.4	SCS215a	20100708.130728	20100708.132907	8	0.013328	60	10	60-180	60	70	GapExp	0	176	2	2	1	distractor	0	1600	-1000	2686	13.328	13.001	13.655
ProbeTrackDT01	19	ProbeTrack	10.4	SCS215a	20100708.130728	20100708.132913	8	0.013328	60	10	60-180	60	180	GapExp	0	177	2	4	0	target	0	1053	-1000	1686	13.328	13.293	13.363
ProbeTrackDT01	19	ProbeTrack	10.4	SCS215a	20100708.130728	20100708.132920	8	0.013328	60	10	60-180	60	103	GapExp	0	178	2	2	0	target	0	2266	-1000	686	13.328	13.293	13.363
ProbeTrackDT01	19	ProbeTrack	10.4	SCS215a	20100708.130728	20100708.132927	8	0.013328	60	10	60-180	60	152	GapExp	0	179	2	2	0	distractor	1	547	727	1413	13.328	13.182	13.473
ProbeTrackDT01	19	ProbeTrack	10.4	SCS215a	20100708.130728	20100708.132933	8	0.013328	60	10	60-180	60	65	GapExp	0	180	2	0	0	distractor	1	707	647	2060	13.328	13.064	13.591
ProbeTrackDT01	19	ProbeTrack	10.4	SCS215a	20100708.130728	20100708.132938	8	0.013328	60	10	60-180	60	159	GapExp	0	181	2	1	0	target	0	827	-1000	1060	13.328	13.188	13.470
ProbeTrackDT01	19	ProbeTrack	10.4	SCS215a	20100708.130728	20100708.132944	8	0.013328	60	10	60-180	60	132	GapExp	0	182	2	4	0	distractor	1	893	554	1614	13.328	13.292	13.363
ProbeTrackDT01	19	ProbeTrack	10.4	SCS215a	20100708.130728	20100708.132950	8	0.013328	60	10	60-180	60	153	GapExp	0	183	2	2	0	distractor	1	1000	500	2114	13.328	13.293	13.363
ProbeTrackDT01	19	ProbeTrack	10.4	SCS215a	20100708.130728	20100708.132957	8	0.013328	60	10	60-180	60	73	GapExp	0	184	2	2	0	target	0	5158	-1000	1114	13.328	13.075	13.581
ProbeTrackDT01	19	ProbeTrack	10.4	SCS215a	20100708.130728	20100708.133006	8	0.013328	60	10	60-180	60	160	GapExp	0	185	2	75	1	distractor	0	787	-1000	114	13.328	13.293	13.363
ProbeTrackDT01	19	ProbeTrack	10.4	SCS215a	20100708.130728	20100708.133013	8	0.013328	60	10	60-180	60	177	GapExp	0	186	2	2	1	distractor	0	760	-1000	-886	13.328	13.293	13.363
ProbeTrackDT01	19	ProbeTrack	10.4	SCS215a	20100708.130728	20100708.133020	8	0.013328	60	10	60-180	60	141	GapExp	0	187	2	4	0	target	0	1186	-1000	-1886	13.328	13.293	13.365
ProbeTrackDT01	19	ProbeTrack	10.4	SCS215a	20100708.130728	20100708.133027	8	0.013328	60	10	60-180	60	165	GapExp	0	188	2	0	1	target	1	1293	354	-1532	13.328	13.249	13.415
ProbeTrackDT01	19	ProbeTrack	10.4	SCS215a	20100708.130728	20100708.133033	8	0.013328	60	10	60-180	60	140	GapExp	0	189	2	1	0	target	0	667	-1000	-2532	13.328	13.176	13.513
ProbeTrackDT01	19	ProbeTrack	10.4	SCS215a	20100708.130728	20100708.133039	8	0.013328	60	10	60-180	60	65	GapExp	0	190	2	0	1	target	1	13341	0	-2532	13.328	13.054	13.569
ProbeTrackDT01	19	ProbeTrack	10.4	SCS215a	20100708.130728	20100708.133057	8	0.013328	60	10	60-180	60	131	GapExp	0	191	2	75	0	target	0	1373	-1000	-3532	13.328	13.293	13.363
ProbeTrackDT01	19	ProbeTrack	10.4	SCS215a	20100708.130728	20100708.133104	8	0.013328	60	10	60-180	60	123	GapExp	0	192	2	4	1	target	1	1120	440	-3092	13.328	13.286	13.363
ProbeTrackDT01	19	ProbeTrack	10.4	SCS215a	20100708.130728	20100708.133111	8	0.013328	60	10	60-180	60	83	GapExp	0	193	2	0	1	distractor	0	800	-1000	-4092	13.328	13.257	13.363
ProbeTrackDT01	19	ProbeTrack	10.4	SCS215a	20100708.130728	20100708.133116	8	0.013328	60	10	60-180	60	149	GapExp	0	194	2	1	0	target	0	467	-1000	-5092	13.328	13.293	13.364
ProbeTrackDT01	19	ProbeTrack	10.4	SCS215a	20100708.130728	20100708.133122	8	0.013328	60	10	60-180	60	169	GapExp	0	195	2	0	0	distractor	1	853	574	-4518	13.328	13.293	13.363
ProbeTrackDT01	19	ProbeTrack	10.4	SCS215a	20100708.130728	20100708.133128	8	0.013328	60	10	60-180	60	105	GapExp	0	196	2	2	1	target	1	1306	347	-4171	13.328	13.292	13.364
ProbeTrackDT01	19	ProbeTrack	10.4	SCS215a	20100708.130728	20100708.133135	8	0.013328	60	10	60-180	60	138	GapExp	0	197	2	2	0	distractor	1	1986	7	-4164	13.328	13.293	13.363
ProbeTrackDT01	19	ProbeTrack	10.4	SCS215a	20100708.130728	20100708.133142	8	0.013328	60	10	60-180	60	174	GapExp	0	198	2	0	0	target	0	840	-1000	-5164	13.328	13.190	13.466
ProbeTrackDT01	19	ProbeTrack	10.4	SCS215a	20100708.130728	20100708.133148	8	0.013328	60	10	60-180	60	149	GapExp	0	199	2	1	0	distractor	1	1746	127	-5037	13.328	13.290	13.363
ProbeTrackDT01	19	ProbeTrack	10.4	SCS215a	20100708.130728	20100708.133156	8	0.013328	60	10	60-180	60	167	GapExp	0	200	2	4	1	target	1	640	680	-4357	13.328	13.209	13.414
ProbeTrackDT01	19	ProbeTrack	10.4	SCS215a	20100708.130728	20100708.133216	8	0.013328	60	10	60-180	60	166	GapExp	0	201	2	0	1	target	1	534	733	-3624	13.328	13.093	13.595
ProbeTrackDT01	19	ProbeTrack	10.4	SCS215a	20100708.130728	20100708.133222	8	0.013328	60	10	60-180	60	103	GapExp	0	202	2	4	1	target	1	427	787	-2837	13.328	13.293	13.363
ProbeTrackDT01	19	ProbeTrack	10.4	SCS215a	20100708.130728	20100708.133228	8	0.013328	60	10	60-180	60	72	GapExp	0	203	2	1	0	target	0	534	-1000	-3837	13.328	13.293	13.363
ProbeTrackDT01	19	ProbeTrack	10.4	SCS215a	20100708.130728	20100708.133233	8	0.013328	60	10	60-180	60	172	GapExp	0	204	2	75	1	target	1	480	760	-3077	13.328	13.245	13.444
ProbeTrackDT01	19	ProbeTrack	10.4	SCS215a	20100708.130728	20100708.133240	8	0.013328	60	10	60-180	60	114	GapExp	0	205	2	4	1	target	1	1080	460	-2617	13.328	13.292	13.363
ProbeTrackDT01	19	ProbeTrack	10.4	SCS215a	20100708.130728	20100708.133246	8	0.013328	60	10	60-180	60	62	GapExp	0	206	2	1	1	target	1	520	740	-1877	13.328	13.292	13.363
ProbeTrackDT01	19	ProbeTrack	10.4	SCS215a	20100708.130728	20100708.133250	8	0.013328	60	10	60-180	60	174	GapExp	0	207	2	4	0	target	0	494	-1000	-2877	13.328	13.293	13.363
ProbeTrackDT01	19	ProbeTrack	10.4	SCS215a	20100708.130728	20100708.133257	8	0.013328	60	10	60-180	60	83	GapExp	0	208	2	0	0	distractor	1	587	707	-2170	13.328	13.293	13.363
ProbeTrackDT01	19	ProbeTrack	10.4	SCS215a	20100708.130728	20100708.133302	8	0.013328	60	10	60-180	60	134	GapExp	0	209	2	1	1	target	1	640	680	-1490	13.328	13.285	13.363
ProbeTrackDT01	19	ProbeTrack	10.4	SCS215a	20100708.130728	20100708.133308	8	0.013328	60	10	60-180	60	111	GapExp	0	210	2	2	1	target	1	1320	340	-1150	13.328	13.090	13.532
