exp	sub	code	rev	comp	runtime	trialtime	nstim	refreshdur	cuedur	gapdur	gapOnsetRange	durPostProbe	gapOnsetTime	blocktype	prac	trial	ntargets	soa	probeTarget	resp	acc	rt	pts	tpts	meanFrameDur	minFrameDur	maxFrameDur
ProbeTrackDT01	7	ProbeTrackDT01	10.3	SCS215a	20100519.163135	20100519.163208	8	0.013328	60	0	60-180	60	146	NoGap	1	1	3	2	1	target	1	2879	0	0	13.328	13.229	13.427
ProbeTrackDT01	7	ProbeTrackDT01	10.3	SCS215a	20100519.163135	20100519.163216	8	0.013328	60	0	60-180	60	160	NoGap	1	2	3	75	0	distractor	1	1586	207	207	13.328	13.287	13.363
ProbeTrackDT01	7	ProbeTrackDT01	10.3	SCS215a	20100519.163135	20100519.163224	8	0.013328	60	0	60-180	60	138	NoGap	1	3	3	75	1	target	1	1426	287	494	13.328	13.266	13.363
ProbeTrackDT01	7	ProbeTrackDT01	10.3	SCS215a	20100519.163135	20100519.163232	8	0.013328	60	0	60-180	60	64	NoGap	1	4	3	2	0	distractor	1	987	507	1001	13.328	13.293	13.363
ProbeTrackDT01	7	ProbeTrackDT01	10.3	SCS215a	20100519.163135	20100519.163237	8	0.013328	60	0	60-180	60	117	NoGap	1	5	3	75	1	target	1	613	694	1695	13.328	13.077	13.550
ProbeTrackDT01	7	ProbeTrackDT01	10.3	SCS215a	20100519.163135	20100519.163243	8	0.013328	60	0	60-180	60	66	NoGap	1	6	3	1	0	distractor	1	707	647	2342	13.328	13.293	13.362
ProbeTrackDT01	7	ProbeTrackDT01	10.3	SCS215a	20100519.163135	20100519.163248	8	0.013328	60	0	60-180	60	175	NoGap	1	7	3	75	1	target	1	693	654	2996	13.328	13.032	13.616
ProbeTrackDT01	7	ProbeTrackDT01	10.3	SCS215a	20100519.163135	20100519.163256	8	0.013328	60	0	60-180	60	114	NoGap	1	8	3	2	1	target	1	867	567	3563	13.328	13.128	13.560
ProbeTrackDT01	7	ProbeTrackDT01	10.3	SCS215a	20100519.163135	20100519.163301	8	0.013328	60	0	60-180	60	163	NoGap	1	9	3	4	1	target	1	600	700	4263	13.328	13.292	13.364
ProbeTrackDT01	7	ProbeTrackDT01	10.3	SCS215a	20100519.163135	20100519.163307	8	0.013328	60	0	60-180	60	155	NoGap	1	10	3	4	1	target	1	627	687	4950	13.328	13.244	13.411
ProbeTrackDT01	7	ProbeTrackDT01	10.3	SCS215a	20100519.163135	20100519.163313	8	0.013328	60	0	60-180	60	152	NoGap	1	11	3	0	1	distractor	0	520	-1000	3950	13.328	13.293	13.363
ProbeTrackDT01	7	ProbeTrackDT01	10.3	SCS215a	20100519.163135	20100519.163319	8	0.013328	60	0	60-180	60	115	NoGap	1	12	3	1	0	distractor	1	1013	494	4444	13.328	13.293	13.363
ProbeTrackDT01	7	ProbeTrackDT01	10.3	SCS215a	20100519.163135	20100519.163325	8	0.013328	60	0	60-180	60	93	NoGap	1	13	3	1	0	distractor	1	893	554	4998	13.328	13.293	13.363
ProbeTrackDT01	7	ProbeTrackDT01	10.3	SCS215a	20100519.163135	20100519.163331	8	0.013328	60	0	60-180	60	70	NoGap	1	14	3	4	0	distractor	1	1360	320	5318	13.328	13.293	13.363
ProbeTrackDT01	7	ProbeTrackDT01	10.3	SCS215a	20100519.163135	20100519.163336	8	0.013328	60	0	60-180	60	117	NoGap	1	15	3	4	0	distractor	1	880	560	5878	13.328	13.167	13.498
ProbeTrackDT01	7	ProbeTrackDT01	10.3	SCS215a	20100519.163135	20100519.163342	8	0.013328	60	0	60-180	60	125	NoGap	1	16	3	0	1	target	1	574	713	6591	13.328	13.114	13.530
ProbeTrackDT01	7	ProbeTrackDT01	10.3	SCS215a	20100519.163135	20100519.163347	8	0.013328	60	0	60-180	60	130	NoGap	1	17	3	75	0	distractor	1	947	527	7118	13.328	13.020	13.617
ProbeTrackDT01	7	ProbeTrackDT01	10.3	SCS215a	20100519.163135	20100519.163354	8	0.013328	60	0	60-180	60	139	NoGap	1	18	3	2	1	target	1	787	607	7725	13.328	13.293	13.363
ProbeTrackDT01	7	ProbeTrackDT01	10.3	SCS215a	20100519.163135	20100519.163400	8	0.013328	60	0	60-180	60	117	NoGap	1	19	3	1	1	target	1	987	507	8232	13.328	13.293	13.363
ProbeTrackDT01	7	ProbeTrackDT01	10.3	SCS215a	20100519.163135	20100519.163406	8	0.013328	60	0	60-180	60	78	NoGap	1	20	3	1	1	target	1	1040	480	8712	13.328	13.293	13.363
ProbeTrackDT01	7	ProbeTrackDT01	10.3	SCS215a	20100519.163135	20100519.163412	8	0.013328	60	0	60-180	60	96	NoGap	1	21	3	75	0	distractor	1	800	600	9312	13.328	13.293	13.363
ProbeTrackDT01	7	ProbeTrackDT01	10.3	SCS215a	20100519.163135	20100519.163418	8	0.013328	60	0	60-180	60	80	NoGap	1	22	3	2	1	target	1	1626	187	9499	13.328	13.057	13.565
ProbeTrackDT01	7	ProbeTrackDT01	10.3	SCS215a	20100519.163135	20100519.163424	8	0.013328	60	0	60-180	60	89	NoGap	1	23	3	0	1	target	1	733	634	10133	13.328	13.022	13.634
ProbeTrackDT01	7	ProbeTrackDT01	10.3	SCS215a	20100519.163135	20100519.163429	8	0.013328	60	0	60-180	60	94	NoGap	1	24	3	0	0	distractor	1	720	640	10773	13.328	13.293	13.363
ProbeTrackDT01	7	ProbeTrackDT01	10.3	SCS215a	20100519.163135	20100519.163435	8	0.013328	60	0	60-180	60	116	NoGap	1	25	3	0	0	target	0	547	-1000	9773	13.328	13.026	13.596
ProbeTrackDT01	7	ProbeTrackDT01	10.3	SCS215a	20100519.163135	20100519.163440	8	0.013328	60	0	60-180	60	113	NoGap	1	26	3	4	0	distractor	1	720	640	10413	13.328	13.293	13.363
ProbeTrackDT01	7	ProbeTrackDT01	10.3	SCS215a	20100519.163135	20100519.163445	8	0.013328	60	0	60-180	60	147	NoGap	1	27	3	75	0	distractor	1	653	674	11087	13.328	13.293	13.363
ProbeTrackDT01	7	ProbeTrackDT01	10.3	SCS215a	20100519.163135	20100519.163452	8	0.013328	60	0	60-180	60	61	NoGap	1	28	3	4	1	distractor	0	853	-1000	10087	13.328	13.293	13.363
ProbeTrackDT01	7	ProbeTrackDT01	10.3	SCS215a	20100519.163135	20100519.163457	8	0.013328	60	0	60-180	60	78	NoGap	1	29	3	2	0	distractor	1	1253	374	10461	13.390	13.288	26.370
ProbeTrackDT01	7	ProbeTrackDT01	10.3	SCS215a	20100519.163135	20100519.163503	8	0.013328	60	0	60-180	60	153	NoGap	1	30	3	1	1	target	1	1013	494	10955	13.328	13.085	13.556
ProbeTrackDT01	7	ProbeTrackDT01	10.3	SCS215a	20100519.163135	20100519.163509	8	0.013328	60	0	60-180	60	89	NoGap	1	31	3	75	1	target	1	1346	327	11282	13.328	13.293	13.363
ProbeTrackDT01	7	ProbeTrackDT01	10.3	SCS215a	20100519.163135	20100519.163516	8	0.013328	60	0	60-180	60	145	NoGap	1	32	3	4	1	target	1	893	554	11836	13.328	13.293	13.363
ProbeTrackDT01	7	ProbeTrackDT01	10.3	SCS215a	20100519.163135	20100519.163522	8	0.013328	60	0	60-180	60	175	NoGap	1	33	3	2	0	distractor	1	787	607	12443	13.328	13.293	13.363
ProbeTrackDT01	7	ProbeTrackDT01	10.3	SCS215a	20100519.163135	20100519.163529	8	0.013328	60	0	60-180	60	156	NoGap	1	34	3	0	1	target	1	480	760	13203	13.328	13.293	13.363
ProbeTrackDT01	7	ProbeTrackDT01	10.3	SCS215a	20100519.163135	20100519.163535	8	0.013328	60	0	60-180	60	72	NoGap	1	35	3	0	0	distractor	1	653	674	13877	13.328	13.293	13.363
ProbeTrackDT01	7	ProbeTrackDT01	10.3	SCS215a	20100519.163135	20100519.163540	8	0.013328	60	0	60-180	60	91	NoGap	1	36	3	4	0	distractor	1	800	600	14477	13.328	13.292	13.363
ProbeTrackDT01	7	ProbeTrackDT01	10.3	SCS215a	20100519.163135	20100519.163545	8	0.013328	60	0	60-180	60	132	NoGap	1	37	3	1	1	target	1	800	600	15077	13.328	13.239	13.417
ProbeTrackDT01	7	ProbeTrackDT01	10.3	SCS215a	20100519.163135	20100519.163551	8	0.013328	60	0	60-180	60	106	NoGap	1	38	3	1	0	distractor	1	773	614	15691	13.328	13.293	13.363
ProbeTrackDT01	7	ProbeTrackDT01	10.3	SCS215a	20100519.163135	20100519.163556	8	0.013328	60	0	60-180	60	94	NoGap	1	39	3	0	0	distractor	1	640	680	16371	13.328	13.127	13.554
ProbeTrackDT01	7	ProbeTrackDT01	10.3	SCS215a	20100519.163135	20100519.163601	8	0.013328	60	0	60-180	60	140	NoGap	1	40	3	2	0	distractor	1	614	693	17064	13.328	13.028	13.640
ProbeTrackDT01	7	ProbeTrackDT01	10.3	SCS215a	20100519.163703	20100519.163714	8	0.013327	60	10	60-180	60	94	GapPrac	1	1	3	0	1	distractor	0	1440	-1000	16064	13.328	13.293	13.366
ProbeTrackDT01	7	ProbeTrackDT01	10.3	SCS215a	20100519.163703	20100519.163720	8	0.013327	60	10	60-180	60	161	GapPrac	1	2	3	75	1	distractor	0	1466	-1000	15064	13.328	13.254	13.401
ProbeTrackDT01	7	ProbeTrackDT01	10.3	SCS215a	20100519.163703	20100519.163728	8	0.013327	60	10	60-180	60	110	GapPrac	1	3	3	0	0	target	0	1120	-1000	14064	13.328	13.293	13.363
ProbeTrackDT01	7	ProbeTrackDT01	10.3	SCS215a	20100519.163703	20100519.163734	8	0.013327	60	10	60-180	60	167	GapPrac	1	4	3	75	1	distractor	0	1333	-1000	13064	13.328	11.837	14.820
ProbeTrackDT01	7	ProbeTrackDT01	10.3	SCS215a	20100519.163703	20100519.163742	8	0.013327	60	10	60-180	60	68	GapPrac	1	5	3	2	1	distractor	0	1826	-1000	12064	13.328	13.104	13.519
ProbeTrackDT01	7	ProbeTrackDT01	10.3	SCS215a	20100519.163703	20100519.163748	8	0.013327	60	10	60-180	60	139	GapPrac	1	6	3	1	0	distractor	1	1466	267	12331	13.328	13.239	13.433
ProbeTrackDT01	7	ProbeTrackDT01	10.3	SCS215a	20100519.163703	20100519.163755	8	0.013327	60	10	60-180	60	80	GapPrac	1	7	3	2	0	distractor	1	1200	400	12731	13.328	13.293	13.363
ProbeTrackDT01	7	ProbeTrackDT01	10.3	SCS215a	20100519.163703	20100519.163800	8	0.013327	60	10	60-180	60	167	GapPrac	1	8	3	4	0	distractor	1	1093	454	13185	13.328	13.293	13.363
ProbeTrackDT01	7	ProbeTrackDT01	10.3	SCS215a	20100519.163703	20100519.163807	8	0.013327	60	10	60-180	60	137	GapPrac	1	9	3	0	1	target	1	1586	207	13392	13.328	13.290	13.366
ProbeTrackDT01	7	ProbeTrackDT01	10.3	SCS215a	20100519.163703	20100519.163814	8	0.013327	60	10	60-180	60	62	GapPrac	1	10	3	2	1	target	1	1613	194	13586	13.328	13.293	13.363
ProbeTrackDT01	7	ProbeTrackDT01	10.3	SCS215a	20100519.163703	20100519.163820	8	0.013327	60	10	60-180	60	161	GapPrac	1	11	3	4	1	target	1	960	520	14106	13.328	13.292	13.363
ProbeTrackDT01	7	ProbeTrackDT01	10.3	SCS215a	20100519.163703	20100519.163826	8	0.013327	60	10	60-180	60	125	GapPrac	1	12	3	4	0	distractor	1	907	547	14653	13.328	13.290	13.363
ProbeTrackDT01	7	ProbeTrackDT01	10.3	SCS215a	20100519.163703	20100519.163832	8	0.013327	60	10	60-180	60	121	GapPrac	1	13	3	75	0	target	0	947	-1000	13653	13.328	13.176	13.481
ProbeTrackDT01	7	ProbeTrackDT01	10.3	SCS215a	20100519.163703	20100519.163839	8	0.013327	60	10	60-180	60	112	GapPrac	1	14	3	75	0	target	0	787	-1000	12653	13.328	13.212	13.476
ProbeTrackDT01	7	ProbeTrackDT01	10.3	SCS215a	20100519.163703	20100519.163846	8	0.013327	60	10	60-180	60	107	GapPrac	1	15	3	1	1	target	1	933	534	13187	13.328	13.292	13.363
ProbeTrackDT01	7	ProbeTrackDT01	10.3	SCS215a	20100519.163703	20100519.163852	8	0.013327	60	10	60-180	60	110	GapPrac	1	16	3	2	0	distractor	1	893	554	13741	13.328	13.292	13.363
ProbeTrackDT01	7	ProbeTrackDT01	10.3	SCS215a	20100519.163703	20100519.163858	8	0.013327	60	10	60-180	60	81	GapPrac	1	17	3	1	1	target	1	960	520	14261	13.328	13.293	13.363
ProbeTrackDT01	7	ProbeTrackDT01	10.3	SCS215a	20100519.163703	20100519.163903	8	0.013327	60	10	60-180	60	147	GapPrac	1	18	3	4	1	target	1	907	547	14808	13.328	13.293	13.363
ProbeTrackDT01	7	ProbeTrackDT01	10.3	SCS215a	20100519.163703	20100519.163909	8	0.013327	60	10	60-180	60	92	GapPrac	1	19	3	0	0	distractor	1	1027	487	15295	13.328	13.293	13.363
ProbeTrackDT01	7	ProbeTrackDT01	10.3	SCS215a	20100519.163703	20100519.163915	8	0.013327	60	10	60-180	60	142	GapPrac	1	20	3	1	0	distractor	1	1586	207	15502	13.374	13.289	26.119
ProbeTrackDT01	7	ProbeTrackDT01	10.3	SCS215a	20100519.164021	20100519.164106	8	0.013328	60	10	60-180	60	115	GapPrac	1	1	3	0	1	target	1	1693	154	15656	13.328	13.293	13.363
ProbeTrackDT01	7	ProbeTrackDT01	10.3	SCS215a	20100519.164021	20100519.164113	8	0.013328	60	10	60-180	60	174	GapPrac	1	2	3	0	0	distractor	1	1733	134	15790	13.328	13.292	13.377
ProbeTrackDT01	7	ProbeTrackDT01	10.3	SCS215a	20100519.164021	20100519.164121	8	0.013328	60	10	60-180	60	97	GapPrac	1	3	3	2	0	distractor	1	1160	420	16210	13.328	12.888	13.734
ProbeTrackDT01	7	ProbeTrackDT01	10.3	SCS215a	20100519.164021	20100519.164126	8	0.013328	60	10	60-180	60	148	GapPrac	1	4	3	0	0	target	0	733	-1000	15210	13.328	13.166	13.455
ProbeTrackDT01	7	ProbeTrackDT01	10.3	SCS215a	20100519.164021	20100519.164133	8	0.013328	60	10	60-180	60	106	GapPrac	1	5	3	2	1	distractor	0	200	-1000	14210	13.328	13.293	13.367
ProbeTrackDT01	7	ProbeTrackDT01	10.3	SCS215a	20100519.164021	20100519.164138	8	0.013328	60	10	60-180	60	74	GapPrac	1	6	3	2	1	target	1	853	574	14784	13.328	13.228	13.431
ProbeTrackDT01	7	ProbeTrackDT01	10.3	SCS215a	20100519.164021	20100519.164143	8	0.013328	60	10	60-180	60	62	GapPrac	1	7	3	75	0	distractor	1	760	620	15404	13.328	13.293	13.366
ProbeTrackDT01	7	ProbeTrackDT01	10.3	SCS215a	20100519.164021	20100519.164149	8	0.013328	60	10	60-180	60	111	GapPrac	1	8	3	4	1	target	1	880	560	15964	13.328	12.879	13.777
ProbeTrackDT01	7	ProbeTrackDT01	10.3	SCS215a	20100519.164021	20100519.164155	8	0.013328	60	10	60-180	60	139	GapPrac	1	9	3	1	1	distractor	0	1386	-1000	14964	13.328	13.227	13.395
ProbeTrackDT01	7	ProbeTrackDT01	10.3	SCS215a	20100519.164021	20100519.164202	8	0.013328	60	10	60-180	60	95	GapPrac	1	10	3	4	0	target	0	1786	-1000	13964	13.328	13.293	13.363
ProbeTrackDT01	7	ProbeTrackDT01	10.3	SCS215a	20100519.164021	20100519.164208	8	0.013328	60	10	60-180	60	174	GapPrac	1	11	3	4	0	target	0	1000	-1000	12964	13.328	13.194	13.461
ProbeTrackDT01	7	ProbeTrackDT01	10.3	SCS215a	20100519.164021	20100519.164215	8	0.013328	60	10	60-180	60	160	GapPrac	1	12	3	75	0	distractor	1	600	700	13664	13.328	13.032	13.543
ProbeTrackDT01	7	ProbeTrackDT01	10.3	SCS215a	20100519.164021	20100519.164222	8	0.013328	60	10	60-180	60	67	GapPrac	1	13	3	75	1	target	1	747	627	14291	13.374	13.292	26.655
ProbeTrackDT01	7	ProbeTrackDT01	10.3	SCS215a	20100519.164021	20100519.164228	8	0.013328	60	10	60-180	60	178	GapPrac	1	14	3	2	0	distractor	1	1173	414	14705	13.328	13.069	13.621
ProbeTrackDT01	7	ProbeTrackDT01	10.3	SCS215a	20100519.164021	20100519.164235	8	0.013328	60	10	60-180	60	92	GapPrac	1	15	3	4	1	target	1	1640	180	14885	13.328	13.293	13.363
ProbeTrackDT01	7	ProbeTrackDT01	10.3	SCS215a	20100519.164021	20100519.164242	8	0.013328	60	10	60-180	60	135	GapPrac	1	16	3	1	0	distractor	1	880	560	15445	13.328	13.293	13.363
ProbeTrackDT01	7	ProbeTrackDT01	10.3	SCS215a	20100519.164021	20100519.164248	8	0.013328	60	10	60-180	60	101	GapPrac	1	17	3	1	0	distractor	1	1253	374	15819	13.328	13.079	13.541
ProbeTrackDT01	7	ProbeTrackDT01	10.3	SCS215a	20100519.164021	20100519.164254	8	0.013328	60	10	60-180	60	96	GapPrac	1	18	3	75	1	distractor	0	1373	-1000	14819	13.328	13.057	13.631
ProbeTrackDT01	7	ProbeTrackDT01	10.3	SCS215a	20100519.164021	20100519.164301	8	0.013328	60	10	60-180	60	177	GapPrac	1	19	3	0	1	target	1	1146	427	15246	13.328	13.288	13.367
ProbeTrackDT01	7	ProbeTrackDT01	10.3	SCS215a	20100519.164021	20100519.164308	8	0.013328	60	10	60-180	60	67	GapPrac	1	20	3	1	1	target	1	893	554	15800	13.328	13.293	13.363
ProbeTrackDT01	7	ProbeTrackDT01	10.3	SCS215a	20100519.164329	20100519.164345	8	0.013328	60	10	60-180	60	107	GapExp	1	1	3	4	0	distractor	1	760	620	16420	13.328	13.286	13.402
ProbeTrackDT01	7	ProbeTrackDT01	10.3	SCS215a	20100519.164329	20100519.164351	8	0.013328	60	10	60-180	60	152	GapExp	1	2	3	4	1	target	1	1120	440	16860	13.328	13.293	13.363
ProbeTrackDT01	7	ProbeTrackDT01	10.3	SCS215a	20100519.164329	20100519.164357	8	0.013328	60	10	60-180	60	139	GapExp	1	3	3	75	0	distractor	1	787	607	17467	13.328	13.200	13.455
ProbeTrackDT01	7	ProbeTrackDT01	10.3	SCS215a	20100519.164329	20100519.164404	8	0.013328	60	10	60-180	60	118	GapExp	1	4	3	75	1	target	1	667	667	18134	13.328	13.293	13.363
ProbeTrackDT01	7	ProbeTrackDT01	10.3	SCS215a	20100519.164329	20100519.164411	8	0.013328	60	10	60-180	60	82	GapExp	1	5	3	1	0	distractor	1	1453	274	18408	13.328	13.293	13.363
ProbeTrackDT01	7	ProbeTrackDT01	10.3	SCS215a	20100519.164329	20100519.164417	8	0.013328	60	10	60-180	60	118	GapExp	1	6	3	2	1	distractor	0	1360	-1000	17408	13.328	13.293	13.363
ProbeTrackDT01	7	ProbeTrackDT01	10.3	SCS215a	20100519.164329	20100519.164423	8	0.013328	60	10	60-180	60	163	GapExp	1	7	3	0	1	target	1	1480	260	17668	13.328	13.293	13.365
ProbeTrackDT01	7	ProbeTrackDT01	10.3	SCS215a	20100519.164329	20100519.164430	8	0.013328	60	10	60-180	60	80	GapExp	1	8	3	1	1	target	1	760	620	18288	13.328	12.940	13.748
ProbeTrackDT01	7	ProbeTrackDT01	10.3	SCS215a	20100519.164329	20100519.164436	8	0.013328	60	10	60-180	60	79	GapExp	1	9	3	0	0	distractor	1	1160	420	18708	13.328	13.289	13.363
ProbeTrackDT01	7	ProbeTrackDT01	10.3	SCS215a	20100519.164329	20100519.164441	8	0.013328	60	10	60-180	60	177	GapExp	1	10	3	2	0	distractor	1	987	507	19215	13.328	13.130	13.525
ProbeTrackDT01	7	ProbeTrackDT01	10.3	SCS215a	20100519.164329	20100519.164448	8	0.013328	60	10	60-180	60	143	GapExp	0	11	3	75	1	distractor	0	813	-1000	18215	13.328	13.237	13.422
ProbeTrackDT01	7	ProbeTrackDT01	10.3	SCS215a	20100519.164329	20100519.164455	8	0.013328	60	10	60-180	60	129	GapExp	0	12	3	0	1	target	1	973	514	18729	13.328	13.293	13.363
ProbeTrackDT01	7	ProbeTrackDT01	10.3	SCS215a	20100519.164329	20100519.164501	8	0.013328	60	10	60-180	60	144	GapExp	0	13	3	4	0	distractor	1	1027	487	19216	13.328	13.293	13.364
ProbeTrackDT01	7	ProbeTrackDT01	10.3	SCS215a	20100519.164329	20100519.164508	8	0.013328	60	10	60-180	60	157	GapExp	0	14	3	0	0	distractor	1	2906	0	19216	13.328	13.108	13.582
ProbeTrackDT01	7	ProbeTrackDT01	10.3	SCS215a	20100519.164329	20100519.164516	8	0.013328	60	10	60-180	60	126	GapExp	0	15	3	0	0	distractor	1	880	560	19776	13.377	13.289	26.626
ProbeTrackDT01	7	ProbeTrackDT01	10.3	SCS215a	20100519.164329	20100519.164522	8	0.013328	60	10	60-180	60	93	GapExp	0	16	3	4	1	target	1	813	594	20370	13.328	13.293	13.363
ProbeTrackDT01	7	ProbeTrackDT01	10.3	SCS215a	20100519.164329	20100519.164528	8	0.013328	60	10	60-180	60	89	GapExp	0	17	3	2	0	distractor	1	5798	0	20370	13.328	13.009	13.679
ProbeTrackDT01	7	ProbeTrackDT01	10.3	SCS215a	20100519.164329	20100519.164538	8	0.013328	60	10	60-180	60	170	GapExp	0	18	3	75	1	distractor	0	814	-1000	19370	13.327	13.021	13.364
ProbeTrackDT01	7	ProbeTrackDT01	10.3	SCS215a	20100519.164329	20100519.164546	8	0.013328	60	10	60-180	60	139	GapExp	0	19	3	4	0	target	0	773	-1000	18370	13.328	13.293	13.363
ProbeTrackDT01	7	ProbeTrackDT01	10.3	SCS215a	20100519.164329	20100519.164552	8	0.013328	60	10	60-180	60	103	GapExp	0	20	3	75	0	distractor	1	840	580	18950	13.328	13.293	13.363
ProbeTrackDT01	7	ProbeTrackDT01	10.3	SCS215a	20100519.164329	20100519.164558	8	0.013328	60	10	60-180	60	157	GapExp	0	21	3	1	0	distractor	1	560	720	19670	13.328	13.058	13.597
ProbeTrackDT01	7	ProbeTrackDT01	10.3	SCS215a	20100519.164329	20100519.164604	8	0.013328	60	10	60-180	60	116	GapExp	0	22	3	1	1	target	1	600	700	20370	13.328	13.293	13.363
ProbeTrackDT01	7	ProbeTrackDT01	10.3	SCS215a	20100519.164329	20100519.164610	8	0.013328	60	10	60-180	60	161	GapExp	0	23	3	75	0	target	0	520	-1000	19370	13.328	13.111	13.543
ProbeTrackDT01	7	ProbeTrackDT01	10.3	SCS215a	20100519.164329	20100519.164617	8	0.013328	60	10	60-180	60	120	GapExp	0	24	3	4	1	distractor	0	214	-1000	18370	13.328	13.177	13.447
ProbeTrackDT01	7	ProbeTrackDT01	10.3	SCS215a	20100519.164329	20100519.164622	8	0.013328	60	10	60-180	60	89	GapExp	0	25	3	2	1	target	1	480	760	19130	13.328	13.184	13.471
ProbeTrackDT01	7	ProbeTrackDT01	10.3	SCS215a	20100519.164329	20100519.164628	8	0.013328	60	10	60-180	60	148	GapExp	0	26	3	0	0	distractor	1	600	700	19830	13.328	13.200	13.421
ProbeTrackDT01	7	ProbeTrackDT01	10.3	SCS215a	20100519.164329	20100519.164634	8	0.013328	60	10	60-180	60	138	GapExp	0	27	3	75	1	distractor	0	1280	-1000	18830	13.328	13.163	13.474
ProbeTrackDT01	7	ProbeTrackDT01	10.3	SCS215a	20100519.164329	20100519.164641	8	0.013328	60	10	60-180	60	115	GapExp	0	28	3	2	1	target	1	547	727	19557	13.328	13.293	13.363
ProbeTrackDT01	7	ProbeTrackDT01	10.3	SCS215a	20100519.164329	20100519.164647	8	0.013328	60	10	60-180	60	118	GapExp	0	29	3	2	1	target	1	1200	400	19957	13.328	13.040	13.650
ProbeTrackDT01	7	ProbeTrackDT01	10.3	SCS215a	20100519.164329	20100519.164653	8	0.013328	60	10	60-180	60	146	GapExp	0	30	3	4	0	target	0	1813	-1000	18957	13.328	13.163	13.492
ProbeTrackDT01	7	ProbeTrackDT01	10.3	SCS215a	20100519.164329	20100519.164700	8	0.013328	60	10	60-180	60	104	GapExp	0	31	3	1	1	distractor	0	1720	-1000	17957	13.328	13.240	13.415
ProbeTrackDT01	7	ProbeTrackDT01	10.3	SCS215a	20100519.164329	20100519.164707	8	0.013328	60	10	60-180	60	103	GapExp	0	32	3	75	0	target	0	1493	-1000	16957	13.328	13.290	13.366
ProbeTrackDT01	7	ProbeTrackDT01	10.3	SCS215a	20100519.164329	20100519.164714	8	0.013328	60	10	60-180	60	112	GapExp	0	33	3	2	1	distractor	0	1133	-1000	15957	13.328	13.293	13.363
ProbeTrackDT01	7	ProbeTrackDT01	10.3	SCS215a	20100519.164329	20100519.164720	8	0.013328	60	10	60-180	60	87	GapExp	0	34	3	4	1	target	1	560	720	16677	13.328	13.193	13.462
ProbeTrackDT01	7	ProbeTrackDT01	10.3	SCS215a	20100519.164329	20100519.164725	8	0.013328	60	10	60-180	60	98	GapExp	0	35	3	0	1	distractor	0	1453	-1000	15677	13.328	13.293	13.363
ProbeTrackDT01	7	ProbeTrackDT01	10.3	SCS215a	20100519.164329	20100519.164731	8	0.013328	60	10	60-180	60	138	GapExp	0	36	3	0	0	target	0	1160	-1000	14677	13.328	13.292	13.364
ProbeTrackDT01	7	ProbeTrackDT01	10.3	SCS215a	20100519.164329	20100519.164738	8	0.013328	60	10	60-180	60	70	GapExp	0	37	3	2	0	target	0	867	-1000	13677	13.328	13.287	13.363
ProbeTrackDT01	7	ProbeTrackDT01	10.3	SCS215a	20100519.164329	20100519.164743	8	0.013328	60	10	60-180	60	154	GapExp	0	38	3	2	0	distractor	1	1200	400	14077	13.328	13.187	13.434
ProbeTrackDT01	7	ProbeTrackDT01	10.3	SCS215a	20100519.164329	20100519.164750	8	0.013328	60	10	60-180	60	143	GapExp	0	39	3	4	1	target	1	947	527	14604	13.328	13.293	13.363
ProbeTrackDT01	7	ProbeTrackDT01	10.3	SCS215a	20100519.164329	20100519.164756	8	0.013328	60	10	60-180	60	158	GapExp	0	40	3	4	1	target	1	773	614	15218	13.328	13.293	13.364
ProbeTrackDT01	7	ProbeTrackDT01	10.3	SCS215a	20100519.164329	20100519.164803	8	0.013328	60	10	60-180	60	156	GapExp	0	41	3	4	0	target	0	640	-1000	14218	13.328	13.293	13.363
ProbeTrackDT01	7	ProbeTrackDT01	10.3	SCS215a	20100519.164329	20100519.164809	8	0.013328	60	10	60-180	60	143	GapExp	0	42	3	0	1	target	1	1506	247	14465	13.328	13.293	13.363
ProbeTrackDT01	7	ProbeTrackDT01	10.3	SCS215a	20100519.164329	20100519.164815	8	0.013328	60	10	60-180	60	177	GapExp	0	43	3	75	1	target	1	973	514	14979	13.328	13.217	13.471
ProbeTrackDT01	7	ProbeTrackDT01	10.3	SCS215a	20100519.164329	20100519.164823	8	0.013328	60	10	60-180	60	120	GapExp	0	44	3	2	0	target	0	1133	-1000	13979	13.328	13.187	13.469
ProbeTrackDT01	7	ProbeTrackDT01	10.3	SCS215a	20100519.164329	20100519.164829	8	0.013328	60	10	60-180	60	62	GapExp	0	45	3	1	1	distractor	0	1253	-1000	12979	13.328	13.231	13.425
ProbeTrackDT01	7	ProbeTrackDT01	10.3	SCS215a	20100519.164329	20100519.164835	8	0.013328	60	10	60-180	60	120	GapExp	0	46	3	1	1	target	1	907	547	13526	13.328	13.293	13.363
ProbeTrackDT01	7	ProbeTrackDT01	10.3	SCS215a	20100519.164329	20100519.164841	8	0.013328	60	10	60-180	60	71	GapExp	0	47	3	4	0	target	0	5105	-1000	12526	13.328	13.293	13.363
ProbeTrackDT01	7	ProbeTrackDT01	10.3	SCS215a	20100519.164329	20100519.164850	8	0.013328	60	10	60-180	60	142	GapExp	0	48	3	75	1	distractor	0	1480	-1000	11526	13.328	13.292	13.363
ProbeTrackDT01	7	ProbeTrackDT01	10.3	SCS215a	20100519.164329	20100519.164858	8	0.013328	60	10	60-180	60	90	GapExp	0	49	3	75	0	distractor	1	1160	420	11946	13.328	13.289	13.363
ProbeTrackDT01	7	ProbeTrackDT01	10.3	SCS215a	20100519.164329	20100519.164905	8	0.013328	60	10	60-180	60	62	GapExp	0	50	3	1	1	target	1	1746	127	12073	13.328	13.293	13.363
ProbeTrackDT01	7	ProbeTrackDT01	10.3	SCS215a	20100519.164329	20100519.164925	8	0.013328	60	10	60-180	60	75	GapExp	0	51	3	0	1	target	1	707	647	12720	13.328	12.989	13.665
ProbeTrackDT01	7	ProbeTrackDT01	10.3	SCS215a	20100519.164329	20100519.164930	8	0.013328	60	10	60-180	60	161	GapExp	0	52	3	0	1	target	1	1306	347	13067	13.328	13.293	13.363
ProbeTrackDT01	7	ProbeTrackDT01	10.3	SCS215a	20100519.164329	20100519.164937	8	0.013328	60	10	60-180	60	137	GapExp	0	53	3	75	0	target	0	400	-1000	12067	13.328	13.293	13.363
ProbeTrackDT01	7	ProbeTrackDT01	10.3	SCS215a	20100519.164329	20100519.164944	8	0.013328	60	10	60-180	60	153	GapExp	0	54	3	1	0	distractor	1	1840	80	12147	13.328	13.293	13.363
ProbeTrackDT01	7	ProbeTrackDT01	10.3	SCS215a	20100519.164329	20100519.164951	8	0.013328	60	10	60-180	60	115	GapExp	0	55	3	1	1	target	1	2133	0	12147	13.328	13.235	13.387
ProbeTrackDT01	7	ProbeTrackDT01	10.3	SCS215a	20100519.164329	20100519.164958	8	0.013328	60	10	60-180	60	171	GapExp	0	56	3	1	1	distractor	0	1213	-1000	11147	13.328	13.201	13.454
ProbeTrackDT01	7	ProbeTrackDT01	10.3	SCS215a	20100519.164329	20100519.165005	8	0.013328	60	10	60-180	60	160	GapExp	0	57	3	4	0	target	0	1093	-1000	10147	13.328	13.146	13.544
ProbeTrackDT01	7	ProbeTrackDT01	10.3	SCS215a	20100519.164329	20100519.165012	8	0.013328	60	10	60-180	60	122	GapExp	0	58	3	2	1	distractor	0	1426	-1000	9147	13.328	13.293	13.363
ProbeTrackDT01	7	ProbeTrackDT01	10.3	SCS215a	20100519.164329	20100519.165018	8	0.013328	60	10	60-180	60	139	GapExp	0	59	3	0	0	target	0	1333	-1000	8147	13.328	13.235	13.420
ProbeTrackDT01	7	ProbeTrackDT01	10.3	SCS215a	20100519.164329	20100519.165025	8	0.013328	60	10	60-180	60	139	GapExp	0	60	3	2	0	distractor	1	1173	414	8561	13.328	13.193	13.465
ProbeTrackDT01	7	ProbeTrackDT01	10.3	SCS215a	20100519.164329	20100519.165031	8	0.013328	60	10	60-180	60	172	GapExp	0	61	3	1	0	distractor	1	1147	427	8988	13.328	13.280	13.363
ProbeTrackDT01	7	ProbeTrackDT01	10.3	SCS215a	20100519.164329	20100519.165038	8	0.013328	60	10	60-180	60	115	GapExp	0	62	3	2	0	target	0	1133	-1000	7988	13.328	13.293	13.363
ProbeTrackDT01	7	ProbeTrackDT01	10.3	SCS215a	20100519.164329	20100519.165044	8	0.013328	60	10	60-180	60	85	GapExp	0	63	3	2	1	distractor	0	1053	-1000	6988	13.328	13.293	13.363
ProbeTrackDT01	7	ProbeTrackDT01	10.3	SCS215a	20100519.164329	20100519.165050	8	0.013328	60	10	60-180	60	133	GapExp	0	64	3	2	1	target	1	120	940	7928	13.328	13.293	13.363
ProbeTrackDT01	7	ProbeTrackDT01	10.3	SCS215a	20100519.164329	20100519.165055	8	0.013328	60	10	60-180	60	112	GapExp	0	65	3	2	0	distractor	1	280	860	8788	13.328	13.293	13.363
ProbeTrackDT01	7	ProbeTrackDT01	10.3	SCS215a	20100519.164329	20100519.165100	8	0.013328	60	10	60-180	60	154	GapExp	0	66	3	75	0	target	0	680	-1000	7788	13.328	13.239	13.418
ProbeTrackDT01	7	ProbeTrackDT01	10.3	SCS215a	20100519.164329	20100519.165108	8	0.013328	60	10	60-180	60	132	GapExp	0	67	3	2	1	distractor	0	1506	-1000	6788	13.328	13.234	13.455
ProbeTrackDT01	7	ProbeTrackDT01	10.3	SCS215a	20100519.164329	20100519.165114	8	0.013328	60	10	60-180	60	169	GapExp	0	68	3	4	1	target	1	1506	247	7035	13.328	13.293	13.363
ProbeTrackDT01	7	ProbeTrackDT01	10.3	SCS215a	20100519.164329	20100519.165122	8	0.013328	60	10	60-180	60	62	GapExp	0	69	3	0	1	distractor	0	3052	-1000	6035	13.328	13.293	13.363
ProbeTrackDT01	7	ProbeTrackDT01	10.3	SCS215a	20100519.164329	20100519.165129	8	0.013328	60	10	60-180	60	111	GapExp	0	70	3	75	0	target	0	880	-1000	5035	13.328	13.293	13.363
ProbeTrackDT01	7	ProbeTrackDT01	10.3	SCS215a	20100519.164329	20100519.165136	8	0.013328	60	10	60-180	60	78	GapExp	0	71	3	2	0	target	0	1293	-1000	4035	13.328	13.293	13.363
ProbeTrackDT01	7	ProbeTrackDT01	10.3	SCS215a	20100519.164329	20100519.165142	8	0.013328	60	10	60-180	60	112	GapExp	0	72	3	0	0	distractor	1	1560	220	4255	13.328	13.293	13.363
ProbeTrackDT01	7	ProbeTrackDT01	10.3	SCS215a	20100519.164329	20100519.165148	8	0.013328	60	10	60-180	60	159	GapExp	0	73	3	4	0	target	0	560	-1000	3255	13.328	13.293	13.363
ProbeTrackDT01	7	ProbeTrackDT01	10.3	SCS215a	20100519.164329	20100519.165154	8	0.013328	60	10	60-180	60	142	GapExp	0	74	3	0	1	distractor	0	1413	-1000	2255	13.328	13.293	13.363
ProbeTrackDT01	7	ProbeTrackDT01	10.3	SCS215a	20100519.164329	20100519.165201	8	0.013328	60	10	60-180	60	135	GapExp	0	75	3	1	0	target	0	1266	-1000	1255	13.328	13.021	13.635
ProbeTrackDT01	7	ProbeTrackDT01	10.3	SCS215a	20100519.164329	20100519.165207	8	0.013328	60	10	60-180	60	144	GapExp	0	76	3	1	0	target	0	1147	-1000	255	13.328	13.288	13.401
ProbeTrackDT01	7	ProbeTrackDT01	10.3	SCS215a	20100519.164329	20100519.165214	8	0.013328	60	10	60-180	60	154	GapExp	0	77	3	1	0	target	0	867	-1000	-745	13.328	13.292	13.363
ProbeTrackDT01	7	ProbeTrackDT01	10.3	SCS215a	20100519.164329	20100519.165220	8	0.013328	60	10	60-180	60	77	GapExp	0	78	3	4	1	distractor	0	1053	-1000	-1745	13.328	13.258	13.432
ProbeTrackDT01	7	ProbeTrackDT01	10.3	SCS215a	20100519.164329	20100519.165226	8	0.013328	60	10	60-180	60	104	GapExp	0	79	3	1	0	distractor	1	1480	260	-1485	13.328	13.293	13.363
ProbeTrackDT01	7	ProbeTrackDT01	10.3	SCS215a	20100519.164329	20100519.165232	8	0.013328	60	10	60-180	60	110	GapExp	0	80	3	75	1	target	1	1440	280	-1205	13.328	13.283	13.372
ProbeTrackDT01	7	ProbeTrackDT01	10.3	SCS215a	20100519.164329	20100519.165239	8	0.013328	60	10	60-180	60	124	GapExp	0	81	3	0	0	distractor	1	1706	147	-1058	13.328	13.245	13.410
ProbeTrackDT01	7	ProbeTrackDT01	10.3	SCS215a	20100519.164329	20100519.165246	8	0.013328	60	10	60-180	60	121	GapExp	0	82	3	4	0	distractor	1	1160	420	-638	13.328	13.293	13.366
ProbeTrackDT01	7	ProbeTrackDT01	10.3	SCS215a	20100519.164329	20100519.165252	8	0.013328	60	10	60-180	60	64	GapExp	0	83	3	4	0	target	0	1093	-1000	-1638	13.390	12.894	26.611
ProbeTrackDT01	7	ProbeTrackDT01	10.3	SCS215a	20100519.164329	20100519.165258	8	0.013328	60	10	60-180	60	176	GapExp	0	84	3	0	1	distractor	0	240	-1000	-2638	13.328	13.293	13.363
ProbeTrackDT01	7	ProbeTrackDT01	10.3	SCS215a	20100519.164329	20100519.165304	8	0.013328	60	10	60-180	60	150	GapExp	0	85	3	1	1	target	1	2186	0	-2638	13.419	13.289	39.972
ProbeTrackDT01	7	ProbeTrackDT01	10.3	SCS215a	20100519.164329	20100519.165312	8	0.013328	60	10	60-180	60	155	GapExp	0	86	3	2	1	distractor	0	1160	-1000	-3638	13.328	13.138	13.550
ProbeTrackDT01	7	ProbeTrackDT01	10.3	SCS215a	20100519.164329	20100519.165318	8	0.013328	60	10	60-180	60	115	GapExp	0	87	3	75	0	target	0	760	-1000	-4638	13.328	13.038	13.598
ProbeTrackDT01	7	ProbeTrackDT01	10.3	SCS215a	20100519.164329	20100519.165325	8	0.013328	60	10	60-180	60	163	GapExp	0	88	3	1	0	distractor	1	1960	20	-4618	13.328	13.144	13.511
ProbeTrackDT01	7	ProbeTrackDT01	10.3	SCS215a	20100519.164329	20100519.165333	8	0.013328	60	10	60-180	60	162	GapExp	0	89	3	4	1	target	1	1080	460	-4158	13.328	13.194	13.429
ProbeTrackDT01	7	ProbeTrackDT01	10.3	SCS215a	20100519.164329	20100519.165339	8	0.013328	60	10	60-180	60	153	GapExp	0	90	3	2	0	distractor	1	1013	494	-3664	13.328	13.293	13.383
ProbeTrackDT01	7	ProbeTrackDT01	10.3	SCS215a	20100519.164329	20100519.165346	8	0.013328	60	10	60-180	60	106	GapExp	0	91	3	75	1	distractor	0	1067	-1000	-4664	13.328	13.206	13.416
ProbeTrackDT01	7	ProbeTrackDT01	10.3	SCS215a	20100519.164329	20100519.165353	8	0.013328	60	10	60-180	60	115	GapExp	0	92	3	1	1	target	1	1133	434	-4230	13.328	13.293	13.366
ProbeTrackDT01	7	ProbeTrackDT01	10.3	SCS215a	20100519.164329	20100519.165359	8	0.013328	60	10	60-180	60	79	GapExp	0	93	3	0	1	distractor	0	2386	-1000	-5230	13.328	13.188	13.501
ProbeTrackDT01	7	ProbeTrackDT01	10.3	SCS215a	20100519.164329	20100519.165406	8	0.013328	60	10	60-180	60	157	GapExp	0	94	3	2	0	distractor	1	920	540	-4690	13.328	13.118	13.570
ProbeTrackDT01	7	ProbeTrackDT01	10.3	SCS215a	20100519.164329	20100519.165412	8	0.013328	60	10	60-180	60	154	GapExp	0	95	3	1	0	distractor	1	1186	407	-4283	13.328	13.293	13.366
ProbeTrackDT01	7	ProbeTrackDT01	10.3	SCS215a	20100519.164329	20100519.165419	8	0.013328	60	10	60-180	60	120	GapExp	0	96	3	0	0	target	0	853	-1000	-5283	13.328	13.293	13.366
ProbeTrackDT01	7	ProbeTrackDT01	10.3	SCS215a	20100519.164329	20100519.165425	8	0.013328	60	10	60-180	60	144	GapExp	0	97	3	0	1	distractor	0	1280	-1000	-6283	13.328	13.044	13.612
ProbeTrackDT01	7	ProbeTrackDT01	10.3	SCS215a	20100519.164329	20100519.165431	8	0.013328	60	10	60-180	60	126	GapExp	0	98	3	4	1	target	1	1600	200	-6083	13.328	13.089	13.600
ProbeTrackDT01	7	ProbeTrackDT01	10.3	SCS215a	20100519.164329	20100519.165438	8	0.013328	60	10	60-180	60	144	GapExp	0	99	3	75	1	distractor	0	1306	-1000	-7083	13.328	13.293	13.363
ProbeTrackDT01	7	ProbeTrackDT01	10.3	SCS215a	20100519.164329	20100519.165446	8	0.013328	60	10	60-180	60	178	GapExp	0	100	3	75	1	target	1	1173	414	-6669	13.328	13.221	13.433
ProbeTrackDT01	7	ProbeTrackDT01	10.3	SCS215a	20100519.164329	20100519.165507	8	0.013328	60	10	60-180	60	104	GapExp	0	101	3	4	0	target	0	1373	-1000	-7669	13.328	13.293	13.366
ProbeTrackDT01	7	ProbeTrackDT01	10.3	SCS215a	20100519.164329	20100519.165513	8	0.013328	60	10	60-180	60	80	GapExp	0	102	3	75	1	target	1	494	753	-6916	13.328	13.189	13.433
ProbeTrackDT01	7	ProbeTrackDT01	10.3	SCS215a	20100519.164329	20100519.165519	8	0.013328	60	10	60-180	60	156	GapExp	0	103	3	1	0	distractor	1	560	720	-6196	13.328	13.293	13.363
ProbeTrackDT01	7	ProbeTrackDT01	10.3	SCS215a	20100519.164329	20100519.165525	8	0.013328	60	10	60-180	60	98	GapExp	0	104	3	75	0	target	0	507	-1000	-7196	13.328	13.278	13.377
ProbeTrackDT01	7	ProbeTrackDT01	10.3	SCS215a	20100519.164329	20100519.165531	8	0.013328	60	10	60-180	60	129	GapExp	0	105	3	2	1	distractor	0	494	-1000	-8196	13.328	13.293	13.363
ProbeTrackDT01	7	ProbeTrackDT01	10.3	SCS215a	20100519.164329	20100519.165537	8	0.013328	60	10	60-180	60	129	GapExp	0	106	3	2	1	distractor	0	1147	-1000	-9196	13.328	13.097	13.526
ProbeTrackDT01	7	ProbeTrackDT01	10.3	SCS215a	20100519.164329	20100519.165543	8	0.013328	60	10	60-180	60	82	GapExp	0	107	3	4	1	target	1	1440	280	-8916	13.328	12.921	13.700
ProbeTrackDT01	7	ProbeTrackDT01	10.3	SCS215a	20100519.164329	20100519.165549	8	0.013328	60	10	60-180	60	118	GapExp	0	108	3	0	1	target	1	920	540	-8376	13.328	13.137	13.553
ProbeTrackDT01	7	ProbeTrackDT01	10.3	SCS215a	20100519.164329	20100519.165555	8	0.013328	60	10	60-180	60	171	GapExp	0	109	3	0	0	target	0	1133	-1000	-9376	13.328	13.293	13.363
ProbeTrackDT01	7	ProbeTrackDT01	10.3	SCS215a	20100519.164329	20100519.165602	8	0.013328	60	10	60-180	60	64	GapExp	0	110	3	0	1	target	1	627	687	-8689	13.328	13.293	13.363
ProbeTrackDT01	7	ProbeTrackDT01	10.3	SCS215a	20100519.164329	20100519.165607	8	0.013328	60	10	60-180	60	164	GapExp	0	111	3	4	0	target	0	1200	-1000	-9689	13.328	13.187	13.434
ProbeTrackDT01	7	ProbeTrackDT01	10.3	SCS215a	20100519.164329	20100519.165614	8	0.013328	60	10	60-180	60	94	GapExp	0	112	3	1	0	distractor	1	1293	354	-9335	13.328	13.274	13.382
ProbeTrackDT01	7	ProbeTrackDT01	10.3	SCS215a	20100519.164329	20100519.165620	8	0.013328	60	10	60-180	60	148	GapExp	0	113	3	4	0	distractor	1	573	714	-8621	13.328	13.205	13.484
ProbeTrackDT01	7	ProbeTrackDT01	10.3	SCS215a	20100519.164329	20100519.165626	8	0.013328	60	10	60-180	60	154	GapExp	0	114	3	2	0	target	0	680	-1000	-9621	13.328	13.017	13.605
ProbeTrackDT01	7	ProbeTrackDT01	10.3	SCS215a	20100519.164329	20100519.165632	8	0.013328	60	10	60-180	60	171	GapExp	0	115	3	4	1	target	1	1373	314	-9307	13.328	13.108	13.514
ProbeTrackDT01	7	ProbeTrackDT01	10.3	SCS215a	20100519.164329	20100519.165639	8	0.013328	60	10	60-180	60	163	GapExp	0	116	3	0	1	distractor	0	1360	-1000	-10307	13.328	13.129	13.560
ProbeTrackDT01	7	ProbeTrackDT01	10.3	SCS215a	20100519.164329	20100519.165646	8	0.013328	60	10	60-180	60	92	GapExp	0	117	3	1	1	target	1	973	514	-9793	13.328	13.162	13.493
ProbeTrackDT01	7	ProbeTrackDT01	10.3	SCS215a	20100519.164329	20100519.165652	8	0.013328	60	10	60-180	60	172	GapExp	0	118	3	75	0	distractor	1	947	527	-9266	13.328	13.181	13.475
ProbeTrackDT01	7	ProbeTrackDT01	10.3	SCS215a	20100519.164329	20100519.165659	8	0.013328	60	10	60-180	60	168	GapExp	0	119	3	4	1	target	1	1346	327	-8939	13.328	13.094	13.594
ProbeTrackDT01	7	ProbeTrackDT01	10.3	SCS215a	20100519.164329	20100519.165706	8	0.013328	60	10	60-180	60	83	GapExp	0	120	3	4	1	target	1	1186	407	-8532	13.328	13.293	13.365
ProbeTrackDT01	7	ProbeTrackDT01	10.3	SCS215a	20100519.164329	20100519.165712	8	0.013328	60	10	60-180	60	160	GapExp	0	121	3	0	0	target	0	667	-1000	-9532	13.328	13.293	13.363
ProbeTrackDT01	7	ProbeTrackDT01	10.3	SCS215a	20100519.164329	20100519.165718	8	0.013328	60	10	60-180	60	179	GapExp	0	122	3	4	1	target	1	1133	434	-9098	13.328	12.937	13.685
ProbeTrackDT01	7	ProbeTrackDT01	10.3	SCS215a	20100519.164329	20100519.165725	8	0.013328	60	10	60-180	60	88	GapExp	0	123	3	0	1	target	1	1107	447	-8651	13.328	13.293	13.363
ProbeTrackDT01	7	ProbeTrackDT01	10.3	SCS215a	20100519.164329	20100519.165731	8	0.013328	60	10	60-180	60	160	GapExp	0	124	3	2	0	target	0	987	-1000	-9651	13.328	13.021	13.601
ProbeTrackDT01	7	ProbeTrackDT01	10.3	SCS215a	20100519.164329	20100519.165738	8	0.013328	60	10	60-180	60	166	GapExp	0	125	3	4	0	distractor	1	853	574	-9077	13.328	13.280	13.409
ProbeTrackDT01	7	ProbeTrackDT01	10.3	SCS215a	20100519.164329	20100519.165744	8	0.013328	60	10	60-180	60	85	GapExp	0	126	3	2	0	target	0	1173	-1000	-10077	13.328	13.289	13.363
ProbeTrackDT01	7	ProbeTrackDT01	10.3	SCS215a	20100519.164329	20100519.165750	8	0.013328	60	10	60-180	60	85	GapExp	0	127	3	75	1	distractor	0	587	-1000	-11077	13.328	13.293	13.363
ProbeTrackDT01	7	ProbeTrackDT01	10.3	SCS215a	20100519.164329	20100519.165756	8	0.013328	60	10	60-180	60	94	GapExp	0	128	3	4	1	target	1	907	547	-10530	13.328	13.149	13.471
ProbeTrackDT01	7	ProbeTrackDT01	10.3	SCS215a	20100519.164329	20100519.165802	8	0.013328	60	10	60-180	60	63	GapExp	0	129	3	2	0	distractor	1	880	560	-9970	13.328	13.122	13.533
ProbeTrackDT01	7	ProbeTrackDT01	10.3	SCS215a	20100519.164329	20100519.165807	8	0.013328	60	10	60-180	60	146	GapExp	0	130	3	0	0	target	0	1133	-1000	-10970	13.328	13.226	13.395
ProbeTrackDT01	7	ProbeTrackDT01	10.3	SCS215a	20100519.164329	20100519.165814	8	0.013328	60	10	60-180	60	68	GapExp	0	131	3	2	1	distractor	0	1333	-1000	-11970	13.328	13.056	13.599
ProbeTrackDT01	7	ProbeTrackDT01	10.3	SCS215a	20100519.164329	20100519.165819	8	0.013328	60	10	60-180	60	127	GapExp	0	132	3	4	1	target	1	1306	347	-11623	13.328	13.271	13.419
ProbeTrackDT01	7	ProbeTrackDT01	10.3	SCS215a	20100519.164329	20100519.165826	8	0.013328	60	10	60-180	60	137	GapExp	0	133	3	75	1	distractor	0	640	-1000	-12623	13.328	13.051	13.603
ProbeTrackDT01	7	ProbeTrackDT01	10.3	SCS215a	20100519.164329	20100519.165833	8	0.013328	60	10	60-180	60	73	GapExp	0	134	3	1	0	target	0	747	-1000	-13623	13.328	13.293	13.363
ProbeTrackDT01	7	ProbeTrackDT01	10.3	SCS215a	20100519.164329	20100519.165838	8	0.013328	60	10	60-180	60	142	GapExp	0	135	3	75	1	target	1	480	760	-12863	13.328	13.289	13.389
ProbeTrackDT01	7	ProbeTrackDT01	10.3	SCS215a	20100519.164329	20100519.165845	8	0.013328	60	10	60-180	60	126	GapExp	0	136	3	75	0	distractor	1	827	587	-12276	13.328	13.293	13.363
ProbeTrackDT01	7	ProbeTrackDT01	10.3	SCS215a	20100519.164329	20100519.165852	8	0.013328	60	10	60-180	60	115	GapExp	0	137	3	75	0	target	0	1133	-1000	-13276	13.328	13.293	13.363
ProbeTrackDT01	7	ProbeTrackDT01	10.3	SCS215a	20100519.164329	20100519.165859	8	0.013328	60	10	60-180	60	103	GapExp	0	138	3	1	1	distractor	0	1658	-1000	-14276	13.328	13.020	13.600
ProbeTrackDT01	7	ProbeTrackDT01	10.3	SCS215a	20100519.164329	20100519.165905	8	0.013328	60	10	60-180	60	90	GapExp	0	139	3	0	1	distractor	0	1680	-1000	-15276	13.328	12.983	13.673
ProbeTrackDT01	7	ProbeTrackDT01	10.3	SCS215a	20100519.164329	20100519.165912	8	0.013328	60	10	60-180	60	109	GapExp	0	140	3	0	1	target	1	880	560	-14716	13.328	13.293	13.363
ProbeTrackDT01	7	ProbeTrackDT01	10.3	SCS215a	20100519.164329	20100519.165918	8	0.013328	60	10	60-180	60	169	GapExp	0	141	3	0	0	distractor	1	627	687	-14029	13.328	13.050	13.606
ProbeTrackDT01	7	ProbeTrackDT01	10.3	SCS215a	20100519.164329	20100519.165924	8	0.013328	60	10	60-180	60	92	GapExp	0	142	3	1	0	target	0	667	-1000	-15029	13.328	13.293	13.366
ProbeTrackDT01	7	ProbeTrackDT01	10.3	SCS215a	20100519.164329	20100519.165929	8	0.013328	60	10	60-180	60	148	GapExp	0	143	3	4	0	distractor	1	54	973	-14056	13.328	13.293	13.363
ProbeTrackDT01	7	ProbeTrackDT01	10.3	SCS215a	20100519.164329	20100519.165935	8	0.013328	60	10	60-180	60	178	GapExp	0	144	3	4	0	target	0	973	-1000	-15056	13.328	13.179	13.443
ProbeTrackDT01	7	ProbeTrackDT01	10.3	SCS215a	20100519.164329	20100519.165942	8	0.013328	60	10	60-180	60	100	GapExp	0	145	3	0	0	distractor	1	1160	420	-14636	13.328	13.293	13.391
ProbeTrackDT01	7	ProbeTrackDT01	10.3	SCS215a	20100519.164329	20100519.165948	8	0.013328	60	10	60-180	60	149	GapExp	0	146	3	1	0	target	0	640	-1000	-15636	13.328	13.293	13.363
ProbeTrackDT01	7	ProbeTrackDT01	10.3	SCS215a	20100519.164329	20100519.165954	8	0.013328	60	10	60-180	60	80	GapExp	0	147	3	4	1	distractor	0	54	-1000	-16636	13.328	13.293	13.363
ProbeTrackDT01	7	ProbeTrackDT01	10.3	SCS215a	20100519.164329	20100519.165958	8	0.013328	60	10	60-180	60	140	GapExp	0	148	3	4	0	distractor	1	694	653	-15983	13.328	13.289	13.363
ProbeTrackDT01	7	ProbeTrackDT01	10.3	SCS215a	20100519.164329	20100519.170004	8	0.013328	60	10	60-180	60	109	GapExp	0	149	3	1	0	distractor	1	1027	487	-15496	13.328	12.957	13.665
ProbeTrackDT01	7	ProbeTrackDT01	10.3	SCS215a	20100519.164329	20100519.170010	8	0.013328	60	10	60-180	60	113	GapExp	0	150	3	0	1	target	1	800	600	-14896	13.328	13.293	13.363
ProbeTrackDT01	7	ProbeTrackDT01	10.3	SCS215a	20100519.164329	20100519.170026	8	0.013328	60	10	60-180	60	99	GapExp	0	151	3	1	0	distractor	1	627	687	-14209	13.328	13.293	13.363
ProbeTrackDT01	7	ProbeTrackDT01	10.3	SCS215a	20100519.164329	20100519.170032	8	0.013328	60	10	60-180	60	120	GapExp	0	152	3	1	0	distractor	1	1080	460	-13749	13.328	13.293	13.362
ProbeTrackDT01	7	ProbeTrackDT01	10.3	SCS215a	20100519.164329	20100519.170038	8	0.013328	60	10	60-180	60	175	GapExp	0	153	3	0	0	distractor	1	880	560	-13189	13.328	13.196	13.427
ProbeTrackDT01	7	ProbeTrackDT01	10.3	SCS215a	20100519.164329	20100519.170045	8	0.013328	60	10	60-180	60	141	GapExp	0	154	3	75	1	distractor	0	720	-1000	-14189	13.328	13.241	13.381
ProbeTrackDT01	7	ProbeTrackDT01	10.3	SCS215a	20100519.164329	20100519.170052	8	0.013328	60	10	60-180	60	66	GapExp	0	155	3	2	1	target	1	747	627	-13562	13.328	13.293	13.363
ProbeTrackDT01	7	ProbeTrackDT01	10.3	SCS215a	20100519.164329	20100519.170057	8	0.013328	60	10	60-180	60	108	GapExp	0	156	3	1	0	target	0	1440	-1000	-14562	13.328	13.201	13.487
ProbeTrackDT01	7	ProbeTrackDT01	10.3	SCS215a	20100519.164329	20100519.170103	8	0.013328	60	10	60-180	60	62	GapExp	0	157	3	75	1	distractor	0	1973	-1000	-15562	13.328	13.293	13.363
ProbeTrackDT01	7	ProbeTrackDT01	10.3	SCS215a	20100519.164329	20100519.170110	8	0.013328	60	10	60-180	60	99	GapExp	0	158	3	75	1	target	1	640	680	-14882	13.328	13.084	13.571
ProbeTrackDT01	7	ProbeTrackDT01	10.3	SCS215a	20100519.164329	20100519.170116	8	0.013328	60	10	60-180	60	68	GapExp	0	159	3	1	0	distractor	1	1293	354	-14528	13.328	13.293	13.363
ProbeTrackDT01	7	ProbeTrackDT01	10.3	SCS215a	20100519.164329	20100519.170122	8	0.013328	60	10	60-180	60	68	GapExp	0	160	3	0	0	distractor	1	1226	387	-14141	13.328	13.292	13.363
ProbeTrackDT01	7	ProbeTrackDT01	10.3	SCS215a	20100519.164329	20100519.170128	8	0.013328	60	10	60-180	60	162	GapExp	0	161	3	0	0	target	0	214	-1000	-15141	13.328	13.293	13.363
ProbeTrackDT01	7	ProbeTrackDT01	10.3	SCS215a	20100519.164329	20100519.170133	8	0.013328	60	10	60-180	60	123	GapExp	0	162	3	75	0	distractor	1	627	687	-14454	13.328	13.278	13.378
ProbeTrackDT01	7	ProbeTrackDT01	10.3	SCS215a	20100519.164329	20100519.170140	8	0.013328	60	10	60-180	60	69	GapExp	0	163	3	1	1	target	1	827	587	-13867	13.328	13.293	13.363
ProbeTrackDT01	7	ProbeTrackDT01	10.3	SCS215a	20100519.164329	20100519.170145	8	0.013328	60	10	60-180	60	67	GapExp	0	164	3	75	1	distractor	0	853	-1000	-14867	13.328	13.125	13.530
ProbeTrackDT01	7	ProbeTrackDT01	10.3	SCS215a	20100519.164329	20100519.170151	8	0.013328	60	10	60-180	60	137	GapExp	0	165	3	2	1	target	1	827	587	-14280	13.328	13.293	13.363
ProbeTrackDT01	7	ProbeTrackDT01	10.3	SCS215a	20100519.164329	20100519.170158	8	0.013328	60	10	60-180	60	101	GapExp	0	166	3	4	0	distractor	1	1653	174	-14106	13.328	13.293	13.397
ProbeTrackDT01	7	ProbeTrackDT01	10.3	SCS215a	20100519.164329	20100519.170204	8	0.013328	60	10	60-180	60	83	GapExp	0	167	3	0	0	distractor	1	1466	267	-13839	13.328	13.293	13.363
ProbeTrackDT01	7	ProbeTrackDT01	10.3	SCS215a	20100519.164329	20100519.170210	8	0.013328	60	10	60-180	60	160	GapExp	0	168	3	75	0	distractor	1	613	694	-13145	13.328	13.167	13.489
ProbeTrackDT01	7	ProbeTrackDT01	10.3	SCS215a	20100519.164329	20100519.170217	8	0.013328	60	10	60-180	60	111	GapExp	0	169	3	75	0	target	0	587	-1000	-14145	13.328	13.265	13.389
ProbeTrackDT01	7	ProbeTrackDT01	10.3	SCS215a	20100519.164329	20100519.170224	8	0.013328	60	10	60-180	60	135	GapExp	0	170	3	1	1	target	1	507	747	-13398	13.328	13.267	13.363
ProbeTrackDT01	7	ProbeTrackDT01	10.3	SCS215a	20100519.164329	20100519.170229	8	0.013328	60	10	60-180	60	91	GapExp	0	171	3	1	1	distractor	0	347	-1000	-14398	13.328	13.293	13.366
ProbeTrackDT01	7	ProbeTrackDT01	10.3	SCS215a	20100519.164329	20100519.170234	8	0.013328	60	10	60-180	60	136	GapExp	0	172	3	0	1	target	1	2093	0	-14398	13.328	13.257	13.432
ProbeTrackDT01	7	ProbeTrackDT01	10.3	SCS215a	20100519.164329	20100519.170242	8	0.013328	60	10	60-180	60	94	GapExp	0	173	3	75	0	distractor	1	947	527	-13871	13.328	13.293	13.363
ProbeTrackDT01	7	ProbeTrackDT01	10.3	SCS215a	20100519.164329	20100519.170248	8	0.013328	60	10	60-180	60	123	GapExp	0	174	3	2	1	target	1	480	760	-13111	13.328	13.293	13.363
ProbeTrackDT01	7	ProbeTrackDT01	10.3	SCS215a	20100519.164329	20100519.170254	8	0.013328	60	10	60-180	60	114	GapExp	0	175	3	1	1	distractor	0	893	-1000	-14111	13.328	13.292	13.363
ProbeTrackDT01	7	ProbeTrackDT01	10.3	SCS215a	20100519.164329	20100519.170300	8	0.013328	60	10	60-180	60	130	GapExp	0	176	3	4	0	target	0	1546	-1000	-15111	13.328	13.293	13.363
ProbeTrackDT01	7	ProbeTrackDT01	10.3	SCS215a	20100519.164329	20100519.170307	8	0.013328	60	10	60-180	60	119	GapExp	0	177	3	0	0	distractor	1	1426	287	-14824	13.328	13.115	13.574
ProbeTrackDT01	7	ProbeTrackDT01	10.3	SCS215a	20100519.164329	20100519.170313	8	0.013328	60	10	60-180	60	89	GapExp	0	178	3	2	0	target	0	1453	-1000	-15824	13.328	13.175	13.480
ProbeTrackDT01	7	ProbeTrackDT01	10.3	SCS215a	20100519.164329	20100519.170319	8	0.013328	60	10	60-180	60	95	GapExp	0	179	3	0	0	target	0	480	-1000	-16824	13.328	13.236	13.454
ProbeTrackDT01	7	ProbeTrackDT01	10.3	SCS215a	20100519.164329	20100519.170324	8	0.013328	60	10	60-180	60	95	GapExp	0	180	3	75	0	target	0	600	-1000	-17824	13.328	13.233	13.388
ProbeTrackDT01	7	ProbeTrackDT01	10.3	SCS215a	20100519.164329	20100519.170331	8	0.013328	60	10	60-180	60	136	GapExp	0	181	3	75	0	target	0	893	-1000	-18824	13.328	13.289	13.363
ProbeTrackDT01	7	ProbeTrackDT01	10.3	SCS215a	20100519.164329	20100519.170338	8	0.013328	60	10	60-180	60	132	GapExp	0	182	3	2	0	distractor	1	653	674	-18150	13.328	13.288	13.366
ProbeTrackDT01	7	ProbeTrackDT01	10.3	SCS215a	20100519.164329	20100519.170344	8	0.013328	60	10	60-180	60	95	GapExp	0	183	3	75	1	target	1	1080	460	-17690	13.328	13.239	13.418
ProbeTrackDT01	7	ProbeTrackDT01	10.3	SCS215a	20100519.164329	20100519.170350	8	0.013328	60	10	60-180	60	151	GapExp	0	184	3	1	1	distractor	0	494	-1000	-18690	13.328	13.257	13.402
ProbeTrackDT01	7	ProbeTrackDT01	10.3	SCS215a	20100519.164329	20100519.170356	8	0.013328	60	10	60-180	60	174	GapExp	0	185	3	1	1	target	1	613	694	-17996	13.328	13.293	13.363
ProbeTrackDT01	7	ProbeTrackDT01	10.3	SCS215a	20100519.164329	20100519.170403	8	0.013328	60	10	60-180	60	100	GapExp	0	186	3	0	1	target	1	1280	360	-17636	13.328	13.293	13.363
ProbeTrackDT01	7	ProbeTrackDT01	10.3	SCS215a	20100519.164329	20100519.170409	8	0.013328	60	10	60-180	60	112	GapExp	0	187	3	0	1	target	1	1213	394	-17242	13.328	13.293	13.364
ProbeTrackDT01	7	ProbeTrackDT01	10.3	SCS215a	20100519.164329	20100519.170415	8	0.013328	60	10	60-180	60	130	GapExp	0	188	3	4	1	target	1	1200	400	-16842	13.328	13.049	13.607
ProbeTrackDT01	7	ProbeTrackDT01	10.3	SCS215a	20100519.164329	20100519.170421	8	0.013328	60	10	60-180	60	175	GapExp	0	189	3	75	1	target	1	1093	454	-16388	13.328	13.293	13.365
ProbeTrackDT01	7	ProbeTrackDT01	10.3	SCS215a	20100519.164329	20100519.170429	8	0.013328	60	10	60-180	60	120	GapExp	0	190	3	2	1	target	1	800	600	-15788	13.328	12.913	13.742
ProbeTrackDT01	7	ProbeTrackDT01	10.3	SCS215a	20100519.164329	20100519.170435	8	0.013328	60	10	60-180	60	135	GapExp	0	191	3	2	1	target	1	720	640	-15148	13.328	13.069	13.620
ProbeTrackDT01	7	ProbeTrackDT01	10.3	SCS215a	20100519.164329	20100519.170441	8	0.013328	60	10	60-180	60	144	GapExp	0	192	3	75	1	target	1	853	574	-14574	13.328	13.290	13.363
ProbeTrackDT01	7	ProbeTrackDT01	10.3	SCS215a	20100519.164329	20100519.170448	8	0.013328	60	10	60-180	60	74	GapExp	0	193	3	2	0	distractor	1	1080	460	-14114	13.328	13.293	13.362
ProbeTrackDT01	7	ProbeTrackDT01	10.3	SCS215a	20100519.164329	20100519.170454	8	0.013328	60	10	60-180	60	137	GapExp	0	194	3	2	1	target	1	1040	480	-13634	13.328	13.150	13.473
ProbeTrackDT01	7	ProbeTrackDT01	10.3	SCS215a	20100519.164329	20100519.170500	8	0.013328	60	10	60-180	60	138	GapExp	0	195	3	1	0	target	0	454	-1000	-14634	13.328	13.009	13.646
ProbeTrackDT01	7	ProbeTrackDT01	10.3	SCS215a	20100519.164329	20100519.170506	8	0.013328	60	10	60-180	60	90	GapExp	0	196	3	75	0	distractor	1	147	927	-13707	13.328	13.156	13.466
ProbeTrackDT01	7	ProbeTrackDT01	10.3	SCS215a	20100519.164329	20100519.170512	8	0.013328	60	10	60-180	60	141	GapExp	0	197	3	2	0	distractor	1	760	620	-13087	13.328	13.050	13.573
ProbeTrackDT01	7	ProbeTrackDT01	10.3	SCS215a	20100519.164329	20100519.170518	8	0.013328	60	10	60-180	60	158	GapExp	0	198	3	2	0	target	0	1453	-1000	-14087	13.328	13.135	13.555
ProbeTrackDT01	7	ProbeTrackDT01	10.3	SCS215a	20100519.164329	20100519.170525	8	0.013328	60	10	60-180	60	105	GapExp	0	199	3	75	0	target	0	840	-1000	-15087	13.328	13.082	13.574
ProbeTrackDT01	7	ProbeTrackDT01	10.3	SCS215a	20100519.164329	20100519.170531	8	0.013328	60	10	60-180	60	170	GapExp	0	200	3	1	1	target	1	747	627	-14460	13.328	13.161	13.479
ProbeTrackDT01	7	ProbeTrackDT01	10.3	SCS215a	20100519.164329	20100519.170547	8	0.013328	60	10	60-180	60	80	GapExp	0	201	3	0	0	target	0	760	-1000	-15460	13.328	13.293	13.362
ProbeTrackDT01	7	ProbeTrackDT01	10.3	SCS215a	20100519.164329	20100519.170552	8	0.013328	60	10	60-180	60	79	GapExp	0	202	3	4	1	distractor	0	840	-1000	-16460	13.328	13.136	13.520
ProbeTrackDT01	7	ProbeTrackDT01	10.3	SCS215a	20100519.164329	20100519.170557	8	0.013328	60	10	60-180	60	142	GapExp	0	203	3	4	1	target	1	-13	1007	-15453	13.328	13.184	13.472
ProbeTrackDT01	7	ProbeTrackDT01	10.3	SCS215a	20100519.164329	20100519.170603	8	0.013328	60	10	60-180	60	164	GapExp	0	204	3	2	0	target	0	1013	-1000	-16453	13.328	13.293	13.363
ProbeTrackDT01	7	ProbeTrackDT01	10.3	SCS215a	20100519.164329	20100519.170609	8	0.013328	60	10	60-180	60	140	GapExp	0	205	3	1	1	distractor	0	187	-1000	-17453	13.328	13.289	13.363
ProbeTrackDT01	7	ProbeTrackDT01	10.3	SCS215a	20100519.164329	20100519.170615	8	0.013328	60	10	60-180	60	62	GapExp	0	206	3	2	1	target	1	560	720	-16733	13.328	13.293	13.363
ProbeTrackDT01	7	ProbeTrackDT01	10.3	SCS215a	20100519.164329	20100519.170620	8	0.013328	60	10	60-180	60	145	GapExp	0	207	3	4	0	target	0	587	-1000	-17733	13.328	13.193	13.433
ProbeTrackDT01	7	ProbeTrackDT01	10.3	SCS215a	20100519.164329	20100519.170626	8	0.013328	60	10	60-180	60	96	GapExp	0	208	3	1	1	distractor	0	1453	-1000	-18733	13.328	13.164	13.492
ProbeTrackDT01	7	ProbeTrackDT01	10.3	SCS215a	20100519.164329	20100519.170632	8	0.013328	60	10	60-180	60	117	GapExp	0	209	3	4	0	distractor	1	867	567	-18166	13.328	13.059	13.597
ProbeTrackDT01	7	ProbeTrackDT01	10.3	SCS215a	20100519.164329	20100519.170638	8	0.013328	60	10	60-180	60	126	GapExp	0	210	3	2	1	target	1	347	827	-17339	13.328	13.144	13.545
