exp	sub	code	rev	comp	runtime	trialtime	nstim	refreshdur	cuedur	gapdur	gapOnsetRange	durPostProbe	gapOnsetTime	blocktype	prac	trial	ntargets	soa	probeTarget	resp	acc	rt	pts	tpts	meanFrameDur	minFrameDur	maxFrameDur
ProbeTrackDT01	23	ProbeTrack	10.4	SCS215a	20100714.100255	20100714.100309	8	0.013328	60	0	60-180	60	94	NoGap	1	1	2	2	0	distractor	1	1546	227	227	13.328	13.063	13.625
ProbeTrackDT01	23	ProbeTrack	10.4	SCS215a	20100714.100255	20100714.100315	8	0.013328	60	0	60-180	60	141	NoGap	1	2	2	0	1	83	-3	667	-1000	-773	13.328	13.039	13.616
ProbeTrackDT01	23	ProbeTrack	10.4	SCS215a	20100714.100255	20100714.100321	8	0.013328	60	0	60-180	60	170	NoGap	1	3	2	2	0	83	-3	587	-1000	-1773	13.328	13.007	13.682
ProbeTrackDT01	23	ProbeTrack	10.4	SCS215a	20100714.100255	20100714.100327	8	0.013328	60	0	60-180	60	114	NoGap	1	4	2	2	1	target	1	600	700	-1073	13.328	12.953	13.702
ProbeTrackDT01	23	ProbeTrack	10.4	SCS215a	20100714.100255	20100714.100333	8	0.013328	60	0	60-180	60	144	NoGap	1	5	2	75	0	distractor	1	480	760	-313	13.368	13.093	26.622
ProbeTrackDT01	23	ProbeTrack	10.4	SCS215a	20100714.100255	20100714.100339	8	0.013328	60	0	60-180	60	134	NoGap	1	6	2	4	1	target	1	400	800	487	13.328	13.151	13.538
ProbeTrackDT01	23	ProbeTrack	10.4	SCS215a	20100714.100255	20100714.100345	8	0.013328	60	0	60-180	60	136	NoGap	1	7	2	1	0	distractor	1	694	653	1140	13.328	13.293	13.363
ProbeTrackDT01	23	ProbeTrack	10.4	SCS215a	20100714.100255	20100714.100350	8	0.013328	60	0	60-180	60	70	NoGap	1	8	2	75	0	distractor	1	627	687	1827	13.328	13.199	13.426
ProbeTrackDT01	23	ProbeTrack	10.4	SCS215a	20100714.100255	20100714.100356	8	0.013328	60	0	60-180	60	68	NoGap	1	9	2	1	1	target	1	494	753	2580	13.400	13.099	26.620
ProbeTrackDT01	23	ProbeTrack	10.4	SCS215a	20100714.100255	20100714.100401	8	0.013328	60	0	60-180	60	62	NoGap	1	10	2	75	1	target	1	334	833	3413	13.328	12.961	13.695
ProbeTrackDT01	23	ProbeTrack	10.4	SCS215a	20100714.100255	20100714.100406	8	0.013328	60	0	60-180	60	126	NoGap	1	11	2	0	0	distractor	1	534	733	4146	13.328	13.120	13.536
ProbeTrackDT01	23	ProbeTrack	10.4	SCS215a	20100714.100255	20100714.100412	8	0.013328	60	0	60-180	60	170	NoGap	1	12	2	0	1	target	1	360	820	4966	13.328	13.221	13.470
ProbeTrackDT01	23	ProbeTrack	10.4	SCS215a	20100714.100255	20100714.100418	8	0.013328	60	0	60-180	60	90	NoGap	1	13	2	0	0	target	0	467	-1000	3966	13.328	13.166	13.463
ProbeTrackDT01	23	ProbeTrack	10.4	SCS215a	20100714.100255	20100714.100423	8	0.013328	60	0	60-180	60	140	NoGap	1	14	2	1	0	distractor	1	467	767	4733	13.328	13.262	13.428
ProbeTrackDT01	23	ProbeTrack	10.4	SCS215a	20100714.100255	20100714.100428	8	0.013328	60	0	60-180	60	64	NoGap	1	15	2	4	1	target	1	467	767	5500	13.402	13.285	26.655
ProbeTrackDT01	23	ProbeTrack	10.4	SCS215a	20100714.100255	20100714.100433	8	0.013328	60	0	60-180	60	82	NoGap	1	16	2	2	1	target	1	467	767	6267	13.328	12.866	13.789
ProbeTrackDT01	23	ProbeTrack	10.4	SCS215a	20100714.100255	20100714.100438	8	0.013328	60	0	60-180	60	133	NoGap	1	17	2	1	0	distractor	1	680	660	6927	13.328	13.199	13.489
ProbeTrackDT01	23	ProbeTrack	10.4	SCS215a	20100714.100255	20100714.100444	8	0.013328	60	0	60-180	60	115	NoGap	1	18	2	1	1	target	1	400	800	7727	13.328	13.177	13.511
ProbeTrackDT01	23	ProbeTrack	10.4	SCS215a	20100714.100255	20100714.100449	8	0.013328	60	0	60-180	60	162	NoGap	1	19	2	75	1	target	1	520	740	8467	13.328	13.292	13.363
ProbeTrackDT01	23	ProbeTrack	10.4	SCS215a	20100714.100255	20100714.100456	8	0.013328	60	0	60-180	60	114	NoGap	1	20	2	0	0	distractor	1	653	674	9141	13.328	12.845	13.776
ProbeTrackDT01	23	ProbeTrack	10.4	SCS215a	20100714.100255	20100714.100501	8	0.013328	60	0	60-180	60	124	NoGap	1	21	2	4	0	distractor	1	680	660	9801	13.328	13.059	13.563
ProbeTrackDT01	23	ProbeTrack	10.4	SCS215a	20100714.100255	20100714.100507	8	0.013328	60	0	60-180	60	133	NoGap	1	22	2	2	1	target	1	627	687	10488	13.328	13.293	13.363
ProbeTrackDT01	23	ProbeTrack	10.4	SCS215a	20100714.100255	20100714.100513	8	0.013328	60	0	60-180	60	73	NoGap	1	23	2	75	0	distractor	1	574	713	11201	13.328	13.142	13.547
ProbeTrackDT01	23	ProbeTrack	10.4	SCS215a	20100714.100255	20100714.100519	8	0.013328	60	0	60-180	60	109	NoGap	1	24	2	4	1	distractor	0	574	-1000	10201	13.328	13.159	13.498
ProbeTrackDT01	23	ProbeTrack	10.4	SCS215a	20100714.100255	20100714.100524	8	0.013328	60	0	60-180	60	170	NoGap	1	25	2	4	0	distractor	1	440	780	10981	13.375	13.093	26.872
ProbeTrackDT01	23	ProbeTrack	10.4	SCS215a	20100714.100255	20100714.100530	8	0.013328	60	0	60-180	60	173	NoGap	1	26	2	0	0	distractor	1	520	740	11721	13.328	13.175	13.481
ProbeTrackDT01	23	ProbeTrack	10.4	SCS215a	20100714.100255	20100714.100536	8	0.013328	60	0	60-180	60	65	NoGap	1	27	2	1	1	target	1	667	667	12388	13.535	13.280	39.744
ProbeTrackDT01	23	ProbeTrack	10.4	SCS215a	20100714.100255	20100714.100541	8	0.013328	60	0	60-180	60	104	NoGap	1	28	2	0	1	target	1	494	753	13141	13.328	13.293	13.363
ProbeTrackDT01	23	ProbeTrack	10.4	SCS215a	20100714.100255	20100714.100546	8	0.013328	60	0	60-180	60	162	NoGap	1	29	2	4	0	distractor	1	560	720	13861	13.328	13.165	13.490
ProbeTrackDT01	23	ProbeTrack	10.4	SCS215a	20100714.100255	20100714.100552	8	0.013328	60	0	60-180	60	166	NoGap	1	30	2	2	1	target	1	467	767	14628	13.328	13.183	13.505
ProbeTrackDT01	23	ProbeTrack	10.4	SCS215a	20100714.100255	20100714.100558	8	0.013328	60	0	60-180	60	156	NoGap	1	31	2	1	1	target	1	529	736	15364	13.572	12.967	79.787
ProbeTrackDT01	23	ProbeTrack	10.4	SCS215a	20100714.100255	20100714.100604	8	0.013328	60	0	60-180	60	94	NoGap	1	32	2	75	0	distractor	1	534	733	16097	13.328	13.178	13.478
ProbeTrackDT01	23	ProbeTrack	10.4	SCS215a	20100714.100255	20100714.100610	8	0.013328	60	0	60-180	60	64	NoGap	1	33	2	75	1	target	1	574	713	16810	13.328	13.289	13.363
ProbeTrackDT01	23	ProbeTrack	10.4	SCS215a	20100714.100255	20100714.100616	8	0.013328	60	0	60-180	60	163	NoGap	1	34	2	2	0	distractor	1	640	680	17490	14.569	13.106	173.229
ProbeTrackDT01	23	ProbeTrack	10.4	SCS215a	20100714.100255	20100714.100622	8	0.013328	60	0	60-180	60	169	NoGap	1	35	2	75	1	target	1	547	727	18217	13.328	13.140	13.518
ProbeTrackDT01	23	ProbeTrack	10.4	SCS215a	20100714.100255	20100714.100629	8	0.013328	60	0	60-180	60	171	NoGap	1	36	2	0	1	target	1	504	748	18965	13.328	13.103	13.570
ProbeTrackDT01	23	ProbeTrack	10.4	SCS215a	20100714.100255	20100714.100636	8	0.013328	60	0	60-180	60	73	NoGap	1	37	2	1	0	distractor	1	720	640	19605	13.328	13.241	13.446
ProbeTrackDT01	23	ProbeTrack	10.4	SCS215a	20100714.100255	20100714.100640	8	0.013328	60	0	60-180	60	127	NoGap	1	38	2	4	1	target	1	494	753	20358	13.328	13.024	13.632
ProbeTrackDT01	23	ProbeTrack	10.4	SCS215a	20100714.100255	20100714.100646	8	0.013328	60	0	60-180	60	66	NoGap	1	39	2	4	0	distractor	1	640	680	21038	13.328	13.282	13.388
ProbeTrackDT01	23	ProbeTrack	10.4	SCS215a	20100714.100255	20100714.100651	8	0.013328	60	0	60-180	60	135	NoGap	1	40	2	2	0	distractor	1	614	693	21731	13.328	13.265	13.388
ProbeTrackDT01	23	ProbeTrack	10.4	SCS215a	20100714.100736	20100714.100742	8	0.013328	60	10	60-180	60	152	GapPrac	1	1	2	2	0	distractor	1	1280	360	22091	13.372	13.239	26.654
ProbeTrackDT01	23	ProbeTrack	10.4	SCS215a	20100714.100736	20100714.100749	8	0.013328	60	10	60-180	60	119	GapPrac	1	2	2	1	0	target	0	947	-1000	21091	13.328	13.237	13.415
ProbeTrackDT01	23	ProbeTrack	10.4	SCS215a	20100714.100736	20100714.100755	8	0.013328	60	10	60-180	60	163	GapPrac	1	3	2	0	1	target	1	987	507	21598	13.328	13.290	13.363
ProbeTrackDT01	23	ProbeTrack	10.4	SCS215a	20100714.100736	20100714.100802	8	0.013328	60	10	60-180	60	90	GapPrac	1	4	2	4	0	distractor	1	853	574	22172	13.328	13.293	13.363
ProbeTrackDT01	23	ProbeTrack	10.4	SCS215a	20100714.100736	20100714.100807	8	0.013328	60	10	60-180	60	74	GapPrac	1	5	2	1	1	target	1	640	680	22852	13.328	13.148	13.509
ProbeTrackDT01	23	ProbeTrack	10.4	SCS215a	20100714.100736	20100714.100812	8	0.013328	60	10	60-180	60	135	GapPrac	1	6	2	4	1	target	1	440	780	23632	13.328	13.164	13.457
ProbeTrackDT01	23	ProbeTrack	10.4	SCS215a	20100714.100736	20100714.100818	8	0.013328	60	10	60-180	60	139	GapPrac	1	7	2	0	1	target	1	747	627	24259	13.328	13.091	13.563
ProbeTrackDT01	23	ProbeTrack	10.4	SCS215a	20100714.100736	20100714.100824	8	0.013328	60	10	60-180	60	96	GapPrac	1	8	2	0	0	distractor	1	534	733	24992	13.328	13.077	13.578
ProbeTrackDT01	23	ProbeTrack	10.4	SCS215a	20100714.100736	20100714.100829	8	0.013328	60	10	60-180	60	153	GapPrac	1	9	2	75	0	distractor	1	813	594	25586	13.328	13.122	13.533
ProbeTrackDT01	23	ProbeTrack	10.4	SCS215a	20100714.100736	20100714.100836	8	0.013328	60	10	60-180	60	108	GapPrac	1	10	2	4	1	target	1	520	740	26326	13.328	13.064	13.591
ProbeTrackDT01	23	ProbeTrack	10.4	SCS215a	20100714.100736	20100714.100842	8	0.013328	60	10	60-180	60	115	GapPrac	1	11	2	0	0	target	0	773	-1000	25326	13.328	12.876	13.813
ProbeTrackDT01	23	ProbeTrack	10.4	SCS215a	20100714.100736	20100714.100848	8	0.013328	60	10	60-180	60	168	GapPrac	1	12	2	2	1	target	1	587	707	26033	13.328	13.049	13.571
ProbeTrackDT01	23	ProbeTrack	10.4	SCS215a	20100714.100736	20100714.100854	8	0.013328	60	10	60-180	60	80	GapPrac	1	13	2	2	0	distractor	1	747	627	26660	13.328	13.116	13.539
ProbeTrackDT01	23	ProbeTrack	10.4	SCS215a	20100714.100736	20100714.100859	8	0.013328	60	10	60-180	60	152	GapPrac	1	14	2	1	0	distractor	1	947	527	27187	13.328	13.118	13.504
ProbeTrackDT01	23	ProbeTrack	10.4	SCS215a	20100714.100736	20100714.100905	8	0.013328	60	10	60-180	60	162	GapPrac	1	15	2	1	1	target	1	720	640	27827	13.328	13.038	13.617
ProbeTrackDT01	23	ProbeTrack	10.4	SCS215a	20100714.100736	20100714.100912	8	0.013328	60	10	60-180	60	102	GapPrac	1	16	2	75	1	distractor	0	813	-1000	26827	13.328	13.186	13.470
ProbeTrackDT01	23	ProbeTrack	10.4	SCS215a	20100714.100736	20100714.100918	8	0.013328	60	10	60-180	60	125	GapPrac	1	17	2	2	1	target	1	614	693	27520	13.328	12.994	13.662
ProbeTrackDT01	23	ProbeTrack	10.4	SCS215a	20100714.100736	20100714.100924	8	0.013328	60	10	60-180	60	108	GapPrac	1	18	2	75	1	distractor	0	827	-1000	26520	13.328	13.028	13.593
ProbeTrackDT01	23	ProbeTrack	10.4	SCS215a	20100714.100736	20100714.100931	8	0.013328	60	10	60-180	60	168	GapPrac	1	19	2	4	0	distractor	1	1100	450	26970	13.328	12.984	13.704
ProbeTrackDT01	23	ProbeTrack	10.4	SCS215a	20100714.100736	20100714.100937	8	0.013328	60	10	60-180	60	78	GapPrac	1	20	2	75	0	target	0	973	-1000	25970	13.328	13.263	13.425
ProbeTrackDT01	23	ProbeTrack	10.4	SCS215a	20100714.101309	20100714.101313	8	0.013328	60	10	60-180	60	170	GapPrac	1	1	2	0	0	target	0	720	-1000	24970	13.328	13.260	13.430
ProbeTrackDT01	23	ProbeTrack	10.4	SCS215a	20100714.101309	20100714.101320	8	0.013328	60	10	60-180	60	170	GapPrac	1	2	2	0	1	target	1	534	733	25703	13.328	13.159	13.463
ProbeTrackDT01	23	ProbeTrack	10.4	SCS215a	20100714.101309	20100714.101326	8	0.013328	60	10	60-180	60	100	GapPrac	1	3	2	2	0	distractor	1	374	813	26516	13.328	13.163	13.460
ProbeTrackDT01	23	ProbeTrack	10.4	SCS215a	20100714.101309	20100714.101331	8	0.013328	60	10	60-180	60	172	GapPrac	1	4	2	4	0	distractor	1	733	634	27150	13.370	13.130	26.693
ProbeTrackDT01	23	ProbeTrack	10.4	SCS215a	20100714.101309	20100714.101338	8	0.013328	60	10	60-180	60	136	GapPrac	1	5	2	0	1	target	1	760	620	27770	13.328	13.293	13.363
ProbeTrackDT01	23	ProbeTrack	10.4	SCS215a	20100714.101309	20100714.101344	8	0.013328	60	10	60-180	60	148	GapPrac	1	6	2	75	0	distractor	1	667	667	28437	13.365	12.961	26.734
ProbeTrackDT01	23	ProbeTrack	10.4	SCS215a	20100714.101309	20100714.101351	8	0.013328	60	10	60-180	60	128	GapPrac	1	7	2	1	0	target	0	507	-1000	27437	13.328	13.196	13.426
ProbeTrackDT01	23	ProbeTrack	10.4	SCS215a	20100714.101309	20100714.101356	8	0.013328	60	10	60-180	60	64	GapPrac	1	8	2	2	0	distractor	1	787	607	28044	13.328	13.293	13.366
ProbeTrackDT01	23	ProbeTrack	10.4	SCS215a	20100714.101309	20100714.101401	8	0.013328	60	10	60-180	60	179	GapPrac	1	9	2	2	1	distractor	0	680	-1000	27044	13.328	13.214	13.408
ProbeTrackDT01	23	ProbeTrack	10.4	SCS215a	20100714.101309	20100714.101408	8	0.013328	60	10	60-180	60	106	GapPrac	1	10	2	75	1	target	1	707	647	27691	13.328	13.084	13.539
ProbeTrackDT01	23	ProbeTrack	10.4	SCS215a	20100714.101309	20100714.101414	8	0.013328	60	10	60-180	60	176	GapPrac	1	11	2	4	1	distractor	0	520	-1000	26691	13.328	13.045	13.643
ProbeTrackDT01	23	ProbeTrack	10.4	SCS215a	20100714.101309	20100714.101421	8	0.013328	60	10	60-180	60	142	GapPrac	1	12	2	1	1	target	1	793	604	27295	13.328	12.918	13.739
ProbeTrackDT01	23	ProbeTrack	10.4	SCS215a	20100714.101309	20100714.101427	8	0.013328	60	10	60-180	60	68	GapPrac	1	13	2	75	0	distractor	1	960	520	27815	13.328	13.289	13.363
ProbeTrackDT01	23	ProbeTrack	10.4	SCS215a	20100714.101309	20100714.101433	8	0.013328	60	10	60-180	60	73	GapPrac	1	14	2	75	1	target	1	480	760	28575	13.328	13.219	13.470
ProbeTrackDT01	23	ProbeTrack	10.4	SCS215a	20100714.101309	20100714.101439	8	0.013328	60	10	60-180	60	134	GapPrac	1	15	2	0	0	distractor	1	1706	147	28722	13.328	12.837	13.785
ProbeTrackDT01	23	ProbeTrack	10.4	SCS215a	20100714.101309	20100714.101446	8	0.013328	60	10	60-180	60	113	GapPrac	1	16	2	2	1	target	1	2813	0	28722	13.430	13.001	40.023
ProbeTrackDT01	23	ProbeTrack	10.4	SCS215a	20100714.101309	20100714.101454	8	0.013328	60	10	60-180	60	168	GapPrac	1	17	2	1	0	distractor	1	440	780	29502	13.328	13.036	13.620
ProbeTrackDT01	23	ProbeTrack	10.4	SCS215a	20100714.101309	20100714.101500	8	0.013328	60	10	60-180	60	144	GapPrac	1	18	2	1	1	target	1	1960	20	29522	13.328	13.144	13.546
ProbeTrackDT01	23	ProbeTrack	10.4	SCS215a	20100714.101309	20100714.101507	8	0.013328	60	10	60-180	60	149	GapPrac	1	19	2	4	0	target	0	574	-1000	28522	13.328	13.157	13.519
ProbeTrackDT01	23	ProbeTrack	10.4	SCS215a	20100714.101309	20100714.101513	8	0.013328	60	10	60-180	60	118	GapPrac	1	20	2	4	1	distractor	0	640	-1000	27522	13.328	12.972	13.684
ProbeTrackDT01	23	ProbeTrack	10.4	SCS215a	20100714.101602	20100714.101607	8	0.013327	60	10	60-180	60	129	GapExp	1	1	2	75	0	distractor	1	760	620	28142	13.328	13.130	13.526
ProbeTrackDT01	23	ProbeTrack	10.4	SCS215a	20100714.101602	20100714.101614	8	0.013327	60	10	60-180	60	147	GapExp	1	2	2	2	1	distractor	0	2733	-1000	27142	13.328	13.148	13.540
ProbeTrackDT01	23	ProbeTrack	10.4	SCS215a	20100714.101602	20100714.101622	8	0.013327	60	10	60-180	60	69	GapExp	1	3	2	2	0	distractor	1	694	653	27795	13.328	13.293	13.363
ProbeTrackDT01	23	ProbeTrack	10.4	SCS215a	20100714.101602	20100714.101627	8	0.013327	60	10	60-180	60	106	GapExp	1	4	2	1	0	target	0	414	-1000	26795	13.387	12.989	26.994
ProbeTrackDT01	23	ProbeTrack	10.4	SCS215a	20100714.101602	20100714.101633	8	0.013327	60	10	60-180	60	121	GapExp	1	5	2	4	0	target	0	853	-1000	25795	13.328	13.144	13.478
ProbeTrackDT01	23	ProbeTrack	10.4	SCS215a	20100714.101602	20100714.101638	8	0.013327	60	10	60-180	60	123	GapExp	1	6	2	4	1	distractor	0	1040	-1000	24795	13.328	13.292	13.363
ProbeTrackDT01	23	ProbeTrack	10.4	SCS215a	20100714.101602	20100714.101645	8	0.013327	60	10	60-180	60	81	GapExp	1	7	2	0	0	distractor	1	773	614	25409	13.328	13.288	13.367
ProbeTrackDT01	23	ProbeTrack	10.4	SCS215a	20100714.101602	20100714.101650	8	0.013327	60	10	60-180	60	83	GapExp	1	8	2	1	1	target	1	960	520	25929	13.328	13.279	13.411
ProbeTrackDT01	23	ProbeTrack	10.4	SCS215a	20100714.101602	20100714.101655	8	0.013327	60	10	60-180	60	139	GapExp	1	9	2	75	1	distractor	0	627	-1000	24929	13.328	13.196	13.492
ProbeTrackDT01	23	ProbeTrack	10.4	SCS215a	20100714.101602	20100714.101702	8	0.013327	60	10	60-180	60	113	GapExp	1	10	2	0	1	target	1	400	800	25729	13.328	13.151	13.471
ProbeTrackDT01	23	ProbeTrack	10.4	SCS215a	20100714.101602	20100714.101707	8	0.013327	60	10	60-180	60	65	GapExp	0	11	2	0	0	distractor	1	2359	0	25729	13.328	13.117	13.572
ProbeTrackDT01	23	ProbeTrack	10.4	SCS215a	20100714.101602	20100714.101714	8	0.013327	60	10	60-180	60	65	GapExp	0	12	2	2	1	distractor	0	1280	-1000	24729	13.328	13.293	13.363
ProbeTrackDT01	23	ProbeTrack	10.4	SCS215a	20100714.101602	20100714.101720	8	0.013327	60	10	60-180	60	139	GapExp	0	13	2	0	1	target	1	-13	1007	25736	13.328	13.293	13.363
ProbeTrackDT01	23	ProbeTrack	10.4	SCS215a	20100714.101602	20100714.101725	8	0.013327	60	10	60-180	60	152	GapExp	0	14	2	1	0	distractor	1	867	567	26303	13.328	13.292	13.364
ProbeTrackDT01	23	ProbeTrack	10.4	SCS215a	20100714.101602	20100714.101731	8	0.013327	60	10	60-180	60	146	GapExp	0	15	2	75	1	target	1	947	527	26830	13.328	13.275	13.380
ProbeTrackDT01	23	ProbeTrack	10.4	SCS215a	20100714.101602	20100714.101739	8	0.013327	60	10	60-180	60	61	GapExp	0	16	2	1	0	distractor	1	1933	34	26864	13.328	13.229	13.460
ProbeTrackDT01	23	ProbeTrack	10.4	SCS215a	20100714.101602	20100714.101745	8	0.013327	60	10	60-180	60	176	GapExp	0	17	2	0	0	target	0	374	-1000	25864	13.328	13.182	13.472
ProbeTrackDT01	23	ProbeTrack	10.4	SCS215a	20100714.101602	20100714.101751	8	0.013327	60	10	60-180	60	86	GapExp	0	18	2	1	0	target	0	2613	-1000	24864	13.328	12.991	13.699
ProbeTrackDT01	23	ProbeTrack	10.4	SCS215a	20100714.101602	20100714.101758	8	0.013327	60	10	60-180	60	166	GapExp	0	19	2	4	0	distractor	1	747	627	25491	13.328	12.985	13.670
ProbeTrackDT01	23	ProbeTrack	10.4	SCS215a	20100714.101602	20100714.101804	8	0.013327	60	10	60-180	60	113	GapExp	0	20	2	75	1	target	1	653	674	26165	13.328	12.969	13.687
ProbeTrackDT01	23	ProbeTrack	10.4	SCS215a	20100714.101602	20100714.101811	8	0.013327	60	10	60-180	60	103	GapExp	0	21	2	1	0	distractor	1	739	631	26796	13.328	13.020	13.602
ProbeTrackDT01	23	ProbeTrack	10.4	SCS215a	20100714.101602	20100714.101816	8	0.013327	60	10	60-180	60	79	GapExp	0	22	2	0	1	target	1	707	647	27443	13.328	13.076	13.579
ProbeTrackDT01	23	ProbeTrack	10.4	SCS215a	20100714.101602	20100714.101821	8	0.013327	60	10	60-180	60	111	GapExp	0	23	2	0	0	target	0	747	-1000	26443	13.328	13.277	13.408
ProbeTrackDT01	23	ProbeTrack	10.4	SCS215a	20100714.101602	20100714.101827	8	0.013327	60	10	60-180	60	97	GapExp	0	24	2	2	0	target	0	867	-1000	25443	13.328	13.036	13.620
ProbeTrackDT01	23	ProbeTrack	10.4	SCS215a	20100714.101602	20100714.101833	8	0.013327	60	10	60-180	60	149	GapExp	0	25	2	0	0	distractor	1	520	740	26183	13.328	13.081	13.574
ProbeTrackDT01	23	ProbeTrack	10.4	SCS215a	20100714.101602	20100714.101839	8	0.013327	60	10	60-180	60	122	GapExp	0	26	2	1	0	target	0	853	-1000	25183	13.377	12.833	27.183
ProbeTrackDT01	23	ProbeTrack	10.4	SCS215a	20100714.101602	20100714.101844	8	0.013327	60	10	60-180	60	89	GapExp	0	27	2	75	0	target	0	1027	-1000	24183	13.328	13.081	13.606
ProbeTrackDT01	23	ProbeTrack	10.4	SCS215a	20100714.101602	20100714.101851	8	0.013327	60	10	60-180	60	118	GapExp	0	28	2	0	1	distractor	0	840	-1000	23183	13.328	13.293	13.374
ProbeTrackDT01	23	ProbeTrack	10.4	SCS215a	20100714.101602	20100714.101857	8	0.013327	60	10	60-180	60	61	GapExp	0	29	2	2	1	target	1	2173	0	23183	13.520	13.277	53.277
ProbeTrackDT01	23	ProbeTrack	10.4	SCS215a	20100714.101602	20100714.101903	8	0.013327	60	10	60-180	60	119	GapExp	0	30	2	2	1	target	1	587	707	23890	13.541	13.226	40.085
ProbeTrackDT01	23	ProbeTrack	10.4	SCS215a	20100714.101602	20100714.101909	8	0.013327	60	10	60-180	60	173	GapExp	0	31	2	75	1	distractor	0	1200	-1000	22890	13.395	12.809	40.535
ProbeTrackDT01	23	ProbeTrack	10.4	SCS215a	20100714.101602	20100714.101917	8	0.013327	60	10	60-180	60	119	GapExp	0	32	2	4	1	target	1	1666	167	23057	13.427	12.932	40.345
ProbeTrackDT01	23	ProbeTrack	10.4	SCS215a	20100714.101602	20100714.101924	8	0.013327	60	10	60-180	60	162	GapExp	0	33	2	2	1	target	1	1466	267	23324	13.500	13.293	39.465
ProbeTrackDT01	23	ProbeTrack	10.4	SCS215a	20100714.101602	20100714.101931	8	0.013327	60	10	60-180	60	180	GapExp	0	34	2	2	1	distractor	0	454	-1000	22324	13.328	12.918	13.737
ProbeTrackDT01	23	ProbeTrack	10.4	SCS215a	20100714.101602	20100714.101937	8	0.013327	60	10	60-180	60	77	GapExp	0	35	2	2	1	target	1	547	727	23051	13.328	13.292	13.363
ProbeTrackDT01	23	ProbeTrack	10.4	SCS215a	20100714.101602	20100714.101942	8	0.013327	60	10	60-180	60	93	GapExp	0	36	2	2	1	target	1	747	627	23678	13.328	13.226	13.430
ProbeTrackDT01	23	ProbeTrack	10.4	SCS215a	20100714.101602	20100714.101947	8	0.013327	60	10	60-180	60	73	GapExp	0	37	2	75	1	target	1	667	667	24345	13.328	13.061	13.562
ProbeTrackDT01	23	ProbeTrack	10.4	SCS215a	20100714.101602	20100714.101953	8	0.013327	60	10	60-180	60	118	GapExp	0	38	2	1	0	target	0	12049	-1000	23345	13.328	13.288	13.367
ProbeTrackDT01	23	ProbeTrack	10.4	SCS215a	20100714.101602	20100714.102010	8	0.013327	60	10	60-180	60	61	GapExp	0	39	2	4	0	target	0	1693	-1000	22345	13.328	13.014	13.642
ProbeTrackDT01	23	ProbeTrack	10.4	SCS215a	20100714.101602	20100714.102016	8	0.013327	60	10	60-180	60	121	GapExp	0	40	2	1	1	distractor	0	1862	-1000	21345	13.328	13.057	13.599
ProbeTrackDT01	23	ProbeTrack	10.4	SCS215a	20100714.101602	20100714.102023	8	0.013327	60	10	60-180	60	84	GapExp	0	41	2	4	0	target	0	853	-1000	20345	13.328	13.093	13.554
ProbeTrackDT01	23	ProbeTrack	10.4	SCS215a	20100714.101602	20100714.102029	8	0.013327	60	10	60-180	60	134	GapExp	0	42	2	75	0	distractor	1	640	680	21025	13.328	13.127	13.563
ProbeTrackDT01	23	ProbeTrack	10.4	SCS215a	20100714.101602	20100714.102035	8	0.013327	60	10	60-180	60	179	GapExp	0	43	2	2	1	target	1	1027	487	21512	13.369	13.095	26.688
ProbeTrackDT01	23	ProbeTrack	10.4	SCS215a	20100714.101602	20100714.102042	8	0.013327	60	10	60-180	60	98	GapExp	0	44	2	4	0	distractor	1	893	554	22066	13.328	13.240	13.450
ProbeTrackDT01	23	ProbeTrack	10.4	SCS215a	20100714.101602	20100714.102048	8	0.013327	60	10	60-180	60	80	GapExp	0	45	2	75	0	target	0	560	-1000	21066	13.328	13.230	13.425
ProbeTrackDT01	23	ProbeTrack	10.4	SCS215a	20100714.101602	20100714.102054	8	0.013327	60	10	60-180	60	146	GapExp	0	46	2	75	1	distractor	0	640	-1000	20066	13.328	13.124	13.564
ProbeTrackDT01	23	ProbeTrack	10.4	SCS215a	20100714.101602	20100714.102101	8	0.013327	60	10	60-180	60	147	GapExp	0	47	2	0	0	distractor	1	7491	0	20066	13.328	12.916	13.740
ProbeTrackDT01	23	ProbeTrack	10.4	SCS215a	20100714.101602	20100714.102114	8	0.013327	60	10	60-180	60	137	GapExp	0	48	2	1	1	target	1	1746	127	20193	13.328	13.254	13.435
ProbeTrackDT01	23	ProbeTrack	10.4	SCS215a	20100714.101602	20100714.102121	8	0.013327	60	10	60-180	60	113	GapExp	0	49	2	0	1	target	1	760	620	20813	13.328	13.293	13.363
ProbeTrackDT01	23	ProbeTrack	10.4	SCS215a	20100714.101602	20100714.102126	8	0.013327	60	10	60-180	60	113	GapExp	0	50	2	75	0	distractor	1	640	680	21493	13.328	13.094	13.528
ProbeTrackDT01	23	ProbeTrack	10.4	SCS215a	20100714.101602	20100714.102141	8	0.013327	60	10	60-180	60	96	GapExp	0	51	2	0	1	distractor	0	1440	-1000	20493	13.328	13.093	13.528
ProbeTrackDT01	23	ProbeTrack	10.4	SCS215a	20100714.101602	20100714.102147	8	0.013327	60	10	60-180	60	122	GapExp	0	52	2	2	0	distractor	1	827	587	21080	13.328	13.268	13.363
ProbeTrackDT01	23	ProbeTrack	10.4	SCS215a	20100714.101602	20100714.102153	8	0.013327	60	10	60-180	60	63	GapExp	0	53	2	0	0	target	0	693	-1000	20080	13.328	13.004	13.651
ProbeTrackDT01	23	ProbeTrack	10.4	SCS215a	20100714.101602	20100714.102158	8	0.013327	60	10	60-180	60	80	GapExp	0	54	2	4	0	distractor	1	973	514	20594	13.386	13.293	26.589
ProbeTrackDT01	23	ProbeTrack	10.4	SCS215a	20100714.101602	20100714.102203	8	0.013327	60	10	60-180	60	140	GapExp	0	55	2	4	0	target	0	973	-1000	19594	13.328	13.095	13.560
ProbeTrackDT01	23	ProbeTrack	10.4	SCS215a	20100714.101602	20100714.102210	8	0.013327	60	10	60-180	60	121	GapExp	0	56	2	2	0	distractor	1	2079	0	19594	13.328	13.233	13.422
ProbeTrackDT01	23	ProbeTrack	10.4	SCS215a	20100714.101602	20100714.102217	8	0.013327	60	10	60-180	60	93	GapExp	0	57	2	2	0	target	0	640	-1000	18594	13.328	13.218	13.403
ProbeTrackDT01	23	ProbeTrack	10.4	SCS215a	20100714.101602	20100714.102222	8	0.013327	60	10	60-180	60	180	GapExp	0	58	2	75	1	target	1	94	953	19547	13.519	12.993	53.639
ProbeTrackDT01	23	ProbeTrack	10.4	SCS215a	20100714.101602	20100714.102229	8	0.013327	60	10	60-180	60	91	GapExp	0	59	2	4	0	target	0	1333	-1000	18547	13.439	13.058	40.287
ProbeTrackDT01	23	ProbeTrack	10.4	SCS215a	20100714.101602	20100714.102235	8	0.013327	60	10	60-180	60	113	GapExp	0	60	2	75	0	distractor	1	1386	307	18854	13.328	12.968	13.721
ProbeTrackDT01	23	ProbeTrack	10.4	SCS215a	20100714.101602	20100714.102242	8	0.013327	60	10	60-180	60	70	GapExp	0	61	2	1	1	target	1	4105	0	18854	13.327	12.986	13.668
ProbeTrackDT01	23	ProbeTrack	10.4	SCS215a	20100714.101602	20100714.102251	8	0.013327	60	10	60-180	60	112	GapExp	0	62	2	2	1	distractor	0	454	-1000	17854	13.668	13.293	66.692
ProbeTrackDT01	23	ProbeTrack	10.4	SCS215a	20100714.101602	20100714.102256	8	0.013327	60	10	60-180	60	84	GapExp	0	63	2	0	1	target	1	947	527	18381	13.328	13.293	13.363
ProbeTrackDT01	23	ProbeTrack	10.4	SCS215a	20100714.101602	20100714.102302	8	0.013327	60	10	60-180	60	149	GapExp	0	64	2	75	1	target	1	440	780	19161	13.328	13.064	13.559
ProbeTrackDT01	23	ProbeTrack	10.4	SCS215a	20100714.101602	20100714.102309	8	0.013327	60	10	60-180	60	109	GapExp	0	65	2	4	1	target	1	3772	0	19161	13.328	13.143	13.546
ProbeTrackDT01	23	ProbeTrack	10.4	SCS215a	20100714.101602	20100714.102317	8	0.013327	60	10	60-180	60	93	GapExp	0	66	2	0	0	target	0	840	-1000	18161	13.384	13.145	26.688
ProbeTrackDT01	23	ProbeTrack	10.4	SCS215a	20100714.101602	20100714.102323	8	0.013327	60	10	60-180	60	113	GapExp	0	67	2	2	0	distractor	1	574	713	18874	13.328	13.116	13.539
ProbeTrackDT01	23	ProbeTrack	10.4	SCS215a	20100714.101602	20100714.102328	8	0.013327	60	10	60-180	60	66	GapExp	0	68	2	0	0	distractor	1	1173	414	19288	13.328	13.247	13.442
ProbeTrackDT01	23	ProbeTrack	10.4	SCS215a	20100714.101602	20100714.102334	8	0.013327	60	10	60-180	60	104	GapExp	0	69	2	0	0	target	0	1429	-1000	18288	13.328	13.292	13.363
ProbeTrackDT01	23	ProbeTrack	10.4	SCS215a	20100714.101602	20100714.102340	8	0.013327	60	10	60-180	60	109	GapExp	0	70	2	75	0	distractor	1	40	980	19268	13.328	13.114	13.576
ProbeTrackDT01	23	ProbeTrack	10.4	SCS215a	20100714.101602	20100714.102346	8	0.013327	60	10	60-180	60	117	GapExp	0	71	2	4	0	target	0	1826	-1000	18268	13.328	13.071	13.584
ProbeTrackDT01	23	ProbeTrack	10.4	SCS215a	20100714.101602	20100714.102353	8	0.013327	60	10	60-180	60	61	GapExp	0	72	2	75	0	distractor	1	680	660	18928	13.328	12.965	13.691
ProbeTrackDT01	23	ProbeTrack	10.4	SCS215a	20100714.101602	20100714.102359	8	0.013327	60	10	60-180	60	66	GapExp	0	73	2	4	1	target	1	3799	0	18928	13.328	13.198	13.491
ProbeTrackDT01	23	ProbeTrack	10.4	SCS215a	20100714.101602	20100714.102407	8	0.013327	60	10	60-180	60	120	GapExp	0	74	2	0	1	target	1	3652	0	18928	13.378	12.810	27.172
ProbeTrackDT01	23	ProbeTrack	10.4	SCS215a	20100714.101602	20100714.102415	8	0.013327	60	10	60-180	60	121	GapExp	0	75	2	1	0	target	0	1120	-1000	17928	13.328	13.015	13.640
ProbeTrackDT01	23	ProbeTrack	10.4	SCS215a	20100714.101602	20100714.102422	8	0.013327	60	10	60-180	60	68	GapExp	0	76	2	1	0	distractor	1	840	580	18508	13.328	13.293	13.363
ProbeTrackDT01	23	ProbeTrack	10.4	SCS215a	20100714.101602	20100714.102427	8	0.013327	60	10	60-180	60	131	GapExp	0	77	2	0	1	target	1	1773	114	18622	13.328	13.292	13.368
ProbeTrackDT01	23	ProbeTrack	10.4	SCS215a	20100714.101602	20100714.102434	8	0.013327	60	10	60-180	60	86	GapExp	0	78	2	75	1	target	1	2546	0	18622	13.328	13.220	13.402
ProbeTrackDT01	23	ProbeTrack	10.4	SCS215a	20100714.101602	20100714.102442	8	0.013327	60	10	60-180	60	175	GapExp	0	79	2	0	1	target	1	547	727	19349	13.328	13.146	13.509
ProbeTrackDT01	23	ProbeTrack	10.4	SCS215a	20100714.101602	20100714.102448	8	0.013327	60	10	60-180	60	94	GapExp	0	80	2	1	0	distractor	1	614	693	20042	13.328	13.226	13.429
ProbeTrackDT01	23	ProbeTrack	10.4	SCS215a	20100714.101602	20100714.102453	8	0.013327	60	10	60-180	60	126	GapExp	0	81	2	2	1	target	1	427	787	20829	13.382	13.292	26.656
ProbeTrackDT01	23	ProbeTrack	10.4	SCS215a	20100714.101602	20100714.102459	8	0.013327	60	10	60-180	60	161	GapExp	0	82	2	2	0	distractor	1	1706	147	20976	13.328	13.243	13.411
ProbeTrackDT01	23	ProbeTrack	10.4	SCS215a	20100714.101602	20100714.102506	8	0.013327	60	10	60-180	60	93	GapExp	0	83	2	4	0	target	0	2333	-1000	19976	13.328	13.111	13.544
ProbeTrackDT01	23	ProbeTrack	10.4	SCS215a	20100714.101602	20100714.102513	8	0.013327	60	10	60-180	60	98	GapExp	0	84	2	75	1	target	1	733	634	20610	13.328	13.200	13.422
ProbeTrackDT01	23	ProbeTrack	10.4	SCS215a	20100714.101602	20100714.102520	8	0.013327	60	10	60-180	60	127	GapExp	0	85	2	75	0	distractor	1	254	873	21483	13.328	12.964	13.693
ProbeTrackDT01	23	ProbeTrack	10.4	SCS215a	20100714.101602	20100714.102526	8	0.013327	60	10	60-180	60	61	GapExp	0	86	2	2	0	target	0	600	-1000	20483	13.328	13.264	13.390
ProbeTrackDT01	23	ProbeTrack	10.4	SCS215a	20100714.101602	20100714.102531	8	0.013327	60	10	60-180	60	145	GapExp	0	87	2	75	0	target	0	760	-1000	19483	13.328	13.125	13.530
ProbeTrackDT01	23	ProbeTrack	10.4	SCS215a	20100714.101602	20100714.102538	8	0.013327	60	10	60-180	60	77	GapExp	0	88	2	1	1	distractor	0	680	-1000	18483	13.328	12.925	13.732
ProbeTrackDT01	23	ProbeTrack	10.4	SCS215a	20100714.101602	20100714.102543	8	0.013327	60	10	60-180	60	163	GapExp	0	89	2	0	1	distractor	0	947	-1000	17483	13.328	13.114	13.542
ProbeTrackDT01	23	ProbeTrack	10.4	SCS215a	20100714.101602	20100714.102549	8	0.013327	60	10	60-180	60	160	GapExp	0	90	2	2	1	target	1	1440	280	17763	13.328	13.110	13.511
ProbeTrackDT01	23	ProbeTrack	10.4	SCS215a	20100714.101602	20100714.102556	8	0.013327	60	10	60-180	60	172	GapExp	0	91	2	2	0	target	0	760	-1000	16763	13.328	13.134	13.554
ProbeTrackDT01	23	ProbeTrack	10.4	SCS215a	20100714.101602	20100714.102603	8	0.013327	60	10	60-180	60	109	GapExp	0	92	2	0	1	distractor	0	560	-1000	15763	13.328	13.088	13.533
ProbeTrackDT01	23	ProbeTrack	10.4	SCS215a	20100714.101602	20100714.102608	8	0.013327	60	10	60-180	60	71	GapExp	0	93	2	2	0	distractor	1	667	667	16430	13.328	13.107	13.548
ProbeTrackDT01	23	ProbeTrack	10.4	SCS215a	20100714.101602	20100714.102613	8	0.013327	60	10	60-180	60	180	GapExp	0	94	2	75	1	target	1	640	680	17110	13.396	12.816	40.461
ProbeTrackDT01	23	ProbeTrack	10.4	SCS215a	20100714.101602	20100714.102621	8	0.013327	60	10	60-180	60	161	GapExp	0	95	2	75	1	target	1	1626	187	17297	13.328	13.290	13.365
ProbeTrackDT01	23	ProbeTrack	10.4	SCS215a	20100714.101602	20100714.102629	8	0.013327	60	10	60-180	60	100	GapExp	0	96	2	75	1	target	1	667	667	17964	13.328	13.104	13.551
ProbeTrackDT01	23	ProbeTrack	10.4	SCS215a	20100714.101602	20100714.102636	8	0.013327	60	10	60-180	60	128	GapExp	0	97	2	1	0	distractor	1	960	520	18484	13.328	13.129	13.493
ProbeTrackDT01	23	ProbeTrack	10.4	SCS215a	20100714.101602	20100714.102642	8	0.013327	60	10	60-180	60	164	GapExp	0	98	2	0	0	target	0	427	-1000	17484	13.328	13.128	13.523
ProbeTrackDT01	23	ProbeTrack	10.4	SCS215a	20100714.101602	20100714.102648	8	0.013327	60	10	60-180	60	166	GapExp	0	99	2	4	0	distractor	1	1853	74	17558	13.328	13.249	13.405
ProbeTrackDT01	23	ProbeTrack	10.4	SCS215a	20100714.101602	20100714.102655	8	0.013327	60	10	60-180	60	163	GapExp	0	100	2	75	1	distractor	0	680	-1000	16558	13.328	13.062	13.592
ProbeTrackDT01	23	ProbeTrack	10.4	SCS215a	20100714.101602	20100714.102716	8	0.013327	60	10	60-180	60	102	GapExp	0	101	2	75	1	distractor	0	1093	-1000	15558	13.328	13.293	13.363
ProbeTrackDT01	23	ProbeTrack	10.4	SCS215a	20100714.101602	20100714.102723	8	0.013327	60	10	60-180	60	167	GapExp	0	102	2	1	1	target	1	467	767	16325	13.328	13.293	13.368
ProbeTrackDT01	23	ProbeTrack	10.4	SCS215a	20100714.101602	20100714.102729	8	0.013327	60	10	60-180	60	170	GapExp	0	103	2	75	0	target	0	1107	-1000	15325	13.328	12.890	13.764
ProbeTrackDT01	23	ProbeTrack	10.4	SCS215a	20100714.101602	20100714.102737	8	0.013327	60	10	60-180	60	118	GapExp	0	104	2	4	1	target	1	853	574	15899	13.328	13.212	13.477
ProbeTrackDT01	23	ProbeTrack	10.4	SCS215a	20100714.101602	20100714.102742	8	0.013327	60	10	60-180	60	116	GapExp	0	105	2	0	1	target	1	853	574	16473	13.328	13.292	13.364
ProbeTrackDT01	23	ProbeTrack	10.4	SCS215a	20100714.101602	20100714.102748	8	0.013327	60	10	60-180	60	122	GapExp	0	106	2	2	1	target	1	1960	20	16493	13.328	13.020	13.636
ProbeTrackDT01	23	ProbeTrack	10.4	SCS215a	20100714.101602	20100714.102755	8	0.013327	60	10	60-180	60	169	GapExp	0	107	2	4	1	target	1	907	547	17040	13.328	13.099	13.557
ProbeTrackDT01	23	ProbeTrack	10.4	SCS215a	20100714.101602	20100714.102802	8	0.013327	60	10	60-180	60	89	GapExp	0	108	2	75	0	target	0	960	-1000	16040	13.328	13.108	13.547
ProbeTrackDT01	23	ProbeTrack	10.4	SCS215a	20100714.101602	20100714.102808	8	0.013327	60	10	60-180	60	119	GapExp	0	109	2	75	0	distractor	1	520	740	16780	13.328	13.173	13.482
ProbeTrackDT01	23	ProbeTrack	10.4	SCS215a	20100714.101602	20100714.102815	8	0.013327	60	10	60-180	60	170	GapExp	0	110	2	75	0	target	0	534	-1000	15780	13.364	13.243	26.505
ProbeTrackDT01	23	ProbeTrack	10.4	SCS215a	20100714.101602	20100714.102822	8	0.013327	60	10	60-180	60	95	GapExp	0	111	2	2	0	distractor	1	1560	220	16000	13.328	12.983	13.671
ProbeTrackDT01	23	ProbeTrack	10.4	SCS215a	20100714.101602	20100714.102828	8	0.013327	60	10	60-180	60	105	GapExp	0	112	2	2	1	target	1	547	727	16727	13.384	13.211	26.655
ProbeTrackDT01	23	ProbeTrack	10.4	SCS215a	20100714.101602	20100714.102834	8	0.013327	60	10	60-180	60	151	GapExp	0	113	2	0	0	distractor	1	1293	354	17081	13.373	13.260	26.655
ProbeTrackDT01	23	ProbeTrack	10.4	SCS215a	20100714.101602	20100714.102841	8	0.013327	60	10	60-180	60	158	GapExp	0	114	2	0	1	target	1	627	687	17768	13.328	13.036	13.620
ProbeTrackDT01	23	ProbeTrack	10.4	SCS215a	20100714.101602	20100714.102847	8	0.013327	60	10	60-180	60	74	GapExp	0	115	2	75	1	target	1	574	713	18481	13.471	13.064	53.328
ProbeTrackDT01	23	ProbeTrack	10.4	SCS215a	20100714.101602	20100714.102853	8	0.013327	60	10	60-180	60	76	GapExp	0	116	2	1	1	target	1	707	647	19128	13.326	13.060	13.363
ProbeTrackDT01	23	ProbeTrack	10.4	SCS215a	20100714.101602	20100714.102858	8	0.013327	60	10	60-180	60	69	GapExp	0	117	2	4	1	distractor	0	1573	-1000	18128	13.328	13.098	13.557
ProbeTrackDT01	23	ProbeTrack	10.4	SCS215a	20100714.101602	20100714.102904	8	0.013327	60	10	60-180	60	111	GapExp	0	118	2	0	1	target	1	1440	280	18408	13.328	13.113	13.542
ProbeTrackDT01	23	ProbeTrack	10.4	SCS215a	20100714.101602	20100714.102910	8	0.013327	60	10	60-180	60	171	GapExp	0	119	2	4	1	target	1	680	660	19068	13.328	13.239	13.450
ProbeTrackDT01	23	ProbeTrack	10.4	SCS215a	20100714.101602	20100714.102916	8	0.013327	60	10	60-180	60	96	GapExp	0	120	2	4	0	distractor	1	813	594	19662	13.328	13.032	13.606
ProbeTrackDT01	23	ProbeTrack	10.4	SCS215a	20100714.101602	20100714.102922	8	0.013327	60	10	60-180	60	116	GapExp	0	121	2	2	1	target	1	694	653	20315	13.328	13.184	13.472
ProbeTrackDT01	23	ProbeTrack	10.4	SCS215a	20100714.101602	20100714.102928	8	0.013327	60	10	60-180	60	152	GapExp	0	122	2	0	1	target	1	774	613	20928	13.373	13.293	26.513
ProbeTrackDT01	23	ProbeTrack	10.4	SCS215a	20100714.101602	20100714.102934	8	0.013327	60	10	60-180	60	76	GapExp	0	123	2	1	0	target	0	2613	-1000	19928	13.328	13.161	13.461
ProbeTrackDT01	23	ProbeTrack	10.4	SCS215a	20100714.101602	20100714.102941	8	0.013327	60	10	60-180	60	110	GapExp	0	124	2	75	0	distractor	1	707	647	20575	13.328	13.288	13.391
ProbeTrackDT01	23	ProbeTrack	10.4	SCS215a	20100714.101602	20100714.102948	8	0.013327	60	10	60-180	60	179	GapExp	0	125	2	0	0	target	0	1360	-1000	19575	13.328	13.290	13.366
ProbeTrackDT01	23	ProbeTrack	10.4	SCS215a	20100714.101602	20100714.102955	8	0.013327	60	10	60-180	60	97	GapExp	0	126	2	2	1	target	1	627	687	20262	13.328	13.250	13.406
ProbeTrackDT01	23	ProbeTrack	10.4	SCS215a	20100714.101602	20100714.103000	8	0.013327	60	10	60-180	60	108	GapExp	0	127	2	2	0	distractor	1	1000	500	20762	13.328	13.255	13.367
ProbeTrackDT01	23	ProbeTrack	10.4	SCS215a	20100714.101602	20100714.103006	8	0.013327	60	10	60-180	60	110	GapExp	0	128	2	2	0	distractor	1	800	600	21362	13.328	13.074	13.613
ProbeTrackDT01	23	ProbeTrack	10.4	SCS215a	20100714.101602	20100714.103012	8	0.013327	60	10	60-180	60	155	GapExp	0	129	2	75	0	target	0	2889	-1000	20362	13.328	12.932	13.723
ProbeTrackDT01	23	ProbeTrack	10.4	SCS215a	20100714.101602	20100714.103021	8	0.013327	60	10	60-180	60	105	GapExp	0	130	2	2	1	target	1	1360	320	20682	13.328	13.021	13.668
ProbeTrackDT01	23	ProbeTrack	10.4	SCS215a	20100714.101602	20100714.103027	8	0.013327	60	10	60-180	60	137	GapExp	0	131	2	4	0	distractor	1	1000	500	21182	13.328	13.170	13.486
ProbeTrackDT01	23	ProbeTrack	10.4	SCS215a	20100714.101602	20100714.103033	8	0.013327	60	10	60-180	60	135	GapExp	0	132	2	75	1	target	1	760	620	21802	13.328	12.946	13.709
ProbeTrackDT01	23	ProbeTrack	10.4	SCS215a	20100714.101602	20100714.103040	8	0.013327	60	10	60-180	60	64	GapExp	0	133	2	1	0	target	0	1533	-1000	20802	13.328	13.065	13.557
ProbeTrackDT01	23	ProbeTrack	10.4	SCS215a	20100714.101602	20100714.103046	8	0.013327	60	10	60-180	60	61	GapExp	0	134	2	4	1	distractor	0	1666	-1000	19802	13.328	12.942	13.712
ProbeTrackDT01	23	ProbeTrack	10.4	SCS215a	20100714.101602	20100714.103052	8	0.013327	60	10	60-180	60	77	GapExp	0	135	2	4	1	target	1	480	760	20562	13.328	13.070	13.586
ProbeTrackDT01	23	ProbeTrack	10.4	SCS215a	20100714.101602	20100714.103057	8	0.013327	60	10	60-180	60	101	GapExp	0	136	2	0	0	target	0	1080	-1000	19562	13.328	13.048	13.641
ProbeTrackDT01	23	ProbeTrack	10.4	SCS215a	20100714.101602	20100714.103103	8	0.013327	60	10	60-180	60	163	GapExp	0	137	2	1	0	target	0	534	-1000	18562	13.328	13.019	13.671
ProbeTrackDT01	23	ProbeTrack	10.4	SCS215a	20100714.101602	20100714.103109	8	0.013327	60	10	60-180	60	138	GapExp	0	138	2	4	0	distractor	1	654	673	19235	13.328	13.007	13.648
ProbeTrackDT01	23	ProbeTrack	10.4	SCS215a	20100714.101602	20100714.103115	8	0.013327	60	10	60-180	60	73	GapExp	0	139	2	1	0	distractor	1	853	574	19809	13.328	13.139	13.517
ProbeTrackDT01	23	ProbeTrack	10.4	SCS215a	20100714.101602	20100714.103120	8	0.013327	60	10	60-180	60	61	GapExp	0	140	2	1	1	target	1	1840	80	19889	13.328	13.004	13.652
ProbeTrackDT01	23	ProbeTrack	10.4	SCS215a	20100714.101602	20100714.103126	8	0.013327	60	10	60-180	60	63	GapExp	0	141	2	1	1	target	1	387	807	20696	13.328	13.123	13.530
ProbeTrackDT01	23	ProbeTrack	10.4	SCS215a	20100714.101602	20100714.103131	8	0.013327	60	10	60-180	60	96	GapExp	0	142	2	0	0	distractor	1	640	680	21376	13.328	13.203	13.453
ProbeTrackDT01	23	ProbeTrack	10.4	SCS215a	20100714.101602	20100714.103136	8	0.013327	60	10	60-180	60	112	GapExp	0	143	2	4	1	target	1	560	720	22096	13.328	12.906	13.750
ProbeTrackDT01	23	ProbeTrack	10.4	SCS215a	20100714.101602	20100714.103142	8	0.013327	60	10	60-180	60	98	GapExp	0	144	2	1	1	target	1	720	640	22736	13.328	13.205	13.450
ProbeTrackDT01	23	ProbeTrack	10.4	SCS215a	20100714.101602	20100714.103147	8	0.013327	60	10	60-180	60	67	GapExp	0	145	2	0	0	target	0	600	-1000	21736	13.328	13.065	13.590
ProbeTrackDT01	23	ProbeTrack	10.4	SCS215a	20100714.101602	20100714.103152	8	0.013327	60	10	60-180	60	177	GapExp	0	146	2	1	0	distractor	1	827	587	22323	13.328	13.165	13.491
ProbeTrackDT01	23	ProbeTrack	10.4	SCS215a	20100714.101602	20100714.103159	8	0.013327	60	10	60-180	60	142	GapExp	0	147	2	2	0	target	0	933	-1000	21323	13.328	13.090	13.566
ProbeTrackDT01	23	ProbeTrack	10.4	SCS215a	20100714.101602	20100714.103205	8	0.013327	60	10	60-180	60	94	GapExp	0	148	2	75	1	target	1	667	667	21990	13.328	12.954	13.736
ProbeTrackDT01	23	ProbeTrack	10.4	SCS215a	20100714.101602	20100714.103211	8	0.013327	60	10	60-180	60	144	GapExp	0	149	2	75	0	distractor	1	693	654	22644	13.328	12.984	13.704
ProbeTrackDT01	23	ProbeTrack	10.4	SCS215a	20100714.101602	20100714.103218	8	0.013327	60	10	60-180	60	155	GapExp	0	150	2	1	1	target	1	2266	0	22644	13.328	12.951	13.738
ProbeTrackDT01	23	ProbeTrack	10.4	SCS215a	20100714.101602	20100714.103236	8	0.013327	60	10	60-180	60	154	GapExp	0	151	2	1	1	target	1	1333	334	22978	13.328	13.122	13.500
ProbeTrackDT01	23	ProbeTrack	10.4	SCS215a	20100714.101602	20100714.103243	8	0.013327	60	10	60-180	60	110	GapExp	0	152	2	75	1	distractor	0	574	-1000	21978	13.370	13.057	26.925
ProbeTrackDT01	23	ProbeTrack	10.4	SCS215a	20100714.101602	20100714.103249	8	0.013327	60	10	60-180	60	99	GapExp	0	153	2	75	0	distractor	1	1160	420	22398	13.328	13.090	13.530
ProbeTrackDT01	23	ProbeTrack	10.4	SCS215a	20100714.101602	20100714.103256	8	0.013327	60	10	60-180	60	135	GapExp	0	154	2	0	1	distractor	0	773	-1000	21398	13.328	12.980	13.674
ProbeTrackDT01	23	ProbeTrack	10.4	SCS215a	20100714.101602	20100714.103302	8	0.013327	60	10	60-180	60	146	GapExp	0	155	2	4	1	target	1	507	747	22145	13.328	12.934	13.687
ProbeTrackDT01	23	ProbeTrack	10.4	SCS215a	20100714.101602	20100714.103308	8	0.013327	60	10	60-180	60	69	GapExp	0	156	2	4	0	distractor	1	627	687	22832	13.328	12.940	13.715
ProbeTrackDT01	23	ProbeTrack	10.4	SCS215a	20100714.101602	20100714.103313	8	0.013327	60	10	60-180	60	119	GapExp	0	157	2	4	0	target	0	1640	-1000	21832	13.328	13.208	13.448
ProbeTrackDT01	23	ProbeTrack	10.4	SCS215a	20100714.101602	20100714.103320	8	0.013327	60	10	60-180	60	170	GapExp	0	158	2	1	1	distractor	0	1986	-1000	20832	13.328	13.014	13.676
ProbeTrackDT01	23	ProbeTrack	10.4	SCS215a	20100714.101602	20100714.103327	8	0.013327	60	10	60-180	60	69	GapExp	0	159	2	1	1	target	1	414	793	21625	13.328	12.963	13.658
ProbeTrackDT01	23	ProbeTrack	10.4	SCS215a	20100714.101602	20100714.103332	8	0.013327	60	10	60-180	60	98	GapExp	0	160	2	0	1	target	1	920	540	22165	13.328	13.014	13.676
ProbeTrackDT01	23	ProbeTrack	10.4	SCS215a	20100714.101602	20100714.103338	8	0.013327	60	10	60-180	60	149	GapExp	0	161	2	0	0	distractor	1	707	647	22812	13.328	13.111	13.578
ProbeTrackDT01	23	ProbeTrack	10.4	SCS215a	20100714.101602	20100714.103344	8	0.013327	60	10	60-180	60	114	GapExp	0	162	2	1	1	target	1	760	620	23432	13.328	13.035	13.653
ProbeTrackDT01	23	ProbeTrack	10.4	SCS215a	20100714.101602	20100714.103349	8	0.013327	60	10	60-180	60	72	GapExp	0	163	2	2	1	target	1	600	700	24132	13.328	13.128	13.527
ProbeTrackDT01	23	ProbeTrack	10.4	SCS215a	20100714.101602	20100714.103354	8	0.013327	60	10	60-180	60	158	GapExp	0	164	2	4	1	target	1	2039	0	24132	13.328	13.006	13.679
ProbeTrackDT01	23	ProbeTrack	10.4	SCS215a	20100714.101602	20100714.103402	8	0.013327	60	10	60-180	60	102	GapExp	0	165	2	2	0	target	0	1200	-1000	23132	13.328	12.923	13.734
ProbeTrackDT01	23	ProbeTrack	10.4	SCS215a	20100714.101602	20100714.103408	8	0.013327	60	10	60-180	60	87	GapExp	0	166	2	0	0	target	0	1466	-1000	22132	13.328	13.095	13.561
ProbeTrackDT01	23	ProbeTrack	10.4	SCS215a	20100714.101602	20100714.103414	8	0.013327	60	10	60-180	60	80	GapExp	0	167	2	75	0	distractor	1	680	660	22792	13.328	13.127	13.530
ProbeTrackDT01	23	ProbeTrack	10.4	SCS215a	20100714.101602	20100714.103420	8	0.013327	60	10	60-180	60	79	GapExp	0	168	2	0	0	target	0	654	-1000	21792	13.328	13.029	13.592
ProbeTrackDT01	23	ProbeTrack	10.4	SCS215a	20100714.101602	20100714.103425	8	0.013327	60	10	60-180	60	71	GapExp	0	169	2	4	1	target	1	1133	434	22226	13.328	13.158	13.497
ProbeTrackDT01	23	ProbeTrack	10.4	SCS215a	20100714.101602	20100714.103431	8	0.013327	60	10	60-180	60	69	GapExp	0	170	2	1	0	distractor	1	560	720	22946	13.328	12.945	13.710
ProbeTrackDT01	23	ProbeTrack	10.4	SCS215a	20100714.101602	20100714.103436	8	0.013327	60	10	60-180	60	117	GapExp	0	171	2	4	1	target	1	520	740	23686	13.328	12.948	13.674
ProbeTrackDT01	23	ProbeTrack	10.4	SCS215a	20100714.101602	20100714.103441	8	0.013327	60	10	60-180	60	137	GapExp	0	172	2	1	0	distractor	1	1253	374	24060	13.328	8.402	18.287
ProbeTrackDT01	23	ProbeTrack	10.4	SCS215a	20100714.101602	20100714.103448	8	0.013327	60	10	60-180	60	164	GapExp	0	173	2	0	0	distractor	1	680	660	24720	13.328	13.183	13.495
ProbeTrackDT01	23	ProbeTrack	10.4	SCS215a	20100714.101602	20100714.103454	8	0.013327	60	10	60-180	60	166	GapExp	0	174	2	1	1	target	1	1613	194	24914	13.370	13.088	26.497
ProbeTrackDT01	23	ProbeTrack	10.4	SCS215a	20100714.101602	20100714.103501	8	0.013327	60	10	60-180	60	170	GapExp	0	175	2	4	1	target	1	760	620	25534	13.328	13.123	13.566
ProbeTrackDT01	23	ProbeTrack	10.4	SCS215a	20100714.101602	20100714.103508	8	0.013327	60	10	60-180	60	176	GapExp	0	176	2	4	0	distractor	1	667	667	26201	13.328	13.047	13.641
ProbeTrackDT01	23	ProbeTrack	10.4	SCS215a	20100714.101602	20100714.103514	8	0.013327	60	10	60-180	60	169	GapExp	0	177	2	4	1	target	1	587	707	26908	13.328	13.231	13.458
ProbeTrackDT01	23	ProbeTrack	10.4	SCS215a	20100714.101602	20100714.103520	8	0.013327	60	10	60-180	60	128	GapExp	0	178	2	2	0	target	0	1733	-1000	25908	13.328	13.210	13.445
ProbeTrackDT01	23	ProbeTrack	10.4	SCS215a	20100714.101602	20100714.103527	8	0.013327	60	10	60-180	60	80	GapExp	0	179	2	2	0	distractor	1	827	587	26495	13.328	13.292	13.364
ProbeTrackDT01	23	ProbeTrack	10.4	SCS215a	20100714.101602	20100714.103533	8	0.013327	60	10	60-180	60	108	GapExp	0	180	2	1	0	target	0	1706	-1000	25495	13.328	13.107	13.547
ProbeTrackDT01	23	ProbeTrack	10.4	SCS215a	20100714.101602	20100714.103539	8	0.013327	60	10	60-180	60	75	GapExp	0	181	2	2	0	target	0	520	-1000	24495	13.328	13.094	13.561
ProbeTrackDT01	23	ProbeTrack	10.4	SCS215a	20100714.101602	20100714.103544	8	0.013327	60	10	60-180	60	71	GapExp	0	182	2	1	1	distractor	0	627	-1000	23495	13.328	13.105	13.586
ProbeTrackDT01	23	ProbeTrack	10.4	SCS215a	20100714.101602	20100714.103549	8	0.013327	60	10	60-180	60	76	GapExp	0	183	2	1	1	target	1	494	753	24248	13.328	13.024	13.665
ProbeTrackDT01	23	ProbeTrack	10.4	SCS215a	20100714.101602	20100714.103554	8	0.013327	60	10	60-180	60	109	GapExp	0	184	2	1	1	target	1	560	720	24968	13.328	13.094	13.562
ProbeTrackDT01	23	ProbeTrack	10.4	SCS215a	20100714.101602	20100714.103559	8	0.013327	60	10	60-180	60	75	GapExp	0	185	2	0	1	target	1	800	600	25568	13.328	13.293	13.363
ProbeTrackDT01	23	ProbeTrack	10.4	SCS215a	20100714.101602	20100714.103605	8	0.013327	60	10	60-180	60	67	GapExp	0	186	2	4	0	target	0	1520	-1000	24568	13.328	13.099	13.555
ProbeTrackDT01	23	ProbeTrack	10.4	SCS215a	20100714.101602	20100714.103610	8	0.013327	60	10	60-180	60	134	GapExp	0	187	2	2	1	target	1	1013	494	25062	13.328	13.135	13.521
ProbeTrackDT01	23	ProbeTrack	10.4	SCS215a	20100714.101602	20100714.103617	8	0.013327	60	10	60-180	60	96	GapExp	0	188	2	0	0	distractor	1	560	720	25782	13.328	13.115	13.506
ProbeTrackDT01	23	ProbeTrack	10.4	SCS215a	20100714.101602	20100714.103622	8	0.013327	60	10	60-180	60	170	GapExp	0	189	2	2	0	distractor	1	680	660	26442	13.328	13.170	13.486
ProbeTrackDT01	23	ProbeTrack	10.4	SCS215a	20100714.101602	20100714.103628	8	0.013327	60	10	60-180	60	104	GapExp	0	190	2	1	1	target	1	1466	267	26709	13.328	13.291	13.363
ProbeTrackDT01	23	ProbeTrack	10.4	SCS215a	20100714.101602	20100714.103635	8	0.013327	60	10	60-180	60	103	GapExp	0	191	2	4	0	target	0	1520	-1000	25709	13.328	12.984	13.670
ProbeTrackDT01	23	ProbeTrack	10.4	SCS215a	20100714.101602	20100714.103641	8	0.013327	60	10	60-180	60	169	GapExp	0	192	2	1	0	distractor	1	667	667	26376	13.328	13.070	13.620
ProbeTrackDT01	23	ProbeTrack	10.4	SCS215a	20100714.101602	20100714.103647	8	0.013327	60	10	60-180	60	114	GapExp	0	193	2	2	0	target	0	1506	-1000	25376	13.328	13.293	13.364
ProbeTrackDT01	23	ProbeTrack	10.4	SCS215a	20100714.101602	20100714.103654	8	0.013327	60	10	60-180	60	131	GapExp	0	194	2	1	0	target	0	534	-1000	24376	13.328	12.930	13.691
ProbeTrackDT01	23	ProbeTrack	10.4	SCS215a	20100714.101602	20100714.103659	8	0.013327	60	10	60-180	60	154	GapExp	0	195	2	2	0	distractor	1	614	693	25069	13.328	12.978	13.711
ProbeTrackDT01	23	ProbeTrack	10.4	SCS215a	20100714.101602	20100714.103706	8	0.013327	60	10	60-180	60	104	GapExp	0	196	2	2	1	target	1	1573	214	25283	13.328	13.003	13.653
ProbeTrackDT01	23	ProbeTrack	10.4	SCS215a	20100714.101602	20100714.103712	8	0.013327	60	10	60-180	60	148	GapExp	0	197	2	2	1	target	1	600	700	25983	13.328	13.232	13.458
ProbeTrackDT01	23	ProbeTrack	10.4	SCS215a	20100714.101602	20100714.103718	8	0.013327	60	10	60-180	60	89	GapExp	0	198	2	75	0	target	0	1560	-1000	24983	13.328	13.293	13.363
ProbeTrackDT01	23	ProbeTrack	10.4	SCS215a	20100714.101602	20100714.103725	8	0.013327	60	10	60-180	60	71	GapExp	0	199	2	4	0	target	0	1946	-1000	23983	13.328	13.250	13.371
ProbeTrackDT01	23	ProbeTrack	10.4	SCS215a	20100714.101602	20100714.103731	8	0.013327	60	10	60-180	60	84	GapExp	0	200	2	4	1	target	1	1133	434	24417	13.328	13.284	13.405
ProbeTrackDT01	23	ProbeTrack	10.4	SCS215a	20100714.101602	20100714.103744	8	0.013327	60	10	60-180	60	118	GapExp	0	201	2	4	1	target	1	693	654	25071	13.328	12.978	13.712
ProbeTrackDT01	23	ProbeTrack	10.4	SCS215a	20100714.101602	20100714.103749	8	0.013327	60	10	60-180	60	138	GapExp	0	202	2	0	1	target	1	654	673	25744	13.328	13.032	13.624
ProbeTrackDT01	23	ProbeTrack	10.4	SCS215a	20100714.101602	20100714.103755	8	0.013327	60	10	60-180	60	98	GapExp	0	203	2	4	1	target	1	1640	180	25924	13.328	13.078	13.579
ProbeTrackDT01	23	ProbeTrack	10.4	SCS215a	20100714.101602	20100714.103802	8	0.013327	60	10	60-180	60	128	GapExp	0	204	2	4	1	target	1	480	760	26684	13.328	13.258	13.398
ProbeTrackDT01	23	ProbeTrack	10.4	SCS215a	20100714.101602	20100714.103807	8	0.013327	60	10	60-180	60	149	GapExp	0	205	2	75	1	target	1	1453	274	26958	13.328	13.121	13.534
ProbeTrackDT01	23	ProbeTrack	10.4	SCS215a	20100714.101602	20100714.103815	8	0.013327	60	10	60-180	60	93	GapExp	0	206	2	1	1	target	1	1533	234	27192	13.328	13.293	13.363
ProbeTrackDT01	23	ProbeTrack	10.4	SCS215a	20100714.101602	20100714.103821	8	0.013327	60	10	60-180	60	106	GapExp	0	207	2	75	0	distractor	1	640	680	27872	13.328	13.131	13.524
ProbeTrackDT01	23	ProbeTrack	10.4	SCS215a	20100714.101602	20100714.103828	8	0.013327	60	10	60-180	60	128	GapExp	0	208	2	0	1	target	1	1506	247	28119	13.328	13.205	13.450
ProbeTrackDT01	23	ProbeTrack	10.4	SCS215a	20100714.101602	20100714.103834	8	0.013327	60	10	60-180	60	95	GapExp	0	209	2	4	0	target	0	2333	-1000	27119	13.328	13.180	13.441
ProbeTrackDT01	23	ProbeTrack	10.4	SCS215a	20100714.101602	20100714.103841	8	0.013327	60	10	60-180	60	175	GapExp	0	210	2	75	1	distractor	0	1333	-1000	26119	13.328	13.202	13.488
