exp	sub	code	rev	comp	runtime	trialtime	nstim	refreshdur	cuedur	gapdur	gapOnsetRange	durPostProbe	gapOnsetTime	blocktype	prac	trial	ntargets	soa	probeTarget	resp	acc	rt	pts	tpts	meanFrameDur	minFrameDur	maxFrameDur
ProbeTrackDT01	25	ProbeTrack	10.4	SCS215a	20100714.125939	20100714.125953	8	0.013327	60	0	60-180	60	78	NoGap	1	1	2	0	0	distractor	1	1187	407	407	13.328	13.293	13.363
ProbeTrackDT01	25	ProbeTrack	10.4	SCS215a	20100714.125939	20100714.125958	8	0.013327	60	0	60-180	60	150	NoGap	1	2	2	2	1	target	1	520	740	1147	13.328	13.222	13.468
ProbeTrackDT01	25	ProbeTrack	10.4	SCS215a	20100714.125939	20100714.130004	8	0.013327	60	0	60-180	60	178	NoGap	1	3	2	2	0	distractor	1	374	813	1960	13.328	13.224	13.431
ProbeTrackDT01	25	ProbeTrack	10.4	SCS215a	20100714.125939	20100714.130010	8	0.013327	60	0	60-180	60	103	NoGap	1	4	2	2	0	distractor	1	933	534	2494	13.328	13.292	13.363
ProbeTrackDT01	25	ProbeTrack	10.4	SCS215a	20100714.125939	20100714.130016	8	0.013327	60	0	60-180	60	63	NoGap	1	5	2	75	1	target	1	374	813	3307	13.328	13.293	13.363
ProbeTrackDT01	25	ProbeTrack	10.4	SCS215a	20100714.125939	20100714.130021	8	0.013327	60	0	60-180	60	146	NoGap	1	6	2	1	1	target	1	507	747	4054	13.328	13.292	13.367
ProbeTrackDT01	25	ProbeTrack	10.4	SCS215a	20100714.125939	20100714.130027	8	0.013327	60	0	60-180	60	127	NoGap	1	7	2	4	1	target	1	774	613	4667	13.328	13.185	13.504
ProbeTrackDT01	25	ProbeTrack	10.4	SCS215a	20100714.125939	20100714.130033	8	0.013327	60	0	60-180	60	145	NoGap	1	8	2	2	1	target	1	467	767	5434	13.328	13.169	13.452
ProbeTrackDT01	25	ProbeTrack	10.4	SCS215a	20100714.125939	20100714.130038	8	0.013327	60	0	60-180	60	175	NoGap	1	9	2	75	0	distractor	1	574	713	6147	13.544	12.848	53.483
ProbeTrackDT01	25	ProbeTrack	10.4	SCS215a	20100714.125939	20100714.130046	8	0.013327	60	0	60-180	60	141	NoGap	1	10	2	2	1	target	1	600	700	6847	13.328	13.118	13.539
ProbeTrackDT01	25	ProbeTrack	10.4	SCS215a	20100714.125939	20100714.130051	8	0.013327	60	0	60-180	60	106	NoGap	1	11	2	0	1	target	1	360	820	7667	13.328	13.187	13.469
ProbeTrackDT01	25	ProbeTrack	10.4	SCS215a	20100714.125939	20100714.130057	8	0.013327	60	0	60-180	60	131	NoGap	1	12	2	1	1	distractor	0	744	-1000	6667	14.660	13.225	133.276
ProbeTrackDT01	25	ProbeTrack	10.4	SCS215a	20100714.125939	20100714.130102	8	0.013327	60	0	60-180	60	168	NoGap	1	13	2	4	1	target	1	454	773	7440	13.328	13.209	13.426
ProbeTrackDT01	25	ProbeTrack	10.4	SCS215a	20100714.125939	20100714.130108	8	0.013327	60	0	60-180	60	159	NoGap	1	14	2	4	0	distractor	1	520	740	8180	13.376	13.261	26.342
ProbeTrackDT01	25	ProbeTrack	10.4	SCS215a	20100714.125939	20100714.130114	8	0.013327	60	0	60-180	60	75	NoGap	1	15	2	0	1	target	1	640	680	8860	13.395	13.000	26.689
ProbeTrackDT01	25	ProbeTrack	10.4	SCS215a	20100714.125939	20100714.130119	8	0.013327	60	0	60-180	60	168	NoGap	1	16	2	75	1	target	1	387	807	9667	13.328	12.954	13.735
ProbeTrackDT01	25	ProbeTrack	10.4	SCS215a	20100714.125939	20100714.130126	8	0.013327	60	0	60-180	60	140	NoGap	1	17	2	2	1	target	1	427	787	10454	13.328	13.199	13.455
ProbeTrackDT01	25	ProbeTrack	10.4	SCS215a	20100714.125939	20100714.130132	8	0.013327	60	0	60-180	60	131	NoGap	1	18	2	1	0	distractor	1	454	773	11227	13.328	13.273	13.418
ProbeTrackDT01	25	ProbeTrack	10.4	SCS215a	20100714.125939	20100714.130137	8	0.013327	60	0	60-180	60	162	NoGap	1	19	2	75	0	target	0	667	-1000	10227	13.328	12.991	13.664
ProbeTrackDT01	25	ProbeTrack	10.4	SCS215a	20100714.125939	20100714.130144	8	0.013327	60	0	60-180	60	71	NoGap	1	20	2	2	0	distractor	1	751	625	10852	13.328	13.125	13.529
ProbeTrackDT01	25	ProbeTrack	10.4	SCS215a	20100714.125939	20100714.130149	8	0.013327	60	0	60-180	60	106	NoGap	1	21	2	4	1	target	1	414	793	11645	13.328	13.246	13.444
ProbeTrackDT01	25	ProbeTrack	10.4	SCS215a	20100714.125939	20100714.130155	8	0.013327	60	0	60-180	60	127	NoGap	1	22	2	2	0	distractor	1	547	727	12372	13.328	13.292	13.364
ProbeTrackDT01	25	ProbeTrack	10.4	SCS215a	20100714.125939	20100714.130200	8	0.013327	60	0	60-180	60	69	NoGap	1	23	2	75	1	target	1	653	674	13046	13.328	13.053	13.603
ProbeTrackDT01	25	ProbeTrack	10.4	SCS215a	20100714.125939	20100714.130206	8	0.013327	60	0	60-180	60	180	NoGap	1	24	2	4	0	distractor	1	560	720	13766	13.328	13.040	13.581
ProbeTrackDT01	25	ProbeTrack	10.4	SCS215a	20100714.125939	20100714.130212	8	0.013327	60	0	60-180	60	160	NoGap	1	25	2	0	0	distractor	1	574	713	14479	13.328	12.900	13.721
ProbeTrackDT01	25	ProbeTrack	10.4	SCS215a	20100714.125939	20100714.130218	8	0.013327	60	0	60-180	60	138	NoGap	1	26	2	75	1	target	1	440	780	15259	13.328	13.293	13.363
ProbeTrackDT01	25	ProbeTrack	10.4	SCS215a	20100714.125939	20100714.130225	8	0.013327	60	0	60-180	60	113	NoGap	1	27	2	4	0	distractor	1	560	720	15979	13.328	13.186	13.484
ProbeTrackDT01	25	ProbeTrack	10.4	SCS215a	20100714.125939	20100714.130230	8	0.013327	60	0	60-180	60	150	NoGap	1	28	2	75	0	distractor	1	454	773	16752	13.328	13.234	13.421
ProbeTrackDT01	25	ProbeTrack	10.4	SCS215a	20100714.125939	20100714.130237	8	0.013327	60	0	60-180	60	146	NoGap	1	29	2	0	1	target	1	520	740	17492	13.328	13.292	13.367
ProbeTrackDT01	25	ProbeTrack	10.4	SCS215a	20100714.125939	20100714.130243	8	0.013327	60	0	60-180	60	177	NoGap	1	30	2	1	0	distractor	1	454	773	18265	13.328	13.086	13.536
ProbeTrackDT01	25	ProbeTrack	10.4	SCS215a	20100714.125939	20100714.130249	8	0.013327	60	0	60-180	60	67	NoGap	1	31	2	4	0	distractor	1	760	620	18885	13.328	13.271	13.385
ProbeTrackDT01	25	ProbeTrack	10.4	SCS215a	20100714.125939	20100714.130254	8	0.013327	60	0	60-180	60	163	NoGap	1	32	2	1	1	target	1	360	820	19705	13.328	12.991	13.663
ProbeTrackDT01	25	ProbeTrack	10.4	SCS215a	20100714.125939	20100714.130300	8	0.013327	60	0	60-180	60	64	NoGap	1	33	2	75	0	distractor	1	653	674	20379	13.328	13.176	13.513
ProbeTrackDT01	25	ProbeTrack	10.4	SCS215a	20100714.125939	20100714.130306	8	0.013327	60	0	60-180	60	176	NoGap	1	34	2	1	0	distractor	1	400	800	21179	13.328	12.944	13.712
ProbeTrackDT01	25	ProbeTrack	10.4	SCS215a	20100714.125939	20100714.130312	8	0.013327	60	0	60-180	60	101	NoGap	1	35	2	4	1	distractor	0	360	-1000	20179	13.328	13.018	13.637
ProbeTrackDT01	25	ProbeTrack	10.4	SCS215a	20100714.125939	20100714.130317	8	0.013327	60	0	60-180	60	160	NoGap	1	36	2	0	0	distractor	1	720	640	20819	13.328	13.249	13.441
ProbeTrackDT01	25	ProbeTrack	10.4	SCS215a	20100714.125939	20100714.130323	8	0.013327	60	0	60-180	60	74	NoGap	1	37	2	0	0	distractor	1	880	560	21379	13.328	13.148	13.509
ProbeTrackDT01	25	ProbeTrack	10.4	SCS215a	20100714.125939	20100714.130328	8	0.013327	60	0	60-180	60	75	NoGap	1	38	2	1	0	target	0	627	-1000	20379	13.328	12.824	13.798
ProbeTrackDT01	25	ProbeTrack	10.4	SCS215a	20100714.125939	20100714.130333	8	0.013327	60	0	60-180	60	102	NoGap	1	39	2	0	1	target	1	667	667	21046	13.328	13.239	13.450
ProbeTrackDT01	25	ProbeTrack	10.4	SCS215a	20100714.125939	20100714.130338	8	0.013327	60	0	60-180	60	83	NoGap	1	40	2	1	1	target	1	480	760	21806	13.328	12.975	13.680
ProbeTrackDT01	25	ProbeTrack	10.4	SCS215a	20100714.130416	20100714.130421	8	0.013327	60	10	60-180	60	177	GapPrac	1	1	2	75	1	distractor	0	760	-1000	20806	13.328	12.976	13.678
ProbeTrackDT01	25	ProbeTrack	10.4	SCS215a	20100714.130416	20100714.130429	8	0.013327	60	10	60-180	60	95	GapPrac	1	2	2	2	0	distractor	1	880	560	21366	13.328	13.293	13.363
ProbeTrackDT01	25	ProbeTrack	10.4	SCS215a	20100714.130416	20100714.130434	8	0.013327	60	10	60-180	60	166	GapPrac	1	3	2	4	1	target	1	640	680	22046	13.328	12.976	13.711
ProbeTrackDT01	25	ProbeTrack	10.4	SCS215a	20100714.130416	20100714.130440	8	0.013327	60	10	60-180	60	94	GapPrac	1	4	2	1	1	target	1	720	640	22686	13.328	12.914	13.740
ProbeTrackDT01	25	ProbeTrack	10.4	SCS215a	20100714.130416	20100714.130446	8	0.013327	60	10	60-180	60	133	GapPrac	1	5	2	0	1	target	1	627	687	23373	13.328	13.047	13.642
ProbeTrackDT01	25	ProbeTrack	10.4	SCS215a	20100714.130416	20100714.130452	8	0.013327	60	10	60-180	60	180	GapPrac	1	6	2	1	0	distractor	1	574	713	24086	13.371	12.943	26.621
ProbeTrackDT01	25	ProbeTrack	10.4	SCS215a	20100714.130416	20100714.130458	8	0.013327	60	10	60-180	60	122	GapPrac	1	7	2	2	1	target	1	920	540	24626	13.328	13.064	13.558
ProbeTrackDT01	25	ProbeTrack	10.4	SCS215a	20100714.130416	20100714.130504	8	0.013327	60	10	60-180	60	147	GapPrac	1	8	2	75	0	distractor	1	640	680	25306	13.328	13.235	13.421
ProbeTrackDT01	25	ProbeTrack	10.4	SCS215a	20100714.130416	20100714.130511	8	0.013327	60	10	60-180	60	139	GapPrac	1	9	2	1	0	distractor	1	547	727	26033	13.328	13.196	13.494
ProbeTrackDT01	25	ProbeTrack	10.4	SCS215a	20100714.130416	20100714.130517	8	0.013327	60	10	60-180	60	138	GapPrac	1	10	2	4	0	distractor	1	720	640	26673	13.328	13.286	13.363
ProbeTrackDT01	25	ProbeTrack	10.4	SCS215a	20100714.130416	20100714.130523	8	0.013327	60	10	60-180	60	165	GapPrac	1	11	2	75	1	target	1	600	700	27373	13.328	13.135	13.555
ProbeTrackDT01	25	ProbeTrack	10.4	SCS215a	20100714.130416	20100714.130530	8	0.013327	60	10	60-180	60	129	GapPrac	1	12	2	4	1	target	1	467	767	28140	13.328	13.196	13.459
ProbeTrackDT01	25	ProbeTrack	10.4	SCS215a	20100714.130416	20100714.130536	8	0.013327	60	10	60-180	60	169	GapPrac	1	13	2	0	1	target	1	414	793	28933	13.328	13.174	13.447
ProbeTrackDT01	25	ProbeTrack	10.4	SCS215a	20100714.130416	20100714.130542	8	0.013327	60	10	60-180	60	91	GapPrac	1	14	2	0	0	distractor	1	654	673	29606	13.328	13.002	13.654
ProbeTrackDT01	25	ProbeTrack	10.4	SCS215a	20100714.130416	20100714.130547	8	0.013327	60	10	60-180	60	71	GapPrac	1	15	2	4	0	distractor	1	627	687	30293	13.328	12.911	13.710
ProbeTrackDT01	25	ProbeTrack	10.4	SCS215a	20100714.130416	20100714.130552	8	0.013327	60	10	60-180	60	77	GapPrac	1	16	2	75	0	distractor	1	614	693	30986	13.328	12.971	13.719
ProbeTrackDT01	25	ProbeTrack	10.4	SCS215a	20100714.130416	20100714.130558	8	0.013327	60	10	60-180	60	150	GapPrac	1	17	2	1	1	target	1	613	694	31680	13.422	13.211	26.510
ProbeTrackDT01	25	ProbeTrack	10.4	SCS215a	20100714.130416	20100714.130604	8	0.013327	60	10	60-180	60	121	GapPrac	1	18	2	2	1	target	1	480	760	32440	13.436	13.292	27.101
ProbeTrackDT01	25	ProbeTrack	10.4	SCS215a	20100714.130416	20100714.130610	8	0.013327	60	10	60-180	60	65	GapPrac	1	19	2	2	0	distractor	1	520	740	33180	13.328	12.929	13.692
ProbeTrackDT01	25	ProbeTrack	10.4	SCS215a	20100714.130416	20100714.130615	8	0.013327	60	10	60-180	60	62	GapPrac	1	20	2	0	0	distractor	1	587	707	33887	13.328	13.293	13.364
ProbeTrackDT01	25	ProbeTrack	10.4	SCS215a	20100714.130830	20100714.130835	8	0.013328	60	10	60-180	60	87	GapPrac	1	1	2	2	0	distractor	1	640	680	34567	13.387	13.293	26.688
ProbeTrackDT01	25	ProbeTrack	10.4	SCS215a	20100714.130830	20100714.130840	8	0.013328	60	10	60-180	60	104	GapPrac	1	2	2	75	0	distractor	1	454	773	35340	13.328	13.293	13.363
ProbeTrackDT01	25	ProbeTrack	10.4	SCS215a	20100714.130830	20100714.130847	8	0.013328	60	10	60-180	60	166	GapPrac	1	3	2	4	0	distractor	1	560	720	36060	13.327	13.123	13.428
ProbeTrackDT01	25	ProbeTrack	10.4	SCS215a	20100714.130830	20100714.130853	8	0.013328	60	10	60-180	60	79	GapPrac	1	4	2	75	1	target	1	947	527	36587	13.328	13.212	13.443
ProbeTrackDT01	25	ProbeTrack	10.4	SCS215a	20100714.130830	20100714.130859	8	0.013328	60	10	60-180	60	123	GapPrac	1	5	2	1	1	target	1	560	720	37307	13.328	13.179	13.476
ProbeTrackDT01	25	ProbeTrack	10.4	SCS215a	20100714.130830	20100714.130905	8	0.013328	60	10	60-180	60	161	GapPrac	1	6	2	2	1	target	1	747	627	37934	13.415	13.006	26.854
ProbeTrackDT01	25	ProbeTrack	10.4	SCS215a	20100714.130830	20100714.130911	8	0.013328	60	10	60-180	60	98	GapPrac	1	7	2	4	0	distractor	1	547	727	38661	13.328	13.078	13.579
ProbeTrackDT01	25	ProbeTrack	10.4	SCS215a	20100714.130830	20100714.130916	8	0.013328	60	10	60-180	60	77	GapPrac	1	8	2	0	1	distractor	0	1813	-1000	37661	13.328	13.189	13.433
ProbeTrackDT01	25	ProbeTrack	10.4	SCS215a	20100714.130830	20100714.130923	8	0.013328	60	10	60-180	60	175	GapPrac	1	9	2	75	1	target	1	587	707	38368	13.398	12.922	27.074
ProbeTrackDT01	25	ProbeTrack	10.4	SCS215a	20100714.130830	20100714.130930	8	0.013328	60	10	60-180	60	107	GapPrac	1	10	2	0	0	distractor	1	1000	500	38868	13.328	13.175	13.447
ProbeTrackDT01	25	ProbeTrack	10.4	SCS215a	20100714.130830	20100714.130936	8	0.013328	60	10	60-180	60	135	GapPrac	1	11	2	2	0	distractor	1	773	614	39482	13.328	13.225	13.430
ProbeTrackDT01	25	ProbeTrack	10.4	SCS215a	20100714.130830	20100714.130942	8	0.013328	60	10	60-180	60	175	GapPrac	1	12	2	1	1	target	1	707	647	40129	13.370	13.242	26.621
ProbeTrackDT01	25	ProbeTrack	10.4	SCS215a	20100714.130830	20100714.130948	8	0.013328	60	10	60-180	60	179	GapPrac	1	13	2	0	0	distractor	1	627	687	40816	13.328	13.003	13.653
ProbeTrackDT01	25	ProbeTrack	10.4	SCS215a	20100714.130830	20100714.130955	8	0.013328	60	10	60-180	60	100	GapPrac	1	14	2	75	0	distractor	1	480	760	41576	13.328	11.378	15.279
ProbeTrackDT01	25	ProbeTrack	10.4	SCS215a	20100714.130830	20100714.131001	8	0.013328	60	10	60-180	60	74	GapPrac	1	15	2	4	1	distractor	0	480	-1000	40576	13.328	13.293	13.362
ProbeTrackDT01	25	ProbeTrack	10.4	SCS215a	20100714.130830	20100714.131006	8	0.013328	60	10	60-180	60	75	GapPrac	1	16	2	1	0	distractor	1	960	520	41096	13.328	13.094	13.528
ProbeTrackDT01	25	ProbeTrack	10.4	SCS215a	20100714.130830	20100714.131011	8	0.013328	60	10	60-180	60	118	GapPrac	1	17	2	0	1	target	1	694	653	41749	13.328	12.959	13.697
ProbeTrackDT01	25	ProbeTrack	10.4	SCS215a	20100714.130830	20100714.131017	8	0.013328	60	10	60-180	60	155	GapPrac	1	18	2	4	1	target	1	520	740	42489	13.328	13.230	13.460
ProbeTrackDT01	25	ProbeTrack	10.4	SCS215a	20100714.130830	20100714.131023	8	0.013328	60	10	60-180	60	81	GapPrac	1	19	2	2	1	target	1	1107	447	42936	13.328	13.155	13.466
ProbeTrackDT01	25	ProbeTrack	10.4	SCS215a	20100714.130830	20100714.131028	8	0.013328	60	10	60-180	60	143	GapPrac	1	20	2	1	0	distractor	1	654	673	43609	13.375	13.039	26.605
ProbeTrackDT01	25	ProbeTrack	10.4	SCS215a	20100714.131113	20100714.131120	8	0.013328	60	10	60-180	60	97	GapExp	1	1	2	4	0	distractor	1	773	614	44223	13.328	13.293	13.363
ProbeTrackDT01	25	ProbeTrack	10.4	SCS215a	20100714.131113	20100714.131126	8	0.013328	60	10	60-180	60	137	GapExp	1	2	2	75	1	target	1	334	833	45056	13.328	13.219	13.435
ProbeTrackDT01	25	ProbeTrack	10.4	SCS215a	20100714.131113	20100714.131132	8	0.013328	60	10	60-180	60	77	GapExp	1	3	2	1	0	distractor	1	627	687	45743	13.390	13.293	26.646
ProbeTrackDT01	25	ProbeTrack	10.4	SCS215a	20100714.131113	20100714.131137	8	0.013328	60	10	60-180	60	163	GapExp	1	4	2	4	1	target	1	653	674	46417	13.372	13.156	26.689
ProbeTrackDT01	25	ProbeTrack	10.4	SCS215a	20100714.131113	20100714.131143	8	0.013328	60	10	60-180	60	141	GapExp	1	5	2	0	0	distractor	1	987	507	46924	13.328	13.292	13.363
ProbeTrackDT01	25	ProbeTrack	10.4	SCS215a	20100714.131113	20100714.131150	8	0.013328	60	10	60-180	60	82	GapExp	1	6	2	0	1	distractor	0	667	-1000	45924	13.328	13.064	13.591
ProbeTrackDT01	25	ProbeTrack	10.4	SCS215a	20100714.131113	20100714.131155	8	0.013328	60	10	60-180	60	154	GapExp	1	7	2	1	1	target	1	507	747	46671	13.375	12.963	26.811
ProbeTrackDT01	25	ProbeTrack	10.4	SCS215a	20100714.131113	20100714.131201	8	0.013328	60	10	60-180	60	137	GapExp	1	8	2	2	1	target	1	734	633	47304	13.328	13.231	13.458
ProbeTrackDT01	25	ProbeTrack	10.4	SCS215a	20100714.131113	20100714.131207	8	0.013328	60	10	60-180	60	159	GapExp	1	9	2	75	0	distractor	1	507	747	48051	13.328	13.231	13.425
ProbeTrackDT01	25	ProbeTrack	10.4	SCS215a	20100714.131113	20100714.131214	8	0.013328	60	10	60-180	60	150	GapExp	1	10	2	2	0	distractor	1	667	667	48718	13.328	13.164	13.492
ProbeTrackDT01	25	ProbeTrack	10.4	SCS215a	20100714.131113	20100714.131220	8	0.013328	60	10	60-180	60	122	GapExp	0	11	2	1	1	target	1	907	547	49265	13.328	13.186	13.504
ProbeTrackDT01	25	ProbeTrack	10.4	SCS215a	20100714.131113	20100714.131226	8	0.013328	60	10	60-180	60	155	GapExp	0	12	2	4	1	target	1	600	700	49965	13.328	13.031	13.623
ProbeTrackDT01	25	ProbeTrack	10.4	SCS215a	20100714.131113	20100714.131232	8	0.013328	60	10	60-180	60	67	GapExp	0	13	2	2	1	target	1	640	680	50645	13.328	13.150	13.541
ProbeTrackDT01	25	ProbeTrack	10.4	SCS215a	20100714.131113	20100714.131237	8	0.013328	60	10	60-180	60	145	GapExp	0	14	2	75	1	target	1	600	700	51345	13.328	12.962	13.694
ProbeTrackDT01	25	ProbeTrack	10.4	SCS215a	20100714.131113	20100714.131244	8	0.013328	60	10	60-180	60	130	GapExp	0	15	2	0	0	distractor	1	627	687	52032	13.328	13.133	13.523
ProbeTrackDT01	25	ProbeTrack	10.4	SCS215a	20100714.131113	20100714.131250	8	0.013328	60	10	60-180	60	102	GapExp	0	16	2	1	0	distractor	1	773	614	52646	13.328	13.124	13.532
ProbeTrackDT01	25	ProbeTrack	10.4	SCS215a	20100714.131113	20100714.131255	8	0.013328	60	10	60-180	60	104	GapExp	0	17	2	2	1	distractor	0	1933	-1000	51646	13.328	12.996	13.661
ProbeTrackDT01	25	ProbeTrack	10.4	SCS215a	20100714.131113	20100714.131302	8	0.013328	60	10	60-180	60	88	GapExp	0	18	2	1	0	target	0	1080	-1000	50646	13.328	13.009	13.680
ProbeTrackDT01	25	ProbeTrack	10.4	SCS215a	20100714.131113	20100714.131308	8	0.013328	60	10	60-180	60	110	GapExp	0	19	2	1	0	distractor	1	640	680	51326	13.328	13.020	13.636
ProbeTrackDT01	25	ProbeTrack	10.4	SCS215a	20100714.131113	20100714.131313	8	0.013328	60	10	60-180	60	166	GapExp	0	20	2	0	0	distractor	1	707	647	51973	13.328	13.140	13.481
ProbeTrackDT01	25	ProbeTrack	10.4	SCS215a	20100714.131113	20100714.131319	8	0.013328	60	10	60-180	60	94	GapExp	0	21	2	4	0	distractor	1	507	747	52720	13.328	12.990	13.699
ProbeTrackDT01	25	ProbeTrack	10.4	SCS215a	20100714.131113	20100714.131325	8	0.013328	60	10	60-180	60	129	GapExp	0	22	2	75	1	target	1	640	680	53400	13.328	13.186	13.503
ProbeTrackDT01	25	ProbeTrack	10.4	SCS215a	20100714.131113	20100714.131331	8	0.013328	60	10	60-180	60	109	GapExp	0	23	2	75	1	target	1	1093	454	53854	13.328	13.201	13.479
ProbeTrackDT01	25	ProbeTrack	10.4	SCS215a	20100714.131113	20100714.131338	8	0.013328	60	10	60-180	60	116	GapExp	0	24	2	75	0	distractor	1	627	687	54541	13.328	13.109	13.514
ProbeTrackDT01	25	ProbeTrack	10.4	SCS215a	20100714.131113	20100714.131345	8	0.013328	60	10	60-180	60	73	GapExp	0	25	2	1	0	distractor	1	494	753	55294	13.328	13.293	13.363
ProbeTrackDT01	25	ProbeTrack	10.4	SCS215a	20100714.131113	20100714.131350	8	0.013328	60	10	60-180	60	167	GapExp	0	26	2	2	1	target	1	574	713	56007	13.551	12.981	40.364
ProbeTrackDT01	25	ProbeTrack	10.4	SCS215a	20100714.131113	20100714.131356	8	0.013328	60	10	60-180	60	81	GapExp	0	27	2	2	1	target	1	614	693	56700	13.451	13.156	26.676
ProbeTrackDT01	25	ProbeTrack	10.4	SCS215a	20100714.131113	20100714.131401	8	0.013328	60	10	60-180	60	154	GapExp	0	28	2	2	1	target	1	640	680	57380	13.328	13.216	13.440
ProbeTrackDT01	25	ProbeTrack	10.4	SCS215a	20100714.131113	20100714.131407	8	0.013328	60	10	60-180	60	160	GapExp	0	29	2	2	0	distractor	1	680	660	58040	13.461	13.206	40.187
ProbeTrackDT01	25	ProbeTrack	10.4	SCS215a	20100714.131113	20100714.131414	8	0.013328	60	10	60-180	60	169	GapExp	0	30	2	2	0	distractor	1	560	720	58760	13.461	12.824	53.780
ProbeTrackDT01	25	ProbeTrack	10.4	SCS215a	20100714.131113	20100714.131420	8	0.013328	60	10	60-180	60	109	GapExp	0	31	2	2	0	distractor	1	606	697	59457	13.328	12.949	13.706
ProbeTrackDT01	25	ProbeTrack	10.4	SCS215a	20100714.131113	20100714.131425	8	0.013328	60	10	60-180	60	117	GapExp	0	32	2	75	0	target	0	1680	-1000	58457	13.328	13.173	13.484
ProbeTrackDT01	25	ProbeTrack	10.4	SCS215a	20100714.131113	20100714.131433	8	0.013328	60	10	60-180	60	75	GapExp	0	33	2	1	1	distractor	0	960	-1000	57457	13.328	13.255	13.402
ProbeTrackDT01	25	ProbeTrack	10.4	SCS215a	20100714.131113	20100714.131438	8	0.013328	60	10	60-180	60	104	GapExp	0	34	2	1	1	target	1	693	654	58111	13.328	13.115	13.574
ProbeTrackDT01	25	ProbeTrack	10.4	SCS215a	20100714.131113	20100714.131444	8	0.013328	60	10	60-180	60	155	GapExp	0	35	2	2	1	target	1	587	707	58818	13.328	13.188	13.467
ProbeTrackDT01	25	ProbeTrack	10.4	SCS215a	20100714.131113	20100714.131450	8	0.013328	60	10	60-180	60	142	GapExp	0	36	2	0	0	target	0	507	-1000	57818	13.527	12.813	40.001
ProbeTrackDT01	25	ProbeTrack	10.4	SCS215a	20100714.131113	20100714.131456	8	0.013328	60	10	60-180	60	88	GapExp	0	37	2	0	1	target	1	520	740	58558	13.328	13.289	13.387
ProbeTrackDT01	25	ProbeTrack	10.4	SCS215a	20100714.131113	20100714.131501	8	0.013328	60	10	60-180	60	111	GapExp	0	38	2	1	0	distractor	1	587	707	59265	13.328	13.123	13.533
ProbeTrackDT01	25	ProbeTrack	10.4	SCS215a	20100714.131113	20100714.131506	8	0.013328	60	10	60-180	60	80	GapExp	0	39	2	1	0	distractor	1	840	580	59845	13.328	12.985	13.637
ProbeTrackDT01	25	ProbeTrack	10.4	SCS215a	20100714.131113	20100714.131512	8	0.013328	60	10	60-180	60	62	GapExp	0	40	2	4	0	distractor	1	540	730	60575	13.328	13.264	13.391
ProbeTrackDT01	25	ProbeTrack	10.4	SCS215a	20100714.131113	20100714.131516	8	0.013328	60	10	60-180	60	71	GapExp	0	41	2	75	0	distractor	1	507	747	61322	13.328	13.223	13.433
ProbeTrackDT01	25	ProbeTrack	10.4	SCS215a	20100714.131113	20100714.131522	8	0.013328	60	10	60-180	60	114	GapExp	0	42	2	1	1	distractor	0	440	-1000	60322	13.328	12.932	13.723
ProbeTrackDT01	25	ProbeTrack	10.4	SCS215a	20100714.131113	20100714.131528	8	0.013328	60	10	60-180	60	122	GapExp	0	43	2	4	1	target	1	507	747	61069	13.328	12.955	13.666
ProbeTrackDT01	25	ProbeTrack	10.4	SCS215a	20100714.131113	20100714.131533	8	0.013328	60	10	60-180	60	170	GapExp	0	44	2	2	0	target	0	747	-1000	60069	13.328	13.075	13.546
ProbeTrackDT01	25	ProbeTrack	10.4	SCS215a	20100714.131113	20100714.131540	8	0.013328	60	10	60-180	60	134	GapExp	0	45	2	2	1	target	1	787	607	60676	13.328	13.021	13.667
ProbeTrackDT01	25	ProbeTrack	10.4	SCS215a	20100714.131113	20100714.131546	8	0.013328	60	10	60-180	60	142	GapExp	0	46	2	2	0	distractor	1	827	587	61263	13.328	12.969	13.687
ProbeTrackDT01	25	ProbeTrack	10.4	SCS215a	20100714.131113	20100714.131552	8	0.013328	60	10	60-180	60	86	GapExp	0	47	2	4	0	distractor	1	1107	447	61710	13.328	13.249	13.407
ProbeTrackDT01	25	ProbeTrack	10.4	SCS215a	20100714.131113	20100714.131557	8	0.013328	60	10	60-180	60	148	GapExp	0	48	2	2	1	target	1	827	587	62297	13.373	12.867	26.656
ProbeTrackDT01	25	ProbeTrack	10.4	SCS215a	20100714.131113	20100714.131604	8	0.013328	60	10	60-180	60	118	GapExp	0	49	2	1	0	distractor	1	787	607	62904	13.328	12.922	13.734
ProbeTrackDT01	25	ProbeTrack	10.4	SCS215a	20100714.131113	20100714.131609	8	0.013328	60	10	60-180	60	93	GapExp	0	50	2	1	0	distractor	1	667	667	63571	13.328	12.930	13.708
ProbeTrackDT01	25	ProbeTrack	10.4	SCS215a	20100714.131113	20100714.131654	8	0.013328	60	10	60-180	60	90	GapExp	0	51	2	2	1	target	1	1120	440	64011	13.328	13.246	13.376
ProbeTrackDT01	25	ProbeTrack	10.4	SCS215a	20100714.131113	20100714.131659	8	0.013328	60	10	60-180	60	98	GapExp	0	52	2	2	1	target	1	654	673	64684	13.328	13.027	13.594
ProbeTrackDT01	25	ProbeTrack	10.4	SCS215a	20100714.131113	20100714.131705	8	0.013328	60	10	60-180	60	64	GapExp	0	53	2	2	0	distractor	1	507	747	65431	13.327	12.976	13.679
ProbeTrackDT01	25	ProbeTrack	10.4	SCS215a	20100714.131113	20100714.131710	8	0.013328	60	10	60-180	60	151	GapExp	0	54	2	75	1	target	1	454	773	66204	13.443	13.079	53.310
ProbeTrackDT01	25	ProbeTrack	10.4	SCS215a	20100714.131113	20100714.131716	8	0.013328	60	10	60-180	60	77	GapExp	0	55	2	4	1	target	1	560	720	66924	13.518	13.293	40.033
ProbeTrackDT01	25	ProbeTrack	10.4	SCS215a	20100714.131113	20100714.131722	8	0.013328	60	10	60-180	60	137	GapExp	0	56	2	4	0	distractor	1	534	733	67657	13.477	12.952	53.719
ProbeTrackDT01	25	ProbeTrack	10.4	SCS215a	20100714.131113	20100714.131727	8	0.013328	60	10	60-180	60	152	GapExp	0	57	2	2	0	distractor	1	720	640	68297	13.328	12.939	13.717
ProbeTrackDT01	25	ProbeTrack	10.4	SCS215a	20100714.131113	20100714.131734	8	0.013328	60	10	60-180	60	135	GapExp	0	58	2	0	1	target	1	733	634	68931	13.328	12.938	13.718
ProbeTrackDT01	25	ProbeTrack	10.4	SCS215a	20100714.131113	20100714.131740	8	0.013328	60	10	60-180	60	80	GapExp	0	59	2	1	1	target	1	1027	487	69418	13.622	13.130	53.589
ProbeTrackDT01	25	ProbeTrack	10.4	SCS215a	20100714.131113	20100714.131745	8	0.013328	60	10	60-180	60	148	GapExp	0	60	2	1	1	target	1	627	687	70105	13.328	13.180	13.475
ProbeTrackDT01	25	ProbeTrack	10.4	SCS215a	20100714.131113	20100714.131751	8	0.013328	60	10	60-180	60	85	GapExp	0	61	2	2	1	target	1	587	707	70812	13.328	13.211	13.478
ProbeTrackDT01	25	ProbeTrack	10.4	SCS215a	20100714.131113	20100714.131756	8	0.013328	60	10	60-180	60	135	GapExp	0	62	2	0	1	target	1	454	773	71585	13.328	13.119	13.538
ProbeTrackDT01	25	ProbeTrack	10.4	SCS215a	20100714.131113	20100714.131802	8	0.013328	60	10	60-180	60	104	GapExp	0	63	2	2	1	target	1	680	660	72245	13.328	13.130	13.525
ProbeTrackDT01	25	ProbeTrack	10.4	SCS215a	20100714.131113	20100714.131807	8	0.013328	60	10	60-180	60	107	GapExp	0	64	2	75	0	distractor	1	627	687	72932	13.370	12.997	26.986
ProbeTrackDT01	25	ProbeTrack	10.4	SCS215a	20100714.131113	20100714.131814	8	0.013328	60	10	60-180	60	139	GapExp	0	65	2	1	1	target	1	693	654	73586	13.328	13.292	13.363
ProbeTrackDT01	25	ProbeTrack	10.4	SCS215a	20100714.131113	20100714.131820	8	0.013328	60	10	60-180	60	74	GapExp	0	66	2	1	1	target	1	640	680	74266	13.391	13.293	26.690
ProbeTrackDT01	25	ProbeTrack	10.4	SCS215a	20100714.131113	20100714.131825	8	0.013328	60	10	60-180	60	176	GapExp	0	67	2	4	1	target	1	507	747	75013	13.328	13.011	13.616
ProbeTrackDT01	25	ProbeTrack	10.4	SCS215a	20100714.131113	20100714.131831	8	0.013328	60	10	60-180	60	153	GapExp	0	68	2	0	0	target	0	667	-1000	74013	13.328	12.942	13.697
ProbeTrackDT01	25	ProbeTrack	10.4	SCS215a	20100714.131113	20100714.131837	8	0.013328	60	10	60-180	60	129	GapExp	0	69	2	4	0	distractor	1	587	707	74720	13.328	13.214	13.418
ProbeTrackDT01	25	ProbeTrack	10.4	SCS215a	20100714.131113	20100714.131843	8	0.013328	60	10	60-180	60	138	GapExp	0	70	2	75	1	target	1	494	753	75473	13.328	13.120	13.536
ProbeTrackDT01	25	ProbeTrack	10.4	SCS215a	20100714.131113	20100714.131850	8	0.013328	60	10	60-180	60	180	GapExp	0	71	2	75	0	distractor	1	560	720	76193	13.328	12.924	13.765
ProbeTrackDT01	25	ProbeTrack	10.4	SCS215a	20100714.131113	20100714.131857	8	0.013328	60	10	60-180	60	146	GapExp	0	72	2	2	0	target	0	600	-1000	75193	13.328	12.888	13.800
ProbeTrackDT01	25	ProbeTrack	10.4	SCS215a	20100714.131113	20100714.131903	8	0.013328	60	10	60-180	60	91	GapExp	0	73	2	4	1	target	1	920	540	75733	13.328	13.293	13.363
ProbeTrackDT01	25	ProbeTrack	10.4	SCS215a	20100714.131113	20100714.131909	8	0.013328	60	10	60-180	60	69	GapExp	0	74	2	75	1	target	1	560	720	76453	13.328	13.070	13.617
ProbeTrackDT01	25	ProbeTrack	10.4	SCS215a	20100714.131113	20100714.131915	8	0.013328	60	10	60-180	60	102	GapExp	0	75	2	2	0	distractor	1	440	780	77233	13.328	13.240	13.380
ProbeTrackDT01	25	ProbeTrack	10.4	SCS215a	20100714.131113	20100714.131920	8	0.013328	60	10	60-180	60	113	GapExp	0	76	2	0	1	target	1	1866	67	77300	13.328	13.124	13.564
ProbeTrackDT01	25	ProbeTrack	10.4	SCS215a	20100714.131113	20100714.131927	8	0.013328	60	10	60-180	60	95	GapExp	0	77	2	4	0	distractor	1	547	727	78027	13.328	13.162	13.459
ProbeTrackDT01	25	ProbeTrack	10.4	SCS215a	20100714.131113	20100714.131932	8	0.013328	60	10	60-180	60	170	GapExp	0	78	2	1	1	target	1	720	640	78667	13.328	13.164	13.493
ProbeTrackDT01	25	ProbeTrack	10.4	SCS215a	20100714.131113	20100714.131938	8	0.013328	60	10	60-180	60	61	GapExp	0	79	2	75	0	distractor	1	494	753	79420	13.328	13.089	13.566
ProbeTrackDT01	25	ProbeTrack	10.4	SCS215a	20100714.131113	20100714.131944	8	0.013328	60	10	60-180	60	84	GapExp	0	80	2	2	0	distractor	1	694	653	80073	13.328	12.960	13.661
ProbeTrackDT01	25	ProbeTrack	10.4	SCS215a	20100714.131113	20100714.131949	8	0.013328	60	10	60-180	60	91	GapExp	0	81	2	0	1	target	1	507	747	80820	13.328	13.293	13.391
ProbeTrackDT01	25	ProbeTrack	10.4	SCS215a	20100714.131113	20100714.131954	8	0.013328	60	10	60-180	60	160	GapExp	0	82	2	0	0	distractor	1	467	767	81587	13.328	13.252	13.404
ProbeTrackDT01	25	ProbeTrack	10.4	SCS215a	20100714.131113	20100714.132000	8	0.013328	60	10	60-180	60	104	GapExp	0	83	2	4	1	target	1	494	753	82340	13.328	13.183	13.507
ProbeTrackDT01	25	ProbeTrack	10.4	SCS215a	20100714.131113	20100714.132006	8	0.013328	60	10	60-180	60	157	GapExp	0	84	2	4	1	target	1	614	693	83033	13.328	12.981	13.709
ProbeTrackDT01	25	ProbeTrack	10.4	SCS215a	20100714.131113	20100714.132012	8	0.013328	60	10	60-180	60	152	GapExp	0	85	2	75	1	target	1	440	780	83813	13.328	13.112	13.543
ProbeTrackDT01	25	ProbeTrack	10.4	SCS215a	20100714.131113	20100714.132019	8	0.013328	60	10	60-180	60	147	GapExp	0	86	2	2	0	distractor	1	987	507	84320	13.328	13.293	13.362
ProbeTrackDT01	25	ProbeTrack	10.4	SCS215a	20100714.131113	20100714.132025	8	0.013328	60	10	60-180	60	103	GapExp	0	87	2	0	1	target	1	800	600	84920	13.381	13.152	26.622
ProbeTrackDT01	25	ProbeTrack	10.4	SCS215a	20100714.131113	20100714.132031	8	0.013328	60	10	60-180	60	67	GapExp	0	88	2	75	1	target	1	627	687	85607	13.328	13.066	13.624
ProbeTrackDT01	25	ProbeTrack	10.4	SCS215a	20100714.131113	20100714.132037	8	0.013328	60	10	60-180	60	112	GapExp	0	89	2	75	1	target	1	440	780	86387	13.328	13.217	13.405
ProbeTrackDT01	25	ProbeTrack	10.4	SCS215a	20100714.131113	20100714.132043	8	0.013328	60	10	60-180	60	89	GapExp	0	90	2	2	0	distractor	1	560	720	87107	13.328	13.293	13.363
ProbeTrackDT01	25	ProbeTrack	10.4	SCS215a	20100714.131113	20100714.132048	8	0.013328	60	10	60-180	60	129	GapExp	0	91	2	4	1	target	1	454	773	87880	13.328	13.093	13.528
ProbeTrackDT01	25	ProbeTrack	10.4	SCS215a	20100714.131113	20100714.132054	8	0.013328	60	10	60-180	60	102	GapExp	0	92	2	4	0	target	0	600	-1000	86880	13.328	13.189	13.499
ProbeTrackDT01	25	ProbeTrack	10.4	SCS215a	20100714.131113	20100714.132059	8	0.013328	60	10	60-180	60	163	GapExp	0	93	2	2	1	target	1	574	713	87593	13.328	13.293	13.363
ProbeTrackDT01	25	ProbeTrack	10.4	SCS215a	20100714.131113	20100714.132105	8	0.013328	60	10	60-180	60	154	GapExp	0	94	2	4	0	distractor	1	1000	500	88093	13.372	12.887	27.063
ProbeTrackDT01	25	ProbeTrack	10.4	SCS215a	20100714.131113	20100714.132112	8	0.013328	60	10	60-180	60	90	GapExp	0	95	2	2	0	target	0	627	-1000	87093	13.446	13.086	26.778
ProbeTrackDT01	25	ProbeTrack	10.4	SCS215a	20100714.131113	20100714.132117	8	0.013328	60	10	60-180	60	64	GapExp	0	96	2	2	1	target	1	627	687	87780	13.328	13.215	13.441
ProbeTrackDT01	25	ProbeTrack	10.4	SCS215a	20100714.131113	20100714.132122	8	0.013328	60	10	60-180	60	80	GapExp	0	97	2	4	0	target	0	747	-1000	86780	13.328	12.975	13.681
ProbeTrackDT01	25	ProbeTrack	10.4	SCS215a	20100714.131113	20100714.132127	8	0.013328	60	10	60-180	60	177	GapExp	0	98	2	75	1	target	1	1080	460	87240	13.328	13.159	13.530
ProbeTrackDT01	25	ProbeTrack	10.4	SCS215a	20100714.131113	20100714.132135	8	0.013328	60	10	60-180	60	134	GapExp	0	99	2	4	0	distractor	1	1013	494	87734	13.328	13.238	13.385
ProbeTrackDT01	25	ProbeTrack	10.4	SCS215a	20100714.131113	20100714.132141	8	0.013328	60	10	60-180	60	90	GapExp	0	100	2	2	0	distractor	1	760	620	88354	13.384	13.293	26.509
ProbeTrackDT01	25	ProbeTrack	10.4	SCS215a	20100714.131113	20100714.132204	8	0.013328	60	10	60-180	60	67	GapExp	0	101	2	0	1	target	1	627	687	89041	13.328	13.289	13.362
ProbeTrackDT01	25	ProbeTrack	10.4	SCS215a	20100714.131113	20100714.132208	8	0.013328	60	10	60-180	60	149	GapExp	0	102	2	1	1	target	1	614	693	89734	13.328	13.236	13.453
ProbeTrackDT01	25	ProbeTrack	10.4	SCS215a	20100714.131113	20100714.132214	8	0.013328	60	10	60-180	60	126	GapExp	0	103	2	0	1	target	1	693	654	90388	13.328	13.293	13.363
ProbeTrackDT01	25	ProbeTrack	10.4	SCS215a	20100714.131113	20100714.132220	8	0.013328	60	10	60-180	60	116	GapExp	0	104	2	2	0	distractor	1	587	707	91095	13.328	13.270	13.363
ProbeTrackDT01	25	ProbeTrack	10.4	SCS215a	20100714.131113	20100714.132226	8	0.013328	60	10	60-180	60	121	GapExp	0	105	2	0	0	target	0	787	-1000	90095	13.328	13.293	13.363
ProbeTrackDT01	25	ProbeTrack	10.4	SCS215a	20100714.131113	20100714.132232	8	0.013328	60	10	60-180	60	80	GapExp	0	106	2	1	1	target	1	587	707	90802	13.328	13.293	13.363
ProbeTrackDT01	25	ProbeTrack	10.4	SCS215a	20100714.131113	20100714.132237	8	0.013328	60	10	60-180	60	133	GapExp	0	107	2	4	1	target	1	600	700	91502	13.328	12.905	13.784
ProbeTrackDT01	25	ProbeTrack	10.4	SCS215a	20100714.131113	20100714.132242	8	0.013328	60	10	60-180	60	81	GapExp	0	108	2	75	1	target	1	867	567	92069	13.328	13.061	13.627
ProbeTrackDT01	25	ProbeTrack	10.4	SCS215a	20100714.131113	20100714.132249	8	0.013328	60	10	60-180	60	114	GapExp	0	109	2	2	0	distractor	1	640	680	92749	13.328	13.134	13.518
ProbeTrackDT01	25	ProbeTrack	10.4	SCS215a	20100714.131113	20100714.132254	8	0.013328	60	10	60-180	60	162	GapExp	0	110	2	4	1	distractor	0	1986	-1000	91749	13.371	13.230	26.595
ProbeTrackDT01	25	ProbeTrack	10.4	SCS215a	20100714.131113	20100714.132302	8	0.013328	60	10	60-180	60	82	GapExp	0	111	2	75	1	distractor	0	467	-1000	90749	13.328	13.137	13.519
ProbeTrackDT01	25	ProbeTrack	10.4	SCS215a	20100714.131113	20100714.132308	8	0.013328	60	10	60-180	60	95	GapExp	0	112	2	4	0	distractor	1	640	680	91429	13.328	13.234	13.421
ProbeTrackDT01	25	ProbeTrack	10.4	SCS215a	20100714.131113	20100714.132313	8	0.013328	60	10	60-180	60	153	GapExp	0	113	2	1	1	target	1	574	713	92142	13.328	13.103	13.587
ProbeTrackDT01	25	ProbeTrack	10.4	SCS215a	20100714.131113	20100714.132319	8	0.013328	60	10	60-180	60	73	GapExp	0	114	2	2	0	distractor	1	840	580	92722	13.388	13.176	26.688
ProbeTrackDT01	25	ProbeTrack	10.4	SCS215a	20100714.131113	20100714.132324	8	0.013328	60	10	60-180	60	126	GapExp	0	115	2	75	1	target	1	400	800	93522	13.328	13.124	13.497
ProbeTrackDT01	25	ProbeTrack	10.4	SCS215a	20100714.131113	20100714.132331	8	0.013328	60	10	60-180	60	156	GapExp	0	116	2	75	0	distractor	1	574	713	94235	13.328	13.003	13.652
ProbeTrackDT01	25	ProbeTrack	10.4	SCS215a	20100714.131113	20100714.132338	8	0.013328	60	10	60-180	60	178	GapExp	0	117	2	1	0	distractor	1	813	594	94829	13.328	13.084	13.564
ProbeTrackDT01	25	ProbeTrack	10.4	SCS215a	20100714.131113	20100714.132345	8	0.013328	60	10	60-180	60	80	GapExp	0	118	2	4	1	target	1	693	654	95483	13.328	13.028	13.593
ProbeTrackDT01	25	ProbeTrack	10.4	SCS215a	20100714.131113	20100714.132350	8	0.013328	60	10	60-180	60	101	GapExp	0	119	2	75	0	distractor	1	467	767	96250	13.328	13.162	13.460
ProbeTrackDT01	25	ProbeTrack	10.4	SCS215a	20100714.131113	20100714.132356	8	0.013328	60	10	60-180	60	62	GapExp	0	120	2	0	1	target	1	1653	174	96424	13.328	13.208	13.448
ProbeTrackDT01	25	ProbeTrack	10.4	SCS215a	20100714.131113	20100714.132402	8	0.013328	60	10	60-180	60	79	GapExp	0	121	2	0	0	distractor	1	1147	427	96851	13.328	13.150	13.539
ProbeTrackDT01	25	ProbeTrack	10.4	SCS215a	20100714.131113	20100714.132407	8	0.013328	60	10	60-180	60	180	GapExp	0	122	2	75	1	target	1	360	820	97671	13.364	13.148	26.394
ProbeTrackDT01	25	ProbeTrack	10.4	SCS215a	20100714.131113	20100714.132415	8	0.013328	60	10	60-180	60	157	GapExp	0	123	2	1	0	distractor	1	467	767	98438	13.328	13.160	13.495
ProbeTrackDT01	25	ProbeTrack	10.4	SCS215a	20100714.131113	20100714.132421	8	0.013328	60	10	60-180	60	173	GapExp	0	124	2	4	0	distractor	1	600	700	99138	13.371	13.292	26.351
ProbeTrackDT01	25	ProbeTrack	10.4	SCS215a	20100714.131113	20100714.132427	8	0.013328	60	10	60-180	60	97	GapExp	0	125	2	4	0	distractor	1	521	740	99878	13.328	13.277	13.379
ProbeTrackDT01	25	ProbeTrack	10.4	SCS215a	20100714.131113	20100714.132432	8	0.013328	60	10	60-180	60	96	GapExp	0	126	2	4	0	distractor	1	574	713	100591	13.328	13.272	13.409
ProbeTrackDT01	25	ProbeTrack	10.4	SCS215a	20100714.131113	20100714.132438	8	0.013328	60	10	60-180	60	138	GapExp	0	127	2	1	1	target	1	680	660	101251	13.328	13.135	13.521
ProbeTrackDT01	25	ProbeTrack	10.4	SCS215a	20100714.131113	20100714.132444	8	0.013328	60	10	60-180	60	146	GapExp	0	128	2	0	0	distractor	1	574	713	101964	13.328	13.293	13.363
ProbeTrackDT01	25	ProbeTrack	10.4	SCS215a	20100714.131113	20100714.132449	8	0.013328	60	10	60-180	60	137	GapExp	0	129	2	0	0	distractor	1	574	713	102677	13.328	13.263	13.427
ProbeTrackDT01	25	ProbeTrack	10.4	SCS215a	20100714.131113	20100714.132455	8	0.013328	60	10	60-180	60	87	GapExp	0	130	2	75	1	target	1	720	640	103317	13.328	12.946	13.708
ProbeTrackDT01	25	ProbeTrack	10.4	SCS215a	20100714.131113	20100714.132501	8	0.013328	60	10	60-180	60	89	GapExp	0	131	2	0	0	target	0	800	-1000	102317	13.328	12.965	13.690
ProbeTrackDT01	25	ProbeTrack	10.4	SCS215a	20100714.131113	20100714.132507	8	0.013328	60	10	60-180	60	136	GapExp	0	132	2	0	1	target	1	600	700	103017	13.328	12.988	13.701
ProbeTrackDT01	25	ProbeTrack	10.4	SCS215a	20100714.131113	20100714.132513	8	0.013328	60	10	60-180	60	90	GapExp	0	133	2	75	0	distractor	1	747	627	103644	13.328	13.087	13.569
ProbeTrackDT01	25	ProbeTrack	10.4	SCS215a	20100714.131113	20100714.132519	8	0.013328	60	10	60-180	60	73	GapExp	0	134	2	1	0	distractor	1	600	700	104344	13.328	13.012	13.644
ProbeTrackDT01	25	ProbeTrack	10.4	SCS215a	20100714.131113	20100714.132524	8	0.013328	60	10	60-180	60	108	GapExp	0	135	2	1	0	distractor	1	520	740	105084	13.328	12.974	13.682
ProbeTrackDT01	25	ProbeTrack	10.4	SCS215a	20100714.131113	20100714.132529	8	0.013328	60	10	60-180	60	153	GapExp	0	136	2	1	0	distractor	1	574	713	105797	13.328	13.148	13.507
ProbeTrackDT01	25	ProbeTrack	10.4	SCS215a	20100714.131113	20100714.132535	8	0.013328	60	10	60-180	60	72	GapExp	0	137	2	0	1	target	1	494	753	106550	13.328	13.105	13.550
ProbeTrackDT01	25	ProbeTrack	10.4	SCS215a	20100714.131113	20100714.132540	8	0.013328	60	10	60-180	60	92	GapExp	0	138	2	0	1	target	1	574	713	107263	13.328	12.981	13.641
ProbeTrackDT01	25	ProbeTrack	10.4	SCS215a	20100714.131113	20100714.132546	8	0.013328	60	10	60-180	60	113	GapExp	0	139	2	75	1	target	1	507	747	108010	13.328	12.983	13.673
ProbeTrackDT01	25	ProbeTrack	10.4	SCS215a	20100714.131113	20100714.132552	8	0.013328	60	10	60-180	60	110	GapExp	0	140	2	4	1	target	1	574	713	108723	13.328	13.071	13.580
ProbeTrackDT01	25	ProbeTrack	10.4	SCS215a	20100714.131113	20100714.132557	8	0.013328	60	10	60-180	60	77	GapExp	0	141	2	1	1	target	1	440	780	109503	13.328	13.255	13.400
ProbeTrackDT01	25	ProbeTrack	10.4	SCS215a	20100714.131113	20100714.132602	8	0.013328	60	10	60-180	60	94	GapExp	0	142	2	75	1	target	1	454	773	110276	13.328	13.030	13.656
ProbeTrackDT01	25	ProbeTrack	10.4	SCS215a	20100714.131113	20100714.132608	8	0.013328	60	10	60-180	60	89	GapExp	0	143	2	0	0	distractor	1	947	527	110803	13.328	13.151	13.473
ProbeTrackDT01	25	ProbeTrack	10.4	SCS215a	20100714.131113	20100714.132614	8	0.013328	60	10	60-180	60	155	GapExp	0	144	2	0	0	distractor	1	520	740	111543	13.328	12.971	13.683
ProbeTrackDT01	25	ProbeTrack	10.4	SCS215a	20100714.131113	20100714.132620	8	0.013328	60	10	60-180	60	68	GapExp	0	145	2	4	0	distractor	1	547	727	112270	13.328	13.230	13.425
ProbeTrackDT01	25	ProbeTrack	10.4	SCS215a	20100714.131113	20100714.132625	8	0.013328	60	10	60-180	60	133	GapExp	0	146	2	0	0	distractor	1	667	667	112937	13.328	13.030	13.626
ProbeTrackDT01	25	ProbeTrack	10.4	SCS215a	20100714.131113	20100714.132631	8	0.013328	60	10	60-180	60	117	GapExp	0	147	2	2	0	distractor	1	440	780	113717	13.328	12.935	13.719
ProbeTrackDT01	25	ProbeTrack	10.4	SCS215a	20100714.131113	20100714.132636	8	0.013328	60	10	60-180	60	154	GapExp	0	148	2	0	0	distractor	1	520	740	114457	13.328	13.047	13.609
ProbeTrackDT01	25	ProbeTrack	10.4	SCS215a	20100714.131113	20100714.132642	8	0.013328	60	10	60-180	60	62	GapExp	0	149	2	75	0	distractor	1	534	733	115190	13.328	13.160	13.496
ProbeTrackDT01	25	ProbeTrack	10.4	SCS215a	20100714.131113	20100714.132648	8	0.013328	60	10	60-180	60	63	GapExp	0	150	2	75	0	target	0	414	-1000	114190	13.328	13.121	13.534
ProbeTrackDT01	25	ProbeTrack	10.4	SCS215a	20100714.131113	20100714.132731	8	0.013328	60	10	60-180	60	151	GapExp	0	151	2	0	1	distractor	0	480	-1000	113190	13.328	13.089	13.533
ProbeTrackDT01	25	ProbeTrack	10.4	SCS215a	20100714.131113	20100714.132737	8	0.013328	60	10	60-180	60	118	GapExp	0	152	2	0	1	target	1	467	767	113957	13.328	12.965	13.723
ProbeTrackDT01	25	ProbeTrack	10.4	SCS215a	20100714.131113	20100714.132742	8	0.013328	60	10	60-180	60	94	GapExp	0	153	2	75	0	distractor	1	440	780	114737	13.328	12.920	13.703
ProbeTrackDT01	25	ProbeTrack	10.4	SCS215a	20100714.131113	20100714.132748	8	0.013328	60	10	60-180	60	149	GapExp	0	154	2	0	0	target	0	827	-1000	113737	13.328	13.087	13.542
ProbeTrackDT01	25	ProbeTrack	10.4	SCS215a	20100714.131113	20100714.132755	8	0.013328	60	10	60-180	60	99	GapExp	0	155	2	4	1	target	1	614	693	114430	13.328	13.134	13.523
ProbeTrackDT01	25	ProbeTrack	10.4	SCS215a	20100714.131113	20100714.132800	8	0.013328	60	10	60-180	60	110	GapExp	0	156	2	0	0	target	0	1040	-1000	113430	13.328	13.087	13.568
ProbeTrackDT01	25	ProbeTrack	10.4	SCS215a	20100714.131113	20100714.132806	8	0.013328	60	10	60-180	60	77	GapExp	0	157	2	75	0	distractor	1	1373	314	113744	13.328	12.940	13.683
ProbeTrackDT01	25	ProbeTrack	10.4	SCS215a	20100714.131113	20100714.132813	8	0.013328	60	10	60-180	60	131	GapExp	0	158	2	4	0	target	0	1186	-1000	112744	13.328	13.147	13.508
ProbeTrackDT01	25	ProbeTrack	10.4	SCS215a	20100714.131113	20100714.132819	8	0.013328	60	10	60-180	60	81	GapExp	0	159	2	4	0	distractor	1	520	740	113484	13.328	12.911	13.711
ProbeTrackDT01	25	ProbeTrack	10.4	SCS215a	20100714.131113	20100714.132824	8	0.013328	60	10	60-180	60	179	GapExp	0	160	2	4	1	target	1	494	753	114237	13.328	12.972	13.717
ProbeTrackDT01	25	ProbeTrack	10.4	SCS215a	20100714.131113	20100714.132830	8	0.013328	60	10	60-180	60	150	GapExp	0	161	2	4	0	distractor	1	400	800	115037	13.328	12.937	13.751
ProbeTrackDT01	25	ProbeTrack	10.4	SCS215a	20100714.131113	20100714.132836	8	0.013328	60	10	60-180	60	134	GapExp	0	162	2	0	1	target	1	520	740	115777	13.328	12.926	13.728
ProbeTrackDT01	25	ProbeTrack	10.4	SCS215a	20100714.131113	20100714.132842	8	0.013328	60	10	60-180	60	179	GapExp	0	163	2	1	1	target	1	587	707	116484	13.328	13.020	13.602
ProbeTrackDT01	25	ProbeTrack	10.4	SCS215a	20100714.131113	20100714.132848	8	0.013328	60	10	60-180	60	99	GapExp	0	164	2	75	0	distractor	1	414	793	117277	13.328	13.046	13.644
ProbeTrackDT01	25	ProbeTrack	10.4	SCS215a	20100714.131113	20100714.132855	8	0.013328	60	10	60-180	60	160	GapExp	0	165	2	2	1	distractor	0	680	-1000	116277	13.328	13.115	13.574
ProbeTrackDT01	25	ProbeTrack	10.4	SCS215a	20100714.131113	20100714.132901	8	0.013328	60	10	60-180	60	172	GapExp	0	166	2	0	0	distractor	1	494	753	117030	13.328	12.978	13.713
ProbeTrackDT01	25	ProbeTrack	10.4	SCS215a	20100714.131113	20100714.132907	8	0.013328	60	10	60-180	60	63	GapExp	0	167	2	75	0	target	0	414	-1000	116030	13.328	13.114	13.542
ProbeTrackDT01	25	ProbeTrack	10.4	SCS215a	20100714.131113	20100714.132913	8	0.013328	60	10	60-180	60	175	GapExp	0	168	2	2	1	target	1	480	760	116790	13.328	13.062	13.593
ProbeTrackDT01	25	ProbeTrack	10.4	SCS215a	20100714.131113	20100714.132919	8	0.013328	60	10	60-180	60	163	GapExp	0	169	2	1	1	target	1	520	740	117530	13.328	13.044	13.612
ProbeTrackDT01	25	ProbeTrack	10.4	SCS215a	20100714.131113	20100714.132925	8	0.013328	60	10	60-180	60	175	GapExp	0	170	2	75	0	distractor	1	627	687	118217	13.328	12.995	13.628
ProbeTrackDT01	25	ProbeTrack	10.4	SCS215a	20100714.131113	20100714.132932	8	0.013328	60	10	60-180	60	110	GapExp	0	171	2	4	1	target	1	853	574	118791	13.328	12.939	13.684
ProbeTrackDT01	25	ProbeTrack	10.4	SCS215a	20100714.131113	20100714.132938	8	0.013328	60	10	60-180	60	134	GapExp	0	172	2	75	0	distractor	1	480	760	119551	13.328	13.190	13.467
ProbeTrackDT01	25	ProbeTrack	10.4	SCS215a	20100714.131113	20100714.132945	8	0.013328	60	10	60-180	60	133	GapExp	0	173	2	75	1	target	1	400	800	120351	13.369	12.866	26.564
ProbeTrackDT01	25	ProbeTrack	10.4	SCS215a	20100714.131113	20100714.132951	8	0.013328	60	10	60-180	60	160	GapExp	0	174	2	1	1	target	1	494	753	121104	13.328	13.057	13.632
ProbeTrackDT01	25	ProbeTrack	10.4	SCS215a	20100714.131113	20100714.132957	8	0.013328	60	10	60-180	60	63	GapExp	0	175	2	4	1	target	1	534	733	121837	13.328	13.081	13.607
ProbeTrackDT01	25	ProbeTrack	10.4	SCS215a	20100714.131113	20100714.133002	8	0.013328	60	10	60-180	60	159	GapExp	0	176	2	75	0	distractor	1	707	647	122484	13.328	13.006	13.648
ProbeTrackDT01	25	ProbeTrack	10.4	SCS215a	20100714.131113	20100714.133010	8	0.013328	60	10	60-180	60	145	GapExp	0	177	2	0	0	distractor	1	1187	407	122891	13.328	13.254	13.435
ProbeTrackDT01	25	ProbeTrack	10.4	SCS215a	20100714.131113	20100714.133016	8	0.013328	60	10	60-180	60	174	GapExp	0	178	2	1	0	distractor	1	627	687	123578	13.328	13.293	13.369
ProbeTrackDT01	25	ProbeTrack	10.4	SCS215a	20100714.131113	20100714.133022	8	0.013328	60	10	60-180	60	123	GapExp	0	179	2	0	1	target	1	507	747	124325	13.328	12.965	13.724
ProbeTrackDT01	25	ProbeTrack	10.4	SCS215a	20100714.131113	20100714.133028	8	0.013328	60	10	60-180	60	171	GapExp	0	180	2	0	1	distractor	0	507	-1000	123325	13.328	12.908	13.714
ProbeTrackDT01	25	ProbeTrack	10.4	SCS215a	20100714.131113	20100714.133034	8	0.013328	60	10	60-180	60	99	GapExp	0	181	2	4	0	distractor	1	614	693	124018	13.328	12.994	13.696
ProbeTrackDT01	25	ProbeTrack	10.4	SCS215a	20100714.131113	20100714.133040	8	0.013328	60	10	60-180	60	139	GapExp	0	182	2	4	1	distractor	0	747	-1000	123018	13.328	13.293	13.363
ProbeTrackDT01	25	ProbeTrack	10.4	SCS215a	20100714.131113	20100714.133046	8	0.013328	60	10	60-180	60	106	GapExp	0	183	2	0	1	target	1	520	740	123758	13.328	13.293	13.363
ProbeTrackDT01	25	ProbeTrack	10.4	SCS215a	20100714.131113	20100714.133051	8	0.013328	60	10	60-180	60	83	GapExp	0	184	2	1	0	distractor	1	534	733	124491	13.328	12.980	13.675
ProbeTrackDT01	25	ProbeTrack	10.4	SCS215a	20100714.131113	20100714.133056	8	0.013328	60	10	60-180	60	129	GapExp	0	185	2	1	0	distractor	1	360	820	125311	13.328	13.292	13.363
ProbeTrackDT01	25	ProbeTrack	10.4	SCS215a	20100714.131113	20100714.133102	8	0.013328	60	10	60-180	60	174	GapExp	0	186	2	1	0	distractor	1	560	720	126031	13.328	13.293	13.363
ProbeTrackDT01	25	ProbeTrack	10.4	SCS215a	20100714.131113	20100714.133108	8	0.013328	60	10	60-180	60	131	GapExp	0	187	2	4	0	target	0	733	-1000	125031	13.328	12.966	13.690
ProbeTrackDT01	25	ProbeTrack	10.4	SCS215a	20100714.131113	20100714.133114	8	0.013328	60	10	60-180	60	146	GapExp	0	188	2	1	1	distractor	0	454	-1000	124031	13.328	12.974	13.681
ProbeTrackDT01	25	ProbeTrack	10.4	SCS215a	20100714.131113	20100714.133120	8	0.013328	60	10	60-180	60	151	GapExp	0	189	2	75	1	target	1	360	820	124851	13.328	13.014	13.641
ProbeTrackDT01	25	ProbeTrack	10.4	SCS215a	20100714.131113	20100714.133126	8	0.013328	60	10	60-180	60	140	GapExp	0	190	2	0	0	distractor	1	560	720	125571	13.328	13.034	13.588
ProbeTrackDT01	25	ProbeTrack	10.4	SCS215a	20100714.131113	20100714.133132	8	0.013328	60	10	60-180	60	153	GapExp	0	191	2	2	1	target	1	1360	320	125891	13.328	13.279	13.409
ProbeTrackDT01	25	ProbeTrack	10.4	SCS215a	20100714.131113	20100714.133139	8	0.013328	60	10	60-180	60	167	GapExp	0	192	2	4	1	target	1	400	800	126691	13.328	13.135	13.521
ProbeTrackDT01	25	ProbeTrack	10.4	SCS215a	20100714.131113	20100714.133145	8	0.013328	60	10	60-180	60	62	GapExp	0	193	2	2	1	target	1	614	693	127384	13.328	13.293	13.363
ProbeTrackDT01	25	ProbeTrack	10.4	SCS215a	20100714.131113	20100714.133150	8	0.013328	60	10	60-180	60	160	GapExp	0	194	2	75	1	distractor	0	574	-1000	126384	13.328	12.996	13.516
ProbeTrackDT01	25	ProbeTrack	10.4	SCS215a	20100714.131113	20100714.133157	8	0.013328	60	10	60-180	60	132	GapExp	0	195	2	75	0	distractor	1	520	740	127124	13.328	13.249	13.372
ProbeTrackDT01	25	ProbeTrack	10.4	SCS215a	20100714.131113	20100714.133204	8	0.013328	60	10	60-180	60	136	GapExp	0	196	2	0	1	target	1	640	680	127804	13.328	12.949	13.739
ProbeTrackDT01	25	ProbeTrack	10.4	SCS215a	20100714.131113	20100714.133210	8	0.013328	60	10	60-180	60	98	GapExp	0	197	2	1	0	distractor	1	600	700	128504	13.328	13.292	13.363
ProbeTrackDT01	25	ProbeTrack	10.4	SCS215a	20100714.131113	20100714.133215	8	0.013328	60	10	60-180	60	71	GapExp	0	198	2	0	0	distractor	1	614	693	129197	13.328	13.293	13.363
ProbeTrackDT01	25	ProbeTrack	10.4	SCS215a	20100714.131113	20100714.133220	8	0.013328	60	10	60-180	60	81	GapExp	0	199	2	2	0	distractor	1	574	713	129910	13.328	13.165	13.524
ProbeTrackDT01	25	ProbeTrack	10.4	SCS215a	20100714.131113	20100714.133225	8	0.013328	60	10	60-180	60	158	GapExp	0	200	2	2	1	target	1	800	600	130510	13.328	13.160	13.494
ProbeTrackDT01	25	ProbeTrack	10.4	SCS215a	20100714.131113	20100714.133246	8	0.013328	60	10	60-180	60	103	GapExp	0	201	2	4	1	target	1	480	760	131270	13.328	13.140	13.515
ProbeTrackDT01	25	ProbeTrack	10.4	SCS215a	20100714.131113	20100714.133251	8	0.013328	60	10	60-180	60	153	GapExp	0	202	2	1	1	target	1	520	740	132010	13.328	12.980	13.643
ProbeTrackDT01	25	ProbeTrack	10.4	SCS215a	20100714.131113	20100714.133257	8	0.013328	60	10	60-180	60	130	GapExp	0	203	2	2	0	distractor	1	627	687	132697	13.328	13.048	13.643
ProbeTrackDT01	25	ProbeTrack	10.4	SCS215a	20100714.131113	20100714.133303	8	0.013328	60	10	60-180	60	131	GapExp	0	204	2	0	1	target	1	520	740	133437	13.328	13.288	13.401
ProbeTrackDT01	25	ProbeTrack	10.4	SCS215a	20100714.131113	20100714.133309	8	0.013328	60	10	60-180	60	71	GapExp	0	205	2	75	0	distractor	1	1173	414	133851	13.328	13.058	13.564
ProbeTrackDT01	25	ProbeTrack	10.4	SCS215a	20100714.131113	20100714.133315	8	0.013328	60	10	60-180	60	148	GapExp	0	206	2	4	1	target	1	400	800	134651	13.328	13.078	13.577
ProbeTrackDT01	25	ProbeTrack	10.4	SCS215a	20100714.131113	20100714.133321	8	0.013328	60	10	60-180	60	95	GapExp	0	207	2	1	1	target	1	574	713	135364	13.328	13.110	13.512
ProbeTrackDT01	25	ProbeTrack	10.4	SCS215a	20100714.131113	20100714.133326	8	0.013328	60	10	60-180	60	123	GapExp	0	208	2	1	0	distractor	1	387	807	136171	13.328	12.975	13.681
ProbeTrackDT01	25	ProbeTrack	10.4	SCS215a	20100714.131113	20100714.133332	8	0.013328	60	10	60-180	60	162	GapExp	0	209	2	1	0	distractor	1	560	720	136891	13.328	13.146	13.509
ProbeTrackDT01	25	ProbeTrack	10.4	SCS215a	20100714.131113	20100714.133338	8	0.013328	60	10	60-180	60	62	GapExp	0	210	2	2	1	target	1	1586	207	137098	13.328	13.293	13.363
