exp	sub	code	rev	comp	runtime	trialtime	nstim	refreshdur	cuedur	gapdur	gapOnsetRange	durPostProbe	gapOnsetTime	blocktype	prac	trial	ntargets	soa	probeTarget	resp	acc	rt	pts	tpts	meanFrameDur	minFrameDur	maxFrameDur
ProbeTrackDT01	6	ProbeTrackDT01	10.3	SCS215a	20100519.152910	20100519.152948	8	0.013327	60	0	60-180	60	145	NoGap	1	1	3	75	0	distractor	1	4785	0	0	13.328	13.204	13.485
ProbeTrackDT01	6	ProbeTrackDT01	10.3	SCS215a	20100519.152910	20100519.152959	8	0.013327	60	0	60-180	60	167	NoGap	1	2	3	2	1	distractor	0	1173	-1000	-1000	13.328	13.290	13.365
ProbeTrackDT01	6	ProbeTrackDT01	10.3	SCS215a	20100519.152910	20100519.153006	8	0.013327	60	0	60-180	60	168	NoGap	1	3	3	2	1	target	1	2719	0	-1000	13.328	13.293	13.363
ProbeTrackDT01	6	ProbeTrackDT01	10.3	SCS215a	20100519.152910	20100519.153014	8	0.013327	60	0	60-180	60	82	NoGap	1	4	3	75	1	target	1	840	580	-420	13.328	13.293	13.363
ProbeTrackDT01	6	ProbeTrackDT01	10.3	SCS215a	20100519.152910	20100519.153020	8	0.013327	60	0	60-180	60	105	NoGap	1	5	3	4	1	target	1	1013	494	74	13.328	13.293	13.364
ProbeTrackDT01	6	ProbeTrackDT01	10.3	SCS215a	20100519.152910	20100519.153026	8	0.013327	60	0	60-180	60	84	NoGap	1	6	3	1	1	target	1	653	674	748	13.328	13.293	13.363
ProbeTrackDT01	6	ProbeTrackDT01	10.3	SCS215a	20100519.152910	20100519.153031	8	0.013327	60	0	60-180	60	176	NoGap	1	7	3	4	1	target	1	533	734	1482	13.328	13.270	13.363
ProbeTrackDT01	6	ProbeTrackDT01	10.3	SCS215a	20100519.152910	20100519.153037	8	0.013327	60	0	60-180	60	103	NoGap	1	8	3	0	0	distractor	1	694	653	2135	13.328	13.101	13.553
ProbeTrackDT01	6	ProbeTrackDT01	10.3	SCS215a	20100519.152910	20100519.153043	8	0.013327	60	0	60-180	60	109	NoGap	1	9	3	0	1	target	1	587	707	2842	13.328	13.195	13.427
ProbeTrackDT01	6	ProbeTrackDT01	10.3	SCS215a	20100519.152910	20100519.153048	8	0.013327	60	0	60-180	60	64	NoGap	1	10	3	75	0	distractor	1	747	627	3469	13.328	13.252	13.403
ProbeTrackDT01	6	ProbeTrackDT01	10.3	SCS215a	20100519.152910	20100519.153054	8	0.013327	60	0	60-180	60	179	NoGap	1	11	3	75	0	distractor	1	1080	460	3929	13.328	13.121	13.533
ProbeTrackDT01	6	ProbeTrackDT01	10.3	SCS215a	20100519.152910	20100519.153101	8	0.013327	60	0	60-180	60	80	NoGap	1	12	3	1	1	target	1	800	600	4529	13.328	13.293	13.363
ProbeTrackDT01	6	ProbeTrackDT01	10.3	SCS215a	20100519.152910	20100519.153107	8	0.013327	60	0	60-180	60	170	NoGap	1	13	3	1	1	target	1	693	654	5183	13.328	13.293	13.363
ProbeTrackDT01	6	ProbeTrackDT01	10.3	SCS215a	20100519.152910	20100519.153113	8	0.013327	60	0	60-180	60	95	NoGap	1	14	3	75	1	target	1	467	767	5950	13.328	13.293	13.363
ProbeTrackDT01	6	ProbeTrackDT01	10.3	SCS215a	20100519.152910	20100519.153119	8	0.013327	60	0	60-180	60	68	NoGap	1	15	3	1	0	distractor	1	627	687	6637	13.328	13.293	13.363
ProbeTrackDT01	6	ProbeTrackDT01	10.3	SCS215a	20100519.152910	20100519.153124	8	0.013327	60	0	60-180	60	100	NoGap	1	16	3	2	0	distractor	1	720	640	7277	13.328	13.293	13.363
ProbeTrackDT01	6	ProbeTrackDT01	10.3	SCS215a	20100519.152910	20100519.153129	8	0.013327	60	0	60-180	60	69	NoGap	1	17	3	2	0	distractor	1	547	727	8004	13.328	12.915	13.740
ProbeTrackDT01	6	ProbeTrackDT01	10.3	SCS215a	20100519.152910	20100519.153134	8	0.013327	60	0	60-180	60	134	NoGap	1	18	3	0	1	distractor	0	560	-1000	7004	13.328	13.012	13.645
ProbeTrackDT01	6	ProbeTrackDT01	10.3	SCS215a	20100519.152910	20100519.153139	8	0.013327	60	0	60-180	60	130	NoGap	1	19	3	2	1	target	1	680	660	7664	13.328	13.117	13.571
ProbeTrackDT01	6	ProbeTrackDT01	10.3	SCS215a	20100519.152910	20100519.153145	8	0.013327	60	0	60-180	60	144	NoGap	1	20	3	4	0	target	0	320	-1000	6664	13.328	13.289	13.366
ProbeTrackDT01	6	ProbeTrackDT01	10.3	SCS215a	20100519.152910	20100519.153150	8	0.013327	60	0	60-180	60	143	NoGap	1	21	3	0	0	distractor	1	1240	380	7044	13.328	13.293	13.363
ProbeTrackDT01	6	ProbeTrackDT01	10.3	SCS215a	20100519.152910	20100519.153157	8	0.013327	60	0	60-180	60	65	NoGap	1	22	3	0	1	target	1	587	707	7751	13.328	13.293	13.363
ProbeTrackDT01	6	ProbeTrackDT01	10.3	SCS215a	20100519.152910	20100519.153202	8	0.013327	60	0	60-180	60	104	NoGap	1	23	3	75	0	distractor	1	573	714	8465	13.328	13.290	13.363
ProbeTrackDT01	6	ProbeTrackDT01	10.3	SCS215a	20100519.152910	20100519.153208	8	0.013327	60	0	60-180	60	88	NoGap	1	24	3	75	1	target	1	1226	387	8852	13.328	13.172	13.517
ProbeTrackDT01	6	ProbeTrackDT01	10.3	SCS215a	20100519.152910	20100519.153214	8	0.013327	60	0	60-180	60	74	NoGap	1	25	3	1	1	target	1	3692	0	8852	13.328	13.117	13.539
ProbeTrackDT01	6	ProbeTrackDT01	10.3	SCS215a	20100519.152910	20100519.153222	8	0.013327	60	0	60-180	60	132	NoGap	1	26	3	4	1	target	1	547	727	9579	13.328	13.240	13.415
ProbeTrackDT01	6	ProbeTrackDT01	10.3	SCS215a	20100519.152910	20100519.153228	8	0.013327	60	0	60-180	60	161	NoGap	1	27	3	75	1	target	1	773	614	10193	13.328	13.293	13.363
ProbeTrackDT01	6	ProbeTrackDT01	10.3	SCS215a	20100519.152910	20100519.153235	8	0.013327	60	0	60-180	60	174	NoGap	1	28	3	4	1	distractor	0	560	-1000	9193	13.328	13.293	13.370
ProbeTrackDT01	6	ProbeTrackDT01	10.3	SCS215a	20100519.152910	20100519.153241	8	0.013327	60	0	60-180	60	69	NoGap	1	29	3	1	0	distractor	1	707	647	9840	13.328	13.210	13.479
ProbeTrackDT01	6	ProbeTrackDT01	10.3	SCS215a	20100519.152910	20100519.153246	8	0.013327	60	0	60-180	60	168	NoGap	1	30	3	0	0	distractor	1	1027	487	10327	13.328	13.270	13.418
ProbeTrackDT01	6	ProbeTrackDT01	10.3	SCS215a	20100519.152910	20100519.153253	8	0.013327	60	0	60-180	60	148	NoGap	1	31	3	2	0	target	0	507	-1000	9327	13.328	13.293	13.363
ProbeTrackDT01	6	ProbeTrackDT01	10.3	SCS215a	20100519.152910	20100519.153259	8	0.013327	60	0	60-180	60	146	NoGap	1	32	3	4	0	distractor	1	600	700	10027	13.328	13.293	13.363
ProbeTrackDT01	6	ProbeTrackDT01	10.3	SCS215a	20100519.152910	20100519.153304	8	0.013327	60	0	60-180	60	129	NoGap	1	33	3	4	0	distractor	1	1186	407	10434	13.328	13.293	13.363
ProbeTrackDT01	6	ProbeTrackDT01	10.3	SCS215a	20100519.152910	20100519.153311	8	0.013327	60	0	60-180	60	70	NoGap	1	34	3	1	0	distractor	1	1240	380	10814	13.328	13.292	13.362
ProbeTrackDT01	6	ProbeTrackDT01	10.3	SCS215a	20100519.152910	20100519.153316	8	0.013327	60	0	60-180	60	68	NoGap	1	35	3	2	0	distractor	1	640	680	11494	13.328	13.254	13.402
ProbeTrackDT01	6	ProbeTrackDT01	10.3	SCS215a	20100519.152910	20100519.153321	8	0.013327	60	0	60-180	60	136	NoGap	1	36	3	2	1	target	1	334	833	12327	13.328	13.279	13.378
ProbeTrackDT01	6	ProbeTrackDT01	10.3	SCS215a	20100519.152910	20100519.153326	8	0.013327	60	0	60-180	60	127	NoGap	1	37	3	4	0	distractor	1	774	613	12940	13.328	13.292	13.366
ProbeTrackDT01	6	ProbeTrackDT01	10.3	SCS215a	20100519.152910	20100519.153332	8	0.013327	60	0	60-180	60	66	NoGap	1	38	3	0	1	target	1	440	780	13720	13.328	13.293	13.362
ProbeTrackDT01	6	ProbeTrackDT01	10.3	SCS215a	20100519.152910	20100519.153337	8	0.013327	60	0	60-180	60	94	NoGap	1	39	3	1	0	distractor	1	427	787	14507	13.328	13.293	13.365
ProbeTrackDT01	6	ProbeTrackDT01	10.3	SCS215a	20100519.152910	20100519.153348	8	0.013327	60	0	60-180	60	100	NoGap	1	40	3	0	0	target	0	347	-1000	13507	13.328	13.291	13.363
ProbeTrackDT01	6	ProbeTrackDT01	10.3	SCS215a	20100519.153426	20100519.153435	8	0.013328	60	10	60-180	60	63	GapPrac	1	1	3	1	1	distractor	0	2106	-1000	12507	13.328	13.268	13.364
ProbeTrackDT01	6	ProbeTrackDT01	10.3	SCS215a	20100519.153426	20100519.153442	8	0.013328	60	10	60-180	60	158	GapPrac	1	2	3	2	0	target	0	2159	-1000	11507	13.328	13.079	13.578
ProbeTrackDT01	6	ProbeTrackDT01	10.3	SCS215a	20100519.153426	20100519.153449	8	0.013328	60	10	60-180	60	160	GapPrac	1	3	3	75	1	target	1	1160	420	11927	13.328	13.293	13.363
ProbeTrackDT01	6	ProbeTrackDT01	10.3	SCS215a	20100519.153426	20100519.153457	8	0.013328	60	10	60-180	60	75	GapPrac	1	4	3	4	0	distractor	1	760	620	12547	13.328	13.089	13.600
ProbeTrackDT01	6	ProbeTrackDT01	10.3	SCS215a	20100519.153426	20100519.153502	8	0.013328	60	10	60-180	60	112	GapPrac	1	5	3	1	0	distractor	1	1147	427	12974	13.328	12.980	13.710
ProbeTrackDT01	6	ProbeTrackDT01	10.3	SCS215a	20100519.153426	20100519.153508	8	0.013328	60	10	60-180	60	77	GapPrac	1	6	3	2	1	multi	-2	867	-1000	11974	13.328	13.041	13.581
ProbeTrackDT01	6	ProbeTrackDT01	10.3	SCS215a	20100519.153426	20100519.153514	8	0.013328	60	10	60-180	60	132	GapPrac	1	7	3	4	0	distractor	1	800	600	12574	13.375	13.293	26.472
ProbeTrackDT01	6	ProbeTrackDT01	10.3	SCS215a	20100519.153426	20100519.153520	8	0.013328	60	10	60-180	60	109	GapPrac	1	8	3	0	1	distractor	0	813	-1000	11574	13.328	13.289	13.366
ProbeTrackDT01	6	ProbeTrackDT01	10.3	SCS215a	20100519.153426	20100519.153525	8	0.013328	60	10	60-180	60	62	GapPrac	1	9	3	0	0	distractor	1	2373	0	11574	13.328	13.078	13.577
ProbeTrackDT01	6	ProbeTrackDT01	10.3	SCS215a	20100519.153426	20100519.153532	8	0.013328	60	10	60-180	60	139	GapPrac	1	10	3	4	1	distractor	0	1453	-1000	10574	13.328	13.134	13.523
ProbeTrackDT01	6	ProbeTrackDT01	10.3	SCS215a	20100519.153426	20100519.153539	8	0.013328	60	10	60-180	60	165	GapPrac	1	11	3	1	1	distractor	0	1000	-1000	9574	13.328	13.149	13.507
ProbeTrackDT01	6	ProbeTrackDT01	10.3	SCS215a	20100519.153426	20100519.153545	8	0.013328	60	10	60-180	60	109	GapPrac	1	12	3	75	0	distractor	1	800	600	10174	13.328	13.039	13.650
ProbeTrackDT01	6	ProbeTrackDT01	10.3	SCS215a	20100519.153426	20100519.153552	8	0.013328	60	10	60-180	60	92	GapPrac	1	13	3	4	1	target	1	840	580	10754	13.328	13.105	13.552
ProbeTrackDT01	6	ProbeTrackDT01	10.3	SCS215a	20100519.153426	20100519.153557	8	0.013328	60	10	60-180	60	100	GapPrac	1	14	3	2	0	target	0	2146	-1000	9754	13.328	13.283	13.406
ProbeTrackDT01	6	ProbeTrackDT01	10.3	SCS215a	20100519.153426	20100519.153604	8	0.013328	60	10	60-180	60	173	GapPrac	1	15	3	0	0	distractor	1	867	567	10321	13.328	13.084	13.605
ProbeTrackDT01	6	ProbeTrackDT01	10.3	SCS215a	20100519.153426	20100519.153611	8	0.013328	60	10	60-180	60	79	GapPrac	1	16	3	75	0	distractor	1	827	587	10908	13.328	13.174	13.481
ProbeTrackDT01	6	ProbeTrackDT01	10.3	SCS215a	20100519.153426	20100519.153617	8	0.013328	60	10	60-180	60	166	GapPrac	1	17	3	1	0	distractor	1	680	660	11568	13.328	13.059	13.581
ProbeTrackDT01	6	ProbeTrackDT01	10.3	SCS215a	20100519.153426	20100519.153623	8	0.013328	60	10	60-180	60	128	GapPrac	1	18	3	2	1	target	1	920	540	12108	13.328	13.121	13.500
ProbeTrackDT01	6	ProbeTrackDT01	10.3	SCS215a	20100519.153426	20100519.153629	8	0.013328	60	10	60-180	60	109	GapPrac	1	19	3	75	1	target	1	653	674	12782	13.328	13.232	13.456
ProbeTrackDT01	6	ProbeTrackDT01	10.3	SCS215a	20100519.153426	20100519.153636	8	0.013328	60	10	60-180	60	158	GapPrac	1	20	3	0	1	target	1	853	574	13356	13.328	13.293	13.363
ProbeTrackDT01	6	ProbeTrackDT01	10.3	SCS215a	20100519.153721	20100519.153814	8	0.013328	60	10	60-180	60	90	GapPrac	1	1	3	4	1	distractor	0	960	-1000	12356	13.328	13.248	13.408
ProbeTrackDT01	6	ProbeTrackDT01	10.3	SCS215a	20100519.153721	20100519.153820	8	0.013328	60	10	60-180	60	166	GapPrac	1	2	3	2	1	multi	-2	987	-1000	11356	13.328	13.116	13.539
ProbeTrackDT01	6	ProbeTrackDT01	10.3	SCS215a	20100519.153721	20100519.153827	8	0.013328	60	10	60-180	60	158	GapPrac	1	3	3	0	0	distractor	1	1000	500	11856	13.328	13.171	13.452
ProbeTrackDT01	6	ProbeTrackDT01	10.3	SCS215a	20100519.153721	20100519.153833	8	0.013328	60	10	60-180	60	163	GapPrac	1	4	3	0	1	distractor	0	933	-1000	10856	13.328	13.105	13.551
ProbeTrackDT01	6	ProbeTrackDT01	10.3	SCS215a	20100519.153721	20100519.153840	8	0.013328	60	10	60-180	60	124	GapPrac	1	5	3	75	1	distractor	0	800	-1000	9856	13.328	13.293	13.363
ProbeTrackDT01	6	ProbeTrackDT01	10.3	SCS215a	20100519.153721	20100519.153847	8	0.013328	60	10	60-180	60	100	GapPrac	1	6	3	2	0	target	0	5571	-1000	8856	13.328	13.181	13.441
ProbeTrackDT01	6	ProbeTrackDT01	10.3	SCS215a	20100519.153721	20100519.153857	8	0.013328	60	10	60-180	60	62	GapPrac	1	7	3	0	0	distractor	1	1120	440	9296	13.328	13.293	13.363
ProbeTrackDT01	6	ProbeTrackDT01	10.3	SCS215a	20100519.153721	20100519.153902	8	0.013328	60	10	60-180	60	114	GapPrac	1	8	3	4	0	distractor	1	2586	0	9296	13.328	13.152	13.504
ProbeTrackDT01	6	ProbeTrackDT01	10.3	SCS215a	20100519.153721	20100519.153910	8	0.013328	60	10	60-180	60	122	GapPrac	1	9	3	75	1	distractor	0	880	-1000	8296	13.328	13.190	13.465
ProbeTrackDT01	6	ProbeTrackDT01	10.3	SCS215a	20100519.153721	20100519.153917	8	0.013328	60	10	60-180	60	169	GapPrac	1	10	3	75	0	target	0	10023	-1000	7296	13.328	13.184	13.504
ProbeTrackDT01	6	ProbeTrackDT01	10.3	SCS215a	20100519.153721	20100519.153933	8	0.013328	60	10	60-180	60	146	GapPrac	1	11	3	0	1	distractor	0	1400	-1000	6296	13.328	13.132	13.523
ProbeTrackDT01	6	ProbeTrackDT01	10.3	SCS215a	20100519.153721	20100519.153940	8	0.013328	60	10	60-180	60	161	GapPrac	1	12	3	4	0	distractor	1	760	620	6916	13.328	13.204	13.485
ProbeTrackDT01	6	ProbeTrackDT01	10.3	SCS215a	20100519.153721	20100519.153947	8	0.013328	60	10	60-180	60	180	GapPrac	1	13	3	2	1	distractor	0	1426	-1000	5916	13.328	13.122	13.533
ProbeTrackDT01	6	ProbeTrackDT01	10.3	SCS215a	20100519.153721	20100519.153954	8	0.013328	60	10	60-180	60	66	GapPrac	1	14	3	4	1	target	1	720	640	6556	13.328	13.293	13.363
ProbeTrackDT01	6	ProbeTrackDT01	10.3	SCS215a	20100519.153721	20100519.153959	8	0.013328	60	10	60-180	60	66	GapPrac	1	15	3	2	0	distractor	1	2119	0	6556	13.328	13.191	13.465
ProbeTrackDT01	6	ProbeTrackDT01	10.3	SCS215a	20100519.153721	20100519.154005	8	0.013328	60	10	60-180	60	67	GapPrac	1	16	3	1	1	target	1	1120	440	6996	13.328	13.084	13.538
ProbeTrackDT01	6	ProbeTrackDT01	10.3	SCS215a	20100519.153721	20100519.154011	8	0.013328	60	10	60-180	60	168	GapPrac	1	17	3	75	0	distractor	1	684	658	7654	13.328	13.055	13.600
ProbeTrackDT01	6	ProbeTrackDT01	10.3	SCS215a	20100519.153721	20100519.154018	8	0.013328	60	10	60-180	60	137	GapPrac	1	18	3	1	1	83	-3	14488	-1000	6654	13.328	13.293	13.363
ProbeTrackDT01	6	ProbeTrackDT01	10.3	SCS215a	20100519.153721	20100519.154038	8	0.013328	60	10	60-180	60	157	GapPrac	1	19	3	1	0	distractor	1	1173	414	7068	13.328	13.029	13.625
ProbeTrackDT01	6	ProbeTrackDT01	10.3	SCS215a	20100519.153721	20100519.154044	8	0.013328	60	10	60-180	60	92	GapPrac	1	20	3	1	0	target	0	7984	-1000	6068	13.328	13.287	13.368
ProbeTrackDT01	6	ProbeTrackDT01	10.3	SCS215a	20100519.154128	20100519.154156	8	0.013328	60	10	60-180	60	119	GapExp	1	1	3	1	0	distractor	1	1373	314	6382	13.328	13.008	13.616
ProbeTrackDT01	6	ProbeTrackDT01	10.3	SCS215a	20100519.154128	20100519.154203	8	0.013328	60	10	60-180	60	154	GapExp	1	2	3	75	0	distractor	1	853	574	6956	13.399	13.202	26.508
ProbeTrackDT01	6	ProbeTrackDT01	10.3	SCS215a	20100519.154128	20100519.154210	8	0.013328	60	10	60-180	60	158	GapExp	1	3	3	75	1	distractor	0	2626	-1000	5956	13.328	13.163	13.490
ProbeTrackDT01	6	ProbeTrackDT01	10.3	SCS215a	20100519.154128	20100519.154219	8	0.013328	60	10	60-180	60	74	GapExp	1	4	3	0	1	target	1	1213	394	6350	13.328	13.293	13.363
ProbeTrackDT01	6	ProbeTrackDT01	10.3	SCS215a	20100519.154128	20100519.154225	8	0.013328	60	10	60-180	60	141	GapExp	1	5	3	4	1	target	1	747	627	6977	13.328	13.289	13.366
ProbeTrackDT01	6	ProbeTrackDT01	10.3	SCS215a	20100519.154128	20100519.154231	8	0.013328	60	10	60-180	60	109	GapExp	1	6	3	2	1	target	1	1187	407	7384	13.328	13.104	13.550
ProbeTrackDT01	6	ProbeTrackDT01	10.3	SCS215a	20100519.154128	20100519.154237	8	0.013328	60	10	60-180	60	93	GapExp	1	7	3	0	0	distractor	1	693	654	8038	13.385	13.093	26.567
ProbeTrackDT01	6	ProbeTrackDT01	10.3	SCS215a	20100519.154128	20100519.154242	8	0.013328	60	10	60-180	60	179	GapExp	1	8	3	4	0	target	0	1346	-1000	7038	13.328	13.293	13.363
ProbeTrackDT01	6	ProbeTrackDT01	10.3	SCS215a	20100519.154128	20100519.154249	8	0.013328	60	10	60-180	60	163	GapExp	1	9	3	2	0	distractor	1	440	780	7818	13.328	13.289	13.365
ProbeTrackDT01	6	ProbeTrackDT01	10.3	SCS215a	20100519.154128	20100519.154255	8	0.013328	60	10	60-180	60	122	GapExp	1	10	3	1	1	target	1	2293	0	7818	13.328	13.293	13.363
ProbeTrackDT01	6	ProbeTrackDT01	10.3	SCS215a	20100519.154128	20100519.154303	8	0.013328	60	10	60-180	60	104	GapExp	0	11	3	75	0	distractor	1	1786	107	7925	13.328	13.097	13.564
ProbeTrackDT01	6	ProbeTrackDT01	10.3	SCS215a	20100519.154128	20100519.154310	8	0.013328	60	10	60-180	60	74	GapExp	0	12	3	4	0	target	0	4638	-1000	6925	13.328	13.293	13.364
ProbeTrackDT01	6	ProbeTrackDT01	10.3	SCS215a	20100519.154128	20100519.154319	8	0.013328	60	10	60-180	60	93	GapExp	0	13	3	2	0	distractor	1	1067	467	7392	13.328	13.293	13.363
ProbeTrackDT01	6	ProbeTrackDT01	10.3	SCS215a	20100519.154128	20100519.154325	8	0.013328	60	10	60-180	60	168	GapExp	0	14	3	2	1	distractor	0	11555	-1000	6392	13.370	13.054	26.713
ProbeTrackDT01	6	ProbeTrackDT01	10.3	SCS215a	20100519.154128	20100519.154342	8	0.013328	60	10	60-180	60	87	GapExp	0	15	3	4	0	target	0	6171	-1000	5392	13.328	13.205	13.462
ProbeTrackDT01	6	ProbeTrackDT01	10.3	SCS215a	20100519.154128	20100519.154353	8	0.013328	60	10	60-180	60	72	GapExp	0	16	3	1	0	target	0	1346	-1000	4392	13.328	13.293	13.363
ProbeTrackDT01	6	ProbeTrackDT01	10.3	SCS215a	20100519.154128	20100519.154359	8	0.013328	60	10	60-180	60	67	GapExp	0	17	3	0	1	distractor	0	933	-1000	3392	13.328	13.286	13.371
ProbeTrackDT01	6	ProbeTrackDT01	10.3	SCS215a	20100519.154128	20100519.154404	8	0.013328	60	10	60-180	60	147	GapExp	0	18	3	1	1	target	1	1906	47	3439	13.328	12.968	13.721
ProbeTrackDT01	6	ProbeTrackDT01	10.3	SCS215a	20100519.154128	20100519.154412	8	0.013328	60	10	60-180	60	158	GapExp	0	19	3	1	0	distractor	1	1333	334	3773	13.328	12.975	13.681
ProbeTrackDT01	6	ProbeTrackDT01	10.3	SCS215a	20100519.154128	20100519.154419	8	0.013328	60	10	60-180	60	128	GapExp	0	20	3	0	1	distractor	0	4025	-1000	2773	13.328	13.293	13.363
ProbeTrackDT01	6	ProbeTrackDT01	10.3	SCS215a	20100519.154128	20100519.154428	8	0.013328	60	10	60-180	60	100	GapExp	0	21	3	2	1	target	1	787	607	3380	13.328	13.293	13.363
ProbeTrackDT01	6	ProbeTrackDT01	10.3	SCS215a	20100519.154128	20100519.154433	8	0.013328	60	10	60-180	60	84	GapExp	0	22	3	1	1	distractor	0	4172	-1000	2380	13.328	13.070	13.552
ProbeTrackDT01	6	ProbeTrackDT01	10.3	SCS215a	20100519.154128	20100519.154442	8	0.013328	60	10	60-180	60	74	GapExp	0	23	3	0	1	target	1	19032	0	2380	13.328	13.293	13.363
ProbeTrackDT01	6	ProbeTrackDT01	10.3	SCS215a	20100519.154128	20100519.154505	8	0.013328	60	10	60-180	60	180	GapExp	0	24	3	4	1	distractor	0	733	-1000	1380	13.328	13.293	13.364
ProbeTrackDT01	6	ProbeTrackDT01	10.3	SCS215a	20100519.154128	20100519.154512	8	0.013328	60	10	60-180	60	145	GapExp	0	25	3	1	1	target	1	3146	0	1380	13.328	13.293	13.363
ProbeTrackDT01	6	ProbeTrackDT01	10.3	SCS215a	20100519.154128	20100519.154521	8	0.013328	60	10	60-180	60	144	GapExp	0	26	3	2	1	target	1	800	600	1980	13.328	13.043	13.612
ProbeTrackDT01	6	ProbeTrackDT01	10.3	SCS215a	20100519.154128	20100519.154527	8	0.013328	60	10	60-180	60	92	GapExp	0	27	3	75	0	target	0	1986	-1000	980	13.328	13.217	13.448
ProbeTrackDT01	6	ProbeTrackDT01	10.3	SCS215a	20100519.154128	20100519.154534	8	0.013328	60	10	60-180	60	62	GapExp	0	28	3	4	1	target	1	12635	0	980	13.328	13.026	13.596
ProbeTrackDT01	6	ProbeTrackDT01	10.3	SCS215a	20100519.154128	20100519.154551	8	0.013328	60	10	60-180	60	81	GapExp	0	29	3	1	1	distractor	0	893	-1000	-20	13.328	13.221	13.404
ProbeTrackDT01	6	ProbeTrackDT01	10.3	SCS215a	20100519.154128	20100519.154557	8	0.013328	60	10	60-180	60	68	GapExp	0	30	3	0	1	target	1	1213	394	374	13.328	13.293	13.363
ProbeTrackDT01	6	ProbeTrackDT01	10.3	SCS215a	20100519.154128	20100519.154602	8	0.013328	60	10	60-180	60	179	GapExp	0	31	3	4	1	target	1	627	687	1061	13.328	13.215	13.450
ProbeTrackDT01	6	ProbeTrackDT01	10.3	SCS215a	20100519.154128	20100519.154609	8	0.013328	60	10	60-180	60	128	GapExp	0	32	3	4	1	target	1	720	640	1701	13.328	13.292	13.382
ProbeTrackDT01	6	ProbeTrackDT01	10.3	SCS215a	20100519.154128	20100519.154615	8	0.013328	60	10	60-180	60	121	GapExp	0	33	3	2	0	target	0	707	-1000	701	13.328	13.293	13.363
ProbeTrackDT01	6	ProbeTrackDT01	10.3	SCS215a	20100519.154128	20100519.154621	8	0.013328	60	10	60-180	60	93	GapExp	0	34	3	2	0	target	0	1746	-1000	-299	13.328	13.293	13.363
ProbeTrackDT01	6	ProbeTrackDT01	10.3	SCS215a	20100519.154128	20100519.154627	8	0.013328	60	10	60-180	60	143	GapExp	0	35	3	4	0	target	0	1426	-1000	-1299	13.328	13.293	13.363
ProbeTrackDT01	6	ProbeTrackDT01	10.3	SCS215a	20100519.154128	20100519.154634	8	0.013328	60	10	60-180	60	130	GapExp	0	36	3	4	1	target	1	827	587	-712	13.328	13.289	13.363
ProbeTrackDT01	6	ProbeTrackDT01	10.3	SCS215a	20100519.154128	20100519.154640	8	0.013328	60	10	60-180	60	105	GapExp	0	37	3	75	1	target	1	1000	500	-212	13.328	13.292	13.363
ProbeTrackDT01	6	ProbeTrackDT01	10.3	SCS215a	20100519.154128	20100519.154647	8	0.013328	60	10	60-180	60	102	GapExp	0	38	3	2	1	target	1	547	727	515	13.328	13.293	13.363
ProbeTrackDT01	6	ProbeTrackDT01	10.3	SCS215a	20100519.154128	20100519.154652	8	0.013328	60	10	60-180	60	65	GapExp	0	39	3	1	1	13	-3	907	-1000	-485	13.328	13.125	13.557
ProbeTrackDT01	6	ProbeTrackDT01	10.3	SCS215a	20100519.154128	20100519.154657	8	0.013328	60	10	60-180	60	116	GapExp	0	40	3	0	0	distractor	1	680	660	175	13.328	13.293	13.364
ProbeTrackDT01	6	ProbeTrackDT01	10.3	SCS215a	20100519.154128	20100519.154703	8	0.013328	60	10	60-180	60	92	GapExp	0	41	3	1	0	distractor	1	1826	87	262	13.328	13.293	13.363
ProbeTrackDT01	6	ProbeTrackDT01	10.3	SCS215a	20100519.154128	20100519.154710	8	0.013328	60	10	60-180	60	167	GapExp	0	42	3	2	0	13	-3	813	-1000	-738	13.328	13.293	13.363
ProbeTrackDT01	6	ProbeTrackDT01	10.3	SCS215a	20100519.154128	20100519.154716	8	0.013328	60	10	60-180	60	111	GapExp	0	43	3	2	0	target	0	0	-1000	-1738	13.328	13.143	13.547
ProbeTrackDT01	6	ProbeTrackDT01	10.3	SCS215a	20100519.154128	20100519.154721	8	0.013328	60	10	60-180	60	134	GapExp	0	44	3	0	1	distractor	0	1067	-1000	-2738	13.328	13.293	13.363
ProbeTrackDT01	6	ProbeTrackDT01	10.3	SCS215a	20100519.154128	20100519.154727	8	0.013328	60	10	60-180	60	164	GapExp	0	45	3	4	0	target	0	2013	-1000	-3738	13.328	13.155	13.499
ProbeTrackDT01	6	ProbeTrackDT01	10.3	SCS215a	20100519.154128	20100519.154735	8	0.013328	60	10	60-180	60	101	GapExp	0	46	3	0	0	target	0	4932	-1000	-4738	13.328	13.293	13.363
ProbeTrackDT01	6	ProbeTrackDT01	10.3	SCS215a	20100519.154128	20100519.154745	8	0.013328	60	10	60-180	60	64	GapExp	0	47	3	0	0	target	0	17620	-1000	-5738	13.328	13.186	13.435
ProbeTrackDT01	6	ProbeTrackDT01	10.3	SCS215a	20100519.154128	20100519.154806	8	0.013328	60	10	60-180	60	141	GapExp	0	48	3	4	0	distractor	1	840	580	-5158	13.328	13.293	13.363
ProbeTrackDT01	6	ProbeTrackDT01	10.3	SCS215a	20100519.154128	20100519.154813	8	0.013328	60	10	60-180	60	116	GapExp	0	49	3	75	1	distractor	0	3732	-1000	-6158	13.328	13.293	13.387
ProbeTrackDT01	6	ProbeTrackDT01	10.3	SCS215a	20100519.154128	20100519.154822	8	0.013328	60	10	60-180	60	64	GapExp	0	50	3	2	0	target	0	11995	-1000	-7158	13.328	13.292	13.363
ProbeTrackDT01	6	ProbeTrackDT01	10.3	SCS215a	20100519.154128	20100519.155018	8	0.013328	60	10	60-180	60	72	GapExp	0	51	3	4	1	target	1	1120	440	-6718	13.328	13.293	13.366
ProbeTrackDT01	6	ProbeTrackDT01	10.3	SCS215a	20100519.154128	20100519.155024	8	0.013328	60	10	60-180	60	122	GapExp	0	52	3	0	0	distractor	1	627	687	-6031	13.328	13.229	13.460
ProbeTrackDT01	6	ProbeTrackDT01	10.3	SCS215a	20100519.154128	20100519.155029	8	0.013328	60	10	60-180	60	135	GapExp	0	53	3	0	0	distractor	1	893	554	-5477	13.328	13.290	13.363
ProbeTrackDT01	6	ProbeTrackDT01	10.3	SCS215a	20100519.154128	20100519.155035	8	0.013328	60	10	60-180	60	107	GapExp	0	54	3	2	0	target	0	1213	-1000	-6477	13.328	13.243	13.380
ProbeTrackDT01	6	ProbeTrackDT01	10.3	SCS215a	20100519.154128	20100519.155041	8	0.013328	60	10	60-180	60	91	GapExp	0	55	3	1	0	distractor	1	907	547	-5930	13.328	13.264	13.391
ProbeTrackDT01	6	ProbeTrackDT01	10.3	SCS215a	20100519.154128	20100519.155047	8	0.013328	60	10	60-180	60	91	GapExp	0	56	3	1	0	target	0	1426	-1000	-6930	13.328	13.293	13.363
ProbeTrackDT01	6	ProbeTrackDT01	10.3	SCS215a	20100519.154128	20100519.155053	8	0.013328	60	10	60-180	60	168	GapExp	0	57	3	0	0	distractor	1	853	574	-6356	13.328	13.293	13.363
ProbeTrackDT01	6	ProbeTrackDT01	10.3	SCS215a	20100519.154128	20100519.155059	8	0.013328	60	10	60-180	60	147	GapExp	0	58	3	1	0	distractor	1	747	627	-5729	13.328	13.292	13.363
ProbeTrackDT01	6	ProbeTrackDT01	10.3	SCS215a	20100519.154128	20100519.155106	8	0.013328	60	10	60-180	60	70	GapExp	0	59	3	4	1	target	1	7451	0	-5729	13.328	13.293	13.363
ProbeTrackDT01	6	ProbeTrackDT01	10.3	SCS215a	20100519.154128	20100519.155117	8	0.013328	60	10	60-180	60	166	GapExp	0	60	3	4	0	target	0	1733	-1000	-6729	13.328	13.282	13.363
ProbeTrackDT01	6	ProbeTrackDT01	10.3	SCS215a	20100519.154128	20100519.155125	8	0.013328	60	10	60-180	60	105	GapExp	0	61	3	1	0	distractor	1	1506	247	-6482	13.328	13.293	13.363
ProbeTrackDT01	6	ProbeTrackDT01	10.3	SCS215a	20100519.154128	20100519.155131	8	0.013328	60	10	60-180	60	74	GapExp	0	62	3	75	0	target	0	120	-1000	-7482	13.328	13.291	13.364
ProbeTrackDT01	6	ProbeTrackDT01	10.3	SCS215a	20100519.154128	20100519.155137	8	0.013328	60	10	60-180	60	153	GapExp	0	63	3	4	0	distractor	1	1413	294	-7188	13.328	13.293	13.377
ProbeTrackDT01	6	ProbeTrackDT01	10.3	SCS215a	20100519.154128	20100519.155144	8	0.013328	60	10	60-180	60	107	GapExp	0	64	3	4	0	target	0	800	-1000	-8188	13.328	13.293	13.363
ProbeTrackDT01	6	ProbeTrackDT01	10.3	SCS215a	20100519.154128	20100519.155149	8	0.013328	60	10	60-180	60	94	GapExp	0	65	3	1	1	target	1	1866	67	-8121	13.328	13.293	13.363
ProbeTrackDT01	6	ProbeTrackDT01	10.3	SCS215a	20100519.154128	20100519.155156	8	0.013328	60	10	60-180	60	168	GapExp	0	66	3	2	1	distractor	0	80	-1000	-9121	13.328	13.293	13.363
ProbeTrackDT01	6	ProbeTrackDT01	10.3	SCS215a	20100519.154128	20100519.155202	8	0.013328	60	10	60-180	60	92	GapExp	0	67	3	4	1	target	1	7024	0	-9121	13.328	13.293	13.363
ProbeTrackDT01	6	ProbeTrackDT01	10.3	SCS215a	20100519.154128	20100519.155213	8	0.013328	60	10	60-180	60	122	GapExp	0	68	3	1	0	distractor	1	827	587	-8534	13.328	13.293	13.363
ProbeTrackDT01	6	ProbeTrackDT01	10.3	SCS215a	20100519.154128	20100519.155219	8	0.013328	60	10	60-180	60	97	GapExp	0	69	3	75	1	target	1	760	620	-7914	13.328	13.293	13.363
ProbeTrackDT01	6	ProbeTrackDT01	10.3	SCS215a	20100519.154128	20100519.155226	8	0.013328	60	10	60-180	60	158	GapExp	0	70	3	0	0	distractor	1	853	574	-7340	13.328	13.293	13.363
ProbeTrackDT01	6	ProbeTrackDT01	10.3	SCS215a	20100519.154128	20100519.155232	8	0.013328	60	10	60-180	60	167	GapExp	0	71	3	2	1	target	1	5518	0	-7340	13.328	13.183	13.439
ProbeTrackDT01	6	ProbeTrackDT01	10.3	SCS215a	20100519.154128	20100519.155243	8	0.013328	60	10	60-180	60	102	GapExp	0	72	3	75	0	distractor	1	2972	0	-7340	13.328	13.293	13.363
ProbeTrackDT01	6	ProbeTrackDT01	10.3	SCS215a	20100519.154128	20100519.155252	8	0.013328	60	10	60-180	60	114	GapExp	0	73	3	2	0	distractor	1	547	727	-6613	13.328	13.255	13.366
ProbeTrackDT01	6	ProbeTrackDT01	10.3	SCS215a	20100519.154128	20100519.155258	8	0.013328	60	10	60-180	60	164	GapExp	0	74	3	1	1	distractor	0	760	-1000	-7613	13.328	13.255	13.434
ProbeTrackDT01	6	ProbeTrackDT01	10.3	SCS215a	20100519.154128	20100519.155304	8	0.013328	60	10	60-180	60	138	GapExp	0	75	3	1	0	target	0	4372	-1000	-8613	13.328	13.293	13.363
ProbeTrackDT01	6	ProbeTrackDT01	10.3	SCS215a	20100519.154128	20100519.155314	8	0.013328	60	10	60-180	60	147	GapExp	0	76	3	2	0	distractor	1	7970	0	-8613	13.328	13.293	13.363
ProbeTrackDT01	6	ProbeTrackDT01	10.3	SCS215a	20100519.154128	20100519.155327	8	0.013328	60	10	60-180	60	145	GapExp	0	77	3	75	0	distractor	1	813	594	-8019	13.328	13.115	13.574
ProbeTrackDT01	6	ProbeTrackDT01	10.3	SCS215a	20100519.154128	20100519.155334	8	0.013328	60	10	60-180	60	76	GapExp	0	78	3	0	0	target	0	667	-1000	-9019	13.328	13.293	13.363
ProbeTrackDT01	6	ProbeTrackDT01	10.3	SCS215a	20100519.154128	20100519.155339	8	0.013328	60	10	60-180	60	105	GapExp	0	79	3	2	1	target	1	733	634	-8385	13.328	13.292	13.363
ProbeTrackDT01	6	ProbeTrackDT01	10.3	SCS215a	20100519.154128	20100519.155345	8	0.013328	60	10	60-180	60	120	GapExp	0	80	3	0	0	distractor	1	1200	400	-7985	13.328	13.293	13.363
ProbeTrackDT01	6	ProbeTrackDT01	10.3	SCS215a	20100519.154128	20100519.155351	8	0.013328	60	10	60-180	60	89	GapExp	0	81	3	4	0	distractor	1	1306	347	-7638	13.328	13.293	13.363
ProbeTrackDT01	6	ProbeTrackDT01	10.3	SCS215a	20100519.154128	20100519.155357	8	0.013328	60	10	60-180	60	102	GapExp	0	82	3	75	0	target	0	7011	-1000	-8638	13.328	12.994	13.702
ProbeTrackDT01	6	ProbeTrackDT01	10.3	SCS215a	20100519.154128	20100519.155410	8	0.013328	60	10	60-180	60	169	GapExp	0	83	3	4	1	distractor	0	4092	-1000	-9638	13.328	13.285	13.371
ProbeTrackDT01	6	ProbeTrackDT01	10.3	SCS215a	20100519.154128	20100519.155420	8	0.013328	60	10	60-180	60	79	GapExp	0	84	3	75	1	target	1	600	700	-8938	13.328	13.293	13.363
ProbeTrackDT01	6	ProbeTrackDT01	10.3	SCS215a	20100519.154128	20100519.155426	8	0.013328	60	10	60-180	60	168	GapExp	0	85	3	75	0	distractor	1	534	733	-8205	13.328	13.292	13.363
ProbeTrackDT01	6	ProbeTrackDT01	10.3	SCS215a	20100519.154128	20100519.155433	8	0.013328	60	10	60-180	60	87	GapExp	0	86	3	1	0	distractor	1	973	514	-7691	13.328	13.293	13.363
ProbeTrackDT01	6	ProbeTrackDT01	10.3	SCS215a	20100519.154128	20100519.155439	8	0.013328	60	10	60-180	60	124	GapExp	0	87	3	1	0	distractor	1	853	574	-7117	13.328	13.293	13.363
ProbeTrackDT01	6	ProbeTrackDT01	10.3	SCS215a	20100519.154128	20100519.155444	8	0.013328	60	10	60-180	60	172	GapExp	0	88	3	75	1	target	1	867	567	-6550	13.328	13.293	13.363
ProbeTrackDT01	6	ProbeTrackDT01	10.3	SCS215a	20100519.154128	20100519.155452	8	0.013328	60	10	60-180	60	122	GapExp	0	89	3	2	1	target	1	9823	0	-6550	13.328	13.229	13.393
ProbeTrackDT01	6	ProbeTrackDT01	10.3	SCS215a	20100519.154128	20100519.155507	8	0.013328	60	10	60-180	60	93	GapExp	0	90	3	1	1	target	1	240	880	-5670	13.328	13.279	13.378
ProbeTrackDT01	6	ProbeTrackDT01	10.3	SCS215a	20100519.154128	20100519.155512	8	0.013328	60	10	60-180	60	176	GapExp	0	91	3	0	1	distractor	0	547	-1000	-6670	13.328	13.293	13.363
ProbeTrackDT01	6	ProbeTrackDT01	10.3	SCS215a	20100519.154128	20100519.155518	8	0.013328	60	10	60-180	60	169	GapExp	0	92	3	1	0	target	0	1107	-1000	-7670	13.328	13.293	13.363
ProbeTrackDT01	6	ProbeTrackDT01	10.3	SCS215a	20100519.154128	20100519.155525	8	0.013328	60	10	60-180	60	111	GapExp	0	93	3	4	0	target	0	627	-1000	-8670	13.328	13.293	13.363
ProbeTrackDT01	6	ProbeTrackDT01	10.3	SCS215a	20100519.154128	20100519.155531	8	0.013328	60	10	60-180	60	153	GapExp	0	94	3	0	0	target	0	693	-1000	-9670	13.328	13.287	13.362
ProbeTrackDT01	6	ProbeTrackDT01	10.3	SCS215a	20100519.154128	20100519.155537	8	0.013328	60	10	60-180	60	126	GapExp	0	95	3	4	0	distractor	1	880	560	-9110	13.328	13.293	13.363
ProbeTrackDT01	6	ProbeTrackDT01	10.3	SCS215a	20100519.154128	20100519.155543	8	0.013328	60	10	60-180	60	106	GapExp	0	96	3	2	0	target	0	694	-1000	-10110	13.328	13.265	13.391
ProbeTrackDT01	6	ProbeTrackDT01	10.3	SCS215a	20100519.154128	20100519.155548	8	0.013328	60	10	60-180	60	157	GapExp	0	97	3	4	1	target	1	7077	0	-10110	13.328	13.293	13.363
ProbeTrackDT01	6	ProbeTrackDT01	10.3	SCS215a	20100519.154128	20100519.155601	8	0.013328	60	10	60-180	60	114	GapExp	0	98	3	75	1	target	1	800	600	-9510	13.328	13.142	13.585
ProbeTrackDT01	6	ProbeTrackDT01	10.3	SCS215a	20100519.154128	20100519.155608	8	0.013328	60	10	60-180	60	113	GapExp	0	99	3	1	1	target	1	587	707	-8803	13.328	13.075	13.545
ProbeTrackDT01	6	ProbeTrackDT01	10.3	SCS215a	20100519.154128	20100519.155613	8	0.013328	60	10	60-180	60	93	GapExp	0	100	3	75	1	target	1	574	713	-8090	13.328	13.293	13.363
ProbeTrackDT01	6	ProbeTrackDT01	10.3	SCS215a	20100519.154128	20100519.155730	8	0.013328	60	10	60-180	60	146	GapExp	0	101	3	2	1	target	1	1666	167	-7923	13.328	13.293	13.363
ProbeTrackDT01	6	ProbeTrackDT01	10.3	SCS215a	20100519.154128	20100519.155737	8	0.013328	60	10	60-180	60	144	GapExp	0	102	3	0	1	target	1	693	654	-7269	13.328	13.292	13.363
ProbeTrackDT01	6	ProbeTrackDT01	10.3	SCS215a	20100519.154128	20100519.155743	8	0.013328	60	10	60-180	60	157	GapExp	0	103	3	1	1	target	1	613	694	-6575	13.328	13.281	13.374
ProbeTrackDT01	6	ProbeTrackDT01	10.3	SCS215a	20100519.154128	20100519.155749	8	0.013328	60	10	60-180	60	142	GapExp	0	104	3	75	0	target	0	1253	-1000	-7575	13.328	13.153	13.503
ProbeTrackDT01	6	ProbeTrackDT01	10.3	SCS215a	20100519.154128	20100519.155756	8	0.013328	60	10	60-180	60	85	GapExp	0	105	3	75	1	target	1	3492	0	-7575	13.328	13.290	13.363
ProbeTrackDT01	6	ProbeTrackDT01	10.3	SCS215a	20100519.154128	20100519.155805	8	0.013328	60	10	60-180	60	104	GapExp	0	106	3	75	0	distractor	1	733	634	-6941	13.369	12.795	27.188
ProbeTrackDT01	6	ProbeTrackDT01	10.3	SCS215a	20100519.154128	20100519.155812	8	0.013328	60	10	60-180	60	114	GapExp	0	107	3	75	0	distractor	1	800	600	-6341	13.328	13.086	13.603
ProbeTrackDT01	6	ProbeTrackDT01	10.3	SCS215a	20100519.154128	20100519.155819	8	0.013328	60	10	60-180	60	117	GapExp	0	108	3	4	0	target	0	0	-1000	-7341	13.328	13.292	13.363
ProbeTrackDT01	6	ProbeTrackDT01	10.3	SCS215a	20100519.154128	20100519.155824	8	0.013328	60	10	60-180	60	134	GapExp	0	109	3	4	1	target	1	773	614	-6727	13.328	13.290	13.365
ProbeTrackDT01	6	ProbeTrackDT01	10.3	SCS215a	20100519.154128	20100519.155830	8	0.013328	60	10	60-180	60	141	GapExp	0	110	3	0	1	distractor	0	1920	-1000	-7727	13.328	13.285	13.404
ProbeTrackDT01	6	ProbeTrackDT01	10.3	SCS215a	20100519.154128	20100519.155837	8	0.013328	60	10	60-180	60	69	GapExp	0	111	3	0	1	target	1	4172	0	-7727	13.328	13.148	13.474
ProbeTrackDT01	6	ProbeTrackDT01	10.3	SCS215a	20100519.154128	20100519.155845	8	0.013328	60	10	60-180	60	125	GapExp	0	112	3	75	0	target	0	94	-1000	-8727	13.328	13.293	13.363
ProbeTrackDT01	6	ProbeTrackDT01	10.3	SCS215a	20100519.154128	20100519.155852	8	0.013328	60	10	60-180	60	133	GapExp	0	113	3	2	0	distractor	1	1733	134	-8593	13.328	13.290	13.365
ProbeTrackDT01	6	ProbeTrackDT01	10.3	SCS215a	20100519.154128	20100519.155858	8	0.013328	60	10	60-180	60	158	GapExp	0	114	3	2	1	target	1	614	693	-7900	13.328	13.220	13.470
ProbeTrackDT01	6	ProbeTrackDT01	10.3	SCS215a	20100519.154128	20100519.155905	8	0.013328	60	10	60-180	60	105	GapExp	0	115	3	75	1	distractor	0	5585	-1000	-8900	13.328	13.293	13.363
ProbeTrackDT01	6	ProbeTrackDT01	10.3	SCS215a	20100519.154128	20100519.155916	8	0.013328	60	10	60-180	60	162	GapExp	0	116	3	0	1	target	1	667	667	-8233	13.328	13.293	13.364
ProbeTrackDT01	6	ProbeTrackDT01	10.3	SCS215a	20100519.154128	20100519.155922	8	0.013328	60	10	60-180	60	105	GapExp	0	117	3	75	1	target	1	733	634	-7599	13.328	12.959	13.697
ProbeTrackDT01	6	ProbeTrackDT01	10.3	SCS215a	20100519.154128	20100519.155929	8	0.013328	60	10	60-180	60	61	GapExp	0	118	3	0	0	distractor	1	947	527	-7072	13.328	13.240	13.417
ProbeTrackDT01	6	ProbeTrackDT01	10.3	SCS215a	20100519.154128	20100519.155934	8	0.013328	60	10	60-180	60	151	GapExp	0	119	3	75	1	distractor	0	640	-1000	-8072	13.328	13.116	13.540
ProbeTrackDT01	6	ProbeTrackDT01	10.3	SCS215a	20100519.154128	20100519.155941	8	0.013328	60	10	60-180	60	118	GapExp	0	120	3	75	1	target	1	1146	427	-7645	13.367	13.292	26.657
ProbeTrackDT01	6	ProbeTrackDT01	10.3	SCS215a	20100519.154128	20100519.155948	8	0.013328	60	10	60-180	60	111	GapExp	0	121	3	0	1	target	1	640	680	-6965	13.328	13.262	13.415
ProbeTrackDT01	6	ProbeTrackDT01	10.3	SCS215a	20100519.154128	20100519.155954	8	0.013328	60	10	60-180	60	64	GapExp	0	122	3	75	1	distractor	0	4212	-1000	-7965	13.328	13.290	13.364
ProbeTrackDT01	6	ProbeTrackDT01	10.3	SCS215a	20100519.154128	20100519.160003	8	0.013328	60	10	60-180	60	132	GapExp	0	123	3	75	1	distractor	0	414	-1000	-8965	13.328	13.053	13.602
ProbeTrackDT01	6	ProbeTrackDT01	10.3	SCS215a	20100519.154128	20100519.160010	8	0.013328	60	10	60-180	60	72	GapExp	0	124	3	0	1	target	1	4865	0	-8965	13.328	13.292	13.363
ProbeTrackDT01	6	ProbeTrackDT01	10.3	SCS215a	20100519.154128	20100519.160019	8	0.013328	60	10	60-180	60	103	GapExp	0	125	3	1	1	distractor	0	4239	-1000	-9965	13.328	13.293	13.363
ProbeTrackDT01	6	ProbeTrackDT01	10.3	SCS215a	20100519.154128	20100519.160028	8	0.013328	60	10	60-180	60	114	GapExp	0	126	3	0	0	target	0	733	-1000	-10965	13.328	13.293	13.363
ProbeTrackDT01	6	ProbeTrackDT01	10.3	SCS215a	20100519.154128	20100519.160034	8	0.013328	60	10	60-180	60	177	GapExp	0	127	3	2	0	target	0	520	-1000	-11965	13.328	13.209	13.446
ProbeTrackDT01	6	ProbeTrackDT01	10.3	SCS215a	20100519.154128	20100519.160040	8	0.013328	60	10	60-180	60	112	GapExp	0	128	3	2	1	distractor	0	3106	-1000	-12965	13.328	13.206	13.450
ProbeTrackDT01	6	ProbeTrackDT01	10.3	SCS215a	20100519.154128	20100519.160048	8	0.013328	60	10	60-180	60	85	GapExp	0	129	3	1	0	target	0	18699	-1000	-13965	13.328	13.148	13.506
ProbeTrackDT01	6	ProbeTrackDT01	10.3	SCS215a	20100519.154128	20100519.160112	8	0.013328	60	10	60-180	60	160	GapExp	0	130	3	4	1	target	1	507	747	-13218	13.328	13.230	13.425
ProbeTrackDT01	6	ProbeTrackDT01	10.3	SCS215a	20100519.154128	20100519.160118	8	0.013328	60	10	60-180	60	132	GapExp	0	131	3	0	0	distractor	1	574	713	-12505	13.328	13.293	13.362
ProbeTrackDT01	6	ProbeTrackDT01	10.3	SCS215a	20100519.154128	20100519.160123	8	0.013328	60	10	60-180	60	116	GapExp	0	132	3	4	0	distractor	1	1000	500	-12005	13.328	13.272	13.383
ProbeTrackDT01	6	ProbeTrackDT01	10.3	SCS215a	20100519.154128	20100519.160129	8	0.013328	60	10	60-180	60	76	GapExp	0	133	3	4	0	distractor	1	693	654	-11351	13.328	13.293	13.367
ProbeTrackDT01	6	ProbeTrackDT01	10.3	SCS215a	20100519.154128	20100519.160135	8	0.013328	60	10	60-180	60	68	GapExp	0	134	3	2	1	target	1	773	614	-10737	13.328	13.235	13.419
ProbeTrackDT01	6	ProbeTrackDT01	10.3	SCS215a	20100519.154128	20100519.160140	8	0.013328	60	10	60-180	60	68	GapExp	0	135	3	0	1	distractor	0	3319	-1000	-11737	13.328	13.293	13.363
ProbeTrackDT01	6	ProbeTrackDT01	10.3	SCS215a	20100519.154128	20100519.160147	8	0.013328	60	10	60-180	60	158	GapExp	0	136	3	1	1	target	1	613	694	-11043	13.328	13.293	13.363
ProbeTrackDT01	6	ProbeTrackDT01	10.3	SCS215a	20100519.154128	20100519.160154	8	0.013328	60	10	60-180	60	79	GapExp	0	137	3	0	0	distractor	1	693	654	-10389	13.328	13.293	13.363
ProbeTrackDT01	6	ProbeTrackDT01	10.3	SCS215a	20100519.154128	20100519.160159	8	0.013328	60	10	60-180	60	147	GapExp	0	138	3	4	1	distractor	0	494	-1000	-11389	13.328	13.293	13.363
ProbeTrackDT01	6	ProbeTrackDT01	10.3	SCS215a	20100519.154128	20100519.160205	8	0.013328	60	10	60-180	60	170	GapExp	0	139	3	75	0	distractor	1	0	1000	-10389	13.328	13.029	13.626
ProbeTrackDT01	6	ProbeTrackDT01	10.3	SCS215a	20100519.154128	20100519.160212	8	0.013328	60	10	60-180	60	158	GapExp	0	140	3	1	1	target	1	600	700	-9689	13.328	13.293	13.363
ProbeTrackDT01	6	ProbeTrackDT01	10.3	SCS215a	20100519.154128	20100519.160218	8	0.013328	60	10	60-180	60	138	GapExp	0	141	3	4	1	target	1	2906	0	-9689	13.328	13.200	13.456
ProbeTrackDT01	6	ProbeTrackDT01	10.3	SCS215a	20100519.154128	20100519.160226	8	0.013328	60	10	60-180	60	170	GapExp	0	142	3	0	1	distractor	0	2293	-1000	-10689	13.328	13.052	13.569
ProbeTrackDT01	6	ProbeTrackDT01	10.3	SCS215a	20100519.154128	20100519.160234	8	0.013328	60	10	60-180	60	83	GapExp	0	143	3	2	1	target	1	480	760	-9929	13.328	13.293	13.363
ProbeTrackDT01	6	ProbeTrackDT01	10.3	SCS215a	20100519.154128	20100519.160239	8	0.013328	60	10	60-180	60	80	GapExp	0	144	3	2	1	target	1	493	754	-9175	13.328	13.293	13.363
ProbeTrackDT01	6	ProbeTrackDT01	10.3	SCS215a	20100519.154128	20100519.160244	8	0.013328	60	10	60-180	60	164	GapExp	0	145	3	2	1	target	1	8463	0	-9175	13.328	13.212	13.476
ProbeTrackDT01	6	ProbeTrackDT01	10.3	SCS215a	20100519.154128	20100519.160258	8	0.013328	60	10	60-180	60	81	GapExp	0	146	3	1	0	distractor	1	600	700	-8475	13.328	13.293	13.362
ProbeTrackDT01	6	ProbeTrackDT01	10.3	SCS215a	20100519.154128	20100519.160303	8	0.013328	60	10	60-180	60	119	GapExp	0	147	3	4	0	distractor	1	360	820	-7655	13.328	13.293	13.363
ProbeTrackDT01	6	ProbeTrackDT01	10.3	SCS215a	20100519.154128	20100519.160309	8	0.013328	60	10	60-180	60	113	GapExp	0	148	3	0	1	target	1	1946	27	-7628	13.328	13.181	13.475
ProbeTrackDT01	6	ProbeTrackDT01	10.3	SCS215a	20100519.154128	20100519.160315	8	0.013328	60	10	60-180	60	148	GapExp	0	149	3	2	0	target	0	467	-1000	-8628	13.328	13.292	13.365
ProbeTrackDT01	6	ProbeTrackDT01	10.3	SCS215a	20100519.154128	20100519.160321	8	0.013328	60	10	60-180	60	155	GapExp	0	150	3	4	0	distractor	1	347	827	-7801	13.328	13.041	13.580
ProbeTrackDT01	6	ProbeTrackDT01	10.3	SCS215a	20100519.154128	20100519.160401	8	0.013328	60	10	60-180	60	112	GapExp	0	151	3	75	1	target	1	2106	0	-7801	13.328	13.227	13.395
ProbeTrackDT01	6	ProbeTrackDT01	10.3	SCS215a	20100519.154128	20100519.160409	8	0.013328	60	10	60-180	60	146	GapExp	0	152	3	75	1	distractor	0	3572	-1000	-8801	13.328	13.293	13.363
ProbeTrackDT01	6	ProbeTrackDT01	10.3	SCS215a	20100519.154128	20100519.160419	8	0.013328	60	10	60-180	60	146	GapExp	0	153	3	2	0	target	0	640	-1000	-9801	13.328	13.289	13.364
ProbeTrackDT01	6	ProbeTrackDT01	10.3	SCS215a	20100519.154128	20100519.160425	8	0.013328	60	10	60-180	60	65	GapExp	0	154	3	75	0	distractor	1	547	727	-9074	13.328	13.293	13.363
ProbeTrackDT01	6	ProbeTrackDT01	10.3	SCS215a	20100519.154128	20100519.160431	8	0.013328	60	10	60-180	60	107	GapExp	0	155	3	4	1	186	-3	667	-1000	-10074	13.328	13.293	13.364
ProbeTrackDT01	6	ProbeTrackDT01	10.3	SCS215a	20100519.154128	20100519.160436	8	0.013328	60	10	60-180	60	128	GapExp	0	156	3	0	0	target	0	7610	-1000	-11074	13.328	13.189	13.433
ProbeTrackDT01	6	ProbeTrackDT01	10.3	SCS215a	20100519.154128	20100519.160449	8	0.013328	60	10	60-180	60	123	GapExp	0	157	3	0	0	distractor	1	627	687	-10387	13.328	13.290	13.366
ProbeTrackDT01	6	ProbeTrackDT01	10.3	SCS215a	20100519.154128	20100519.160455	8	0.013328	60	10	60-180	60	134	GapExp	0	158	3	4	0	target	0	1280	-1000	-11387	13.328	13.293	13.363
ProbeTrackDT01	6	ProbeTrackDT01	10.3	SCS215a	20100519.154128	20100519.160501	8	0.013328	60	10	60-180	60	69	GapExp	0	159	3	2	0	distractor	1	3732	0	-11387	13.328	13.265	13.425
ProbeTrackDT01	6	ProbeTrackDT01	10.3	SCS215a	20100519.154128	20100519.160509	8	0.013328	60	10	60-180	60	149	GapExp	0	160	3	1	0	target	0	667	-1000	-12387	13.328	13.293	13.363
ProbeTrackDT01	6	ProbeTrackDT01	10.3	SCS215a	20100519.154128	20100519.160515	8	0.013328	60	10	60-180	60	70	GapExp	0	161	3	2	1	distractor	0	454	-1000	-13387	13.328	13.293	13.363
ProbeTrackDT01	6	ProbeTrackDT01	10.3	SCS215a	20100519.154128	20100519.160520	8	0.013328	60	10	60-180	60	72	GapExp	0	162	3	4	0	target	0	573	-1000	-14387	13.328	13.293	13.363
ProbeTrackDT01	6	ProbeTrackDT01	10.3	SCS215a	20100519.154128	20100519.160525	8	0.013328	60	10	60-180	60	130	GapExp	0	163	3	4	1	target	1	1613	194	-14193	13.328	13.289	13.363
ProbeTrackDT01	6	ProbeTrackDT01	10.3	SCS215a	20100519.154128	20100519.160532	8	0.013328	60	10	60-180	60	117	GapExp	0	164	3	75	1	distractor	0	4119	-1000	-15193	13.328	13.290	13.366
ProbeTrackDT01	6	ProbeTrackDT01	10.3	SCS215a	20100519.154128	20100519.160542	8	0.013328	60	10	60-180	60	80	GapExp	0	165	3	75	0	target	0	360	-1000	-16193	13.328	13.293	13.363
ProbeTrackDT01	6	ProbeTrackDT01	10.3	SCS215a	20100519.154128	20100519.160548	8	0.013328	60	10	60-180	60	179	GapExp	0	166	3	2	0	distractor	1	347	827	-15366	13.328	13.293	13.376
ProbeTrackDT01	6	ProbeTrackDT01	10.3	SCS215a	20100519.154128	20100519.160554	8	0.013328	60	10	60-180	60	166	GapExp	0	167	3	1	0	target	0	347	-1000	-16366	13.328	13.293	13.363
ProbeTrackDT01	6	ProbeTrackDT01	10.3	SCS215a	20100519.154128	20100519.160600	8	0.013328	60	10	60-180	60	80	GapExp	0	168	3	2	0	distractor	1	1986	7	-16359	13.328	13.293	13.364
ProbeTrackDT01	6	ProbeTrackDT01	10.3	SCS215a	20100519.154128	20100519.160607	8	0.013328	60	10	60-180	60	169	GapExp	0	169	3	1	0	target	0	374	-1000	-17359	13.328	13.290	13.366
ProbeTrackDT01	6	ProbeTrackDT01	10.3	SCS215a	20100519.154128	20100519.160613	8	0.013328	60	10	60-180	60	121	GapExp	0	170	3	0	1	distractor	0	320	-1000	-18359	13.328	13.290	13.400
ProbeTrackDT01	6	ProbeTrackDT01	10.3	SCS215a	20100519.154128	20100519.160618	8	0.013328	60	10	60-180	60	88	GapExp	0	171	3	1	1	target	1	680	660	-17699	13.328	13.162	13.511
ProbeTrackDT01	6	ProbeTrackDT01	10.3	SCS215a	20100519.154128	20100519.160623	8	0.013328	60	10	60-180	60	174	GapExp	0	172	3	4	1	distractor	0	174	-1000	-18699	13.328	13.293	13.397
ProbeTrackDT01	6	ProbeTrackDT01	10.3	SCS215a	20100519.154128	20100519.160629	8	0.013328	60	10	60-180	60	167	GapExp	0	173	3	0	0	target	0	494	-1000	-19699	13.328	13.292	13.363
ProbeTrackDT01	6	ProbeTrackDT01	10.3	SCS215a	20100519.154128	20100519.160636	8	0.013328	60	10	60-180	60	132	GapExp	0	174	3	2	0	distractor	1	827	587	-19112	13.328	13.278	13.376
ProbeTrackDT01	6	ProbeTrackDT01	10.3	SCS215a	20100519.154128	20100519.160642	8	0.013328	60	10	60-180	60	70	GapExp	0	175	3	4	1	target	1	3532	0	-19112	13.328	13.237	13.418
ProbeTrackDT01	6	ProbeTrackDT01	10.3	SCS215a	20100519.154128	20100519.160649	8	0.013328	60	10	60-180	60	155	GapExp	0	176	3	4	1	distractor	0	4185	-1000	-20112	13.328	13.075	13.581
ProbeTrackDT01	6	ProbeTrackDT01	10.3	SCS215a	20100519.154128	20100519.160659	8	0.013328	60	10	60-180	60	150	GapExp	0	177	3	0	1	target	1	667	667	-19445	13.328	13.091	13.598
ProbeTrackDT01	6	ProbeTrackDT01	10.3	SCS215a	20100519.154128	20100519.160705	8	0.013328	60	10	60-180	60	79	GapExp	0	178	3	1	0	distractor	1	6638	0	-19445	13.328	12.966	13.689
ProbeTrackDT01	6	ProbeTrackDT01	10.3	SCS215a	20100519.154128	20100519.160716	8	0.013328	60	10	60-180	60	98	GapExp	0	179	3	75	0	target	0	1880	-1000	-20445	13.328	13.293	13.363
ProbeTrackDT01	6	ProbeTrackDT01	10.3	SCS215a	20100519.154128	20100519.160724	8	0.013328	60	10	60-180	60	118	GapExp	0	180	3	4	0	distractor	1	267	867	-19578	13.328	13.293	13.363
ProbeTrackDT01	6	ProbeTrackDT01	10.3	SCS215a	20100519.154128	20100519.160729	8	0.013328	60	10	60-180	60	164	GapExp	0	181	3	75	0	target	0	600	-1000	-20578	13.328	13.292	13.363
ProbeTrackDT01	6	ProbeTrackDT01	10.3	SCS215a	20100519.154128	20100519.160737	8	0.013328	60	10	60-180	60	111	GapExp	0	182	3	0	0	distractor	1	507	747	-19831	13.328	13.293	13.363
ProbeTrackDT01	6	ProbeTrackDT01	10.3	SCS215a	20100519.154128	20100519.160742	8	0.013328	60	10	60-180	60	77	GapExp	0	183	3	2	0	target	0	5811	-1000	-20831	13.328	13.293	13.363
ProbeTrackDT01	6	ProbeTrackDT01	10.3	SCS215a	20100519.154128	20100519.160752	8	0.013328	60	10	60-180	60	107	GapExp	0	184	3	0	1	distractor	0	280	-1000	-21831	13.328	13.293	13.363
ProbeTrackDT01	6	ProbeTrackDT01	10.3	SCS215a	20100519.154128	20100519.160758	8	0.013328	60	10	60-180	60	98	GapExp	0	185	3	1	1	target	1	733	634	-21197	13.328	13.293	13.363
ProbeTrackDT01	6	ProbeTrackDT01	10.3	SCS215a	20100519.154128	20100519.160803	8	0.013328	60	10	60-180	60	92	GapExp	0	186	3	75	0	distractor	1	560	720	-20477	13.328	13.078	13.559
ProbeTrackDT01	6	ProbeTrackDT01	10.3	SCS215a	20100519.154128	20100519.160809	8	0.013328	60	10	60-180	60	139	GapExp	0	187	3	75	1	target	1	640	680	-19797	13.328	13.199	13.423
ProbeTrackDT01	6	ProbeTrackDT01	10.3	SCS215a	20100519.154128	20100519.160816	8	0.013328	60	10	60-180	60	179	GapExp	0	188	3	4	1	target	1	533	734	-19063	13.328	13.179	13.476
ProbeTrackDT01	6	ProbeTrackDT01	10.3	SCS215a	20100519.154128	20100519.160823	8	0.013328	60	10	60-180	60	66	GapExp	0	189	3	75	0	target	0	707	-1000	-20063	13.328	13.103	13.552
ProbeTrackDT01	6	ProbeTrackDT01	10.3	SCS215a	20100519.154128	20100519.160829	8	0.013328	60	10	60-180	60	152	GapExp	0	190	3	2	1	target	1	733	634	-19429	13.328	13.286	13.363
ProbeTrackDT01	6	ProbeTrackDT01	10.3	SCS215a	20100519.154128	20100519.160835	8	0.013328	60	10	60-180	60	143	GapExp	0	191	3	1	0	target	0	2453	-1000	-20429	13.328	13.202	13.454
ProbeTrackDT01	6	ProbeTrackDT01	10.3	SCS215a	20100519.154128	20100519.160843	8	0.013328	60	10	60-180	60	106	GapExp	0	192	3	75	1	target	1	787	607	-19822	13.328	13.293	13.363
ProbeTrackDT01	6	ProbeTrackDT01	10.3	SCS215a	20100519.154128	20100519.160849	8	0.013328	60	10	60-180	60	90	GapExp	0	193	3	1	1	target	1	773	614	-19208	13.328	13.145	13.510
ProbeTrackDT01	6	ProbeTrackDT01	10.3	SCS215a	20100519.154128	20100519.160855	8	0.013328	60	10	60-180	60	167	GapExp	0	194	3	1	1	target	1	613	694	-18514	13.328	13.151	13.505
ProbeTrackDT01	6	ProbeTrackDT01	10.3	SCS215a	20100519.154128	20100519.160901	8	0.013328	60	10	60-180	60	143	GapExp	0	195	3	1	0	target	0	1813	-1000	-19514	13.328	13.293	13.363
ProbeTrackDT01	6	ProbeTrackDT01	10.3	SCS215a	20100519.154128	20100519.160908	8	0.013328	60	10	60-180	60	70	GapExp	0	196	3	1	1	target	1	880	560	-18954	13.328	12.997	13.657
ProbeTrackDT01	6	ProbeTrackDT01	10.3	SCS215a	20100519.154128	20100519.160913	8	0.013328	60	10	60-180	60	171	GapExp	0	197	3	0	1	target	1	587	707	-18247	13.328	13.088	13.567
ProbeTrackDT01	6	ProbeTrackDT01	10.3	SCS215a	20100519.154128	20100519.160920	8	0.013328	60	10	60-180	60	81	GapExp	0	198	3	0	0	target	0	627	-1000	-19247	13.328	13.239	13.449
ProbeTrackDT01	6	ProbeTrackDT01	10.3	SCS215a	20100519.154128	20100519.160925	8	0.013328	60	10	60-180	60	97	GapExp	0	199	3	4	0	target	0	494	-1000	-20247	13.328	13.147	13.542
ProbeTrackDT01	6	ProbeTrackDT01	10.3	SCS215a	20100519.154128	20100519.160930	8	0.013328	60	10	60-180	60	172	GapExp	0	200	3	0	0	target	0	414	-1000	-21247	13.328	13.037	13.651
ProbeTrackDT01	6	ProbeTrackDT01	10.3	SCS215a	20100519.154128	20100519.160950	8	0.013328	60	10	60-180	60	148	GapExp	0	201	3	2	1	target	1	1746	127	-21120	13.328	13.251	13.404
ProbeTrackDT01	6	ProbeTrackDT01	10.3	SCS215a	20100519.154128	20100519.160957	8	0.013328	60	10	60-180	60	163	GapExp	0	202	3	2	1	distractor	0	334	-1000	-22120	13.328	13.103	13.587
ProbeTrackDT01	6	ProbeTrackDT01	10.3	SCS215a	20100519.154128	20100519.161003	8	0.013328	60	10	60-180	60	169	GapExp	0	203	3	1	1	target	1	600	700	-21420	13.328	13.218	13.469
ProbeTrackDT01	6	ProbeTrackDT01	10.3	SCS215a	20100519.154128	20100519.161009	8	0.013328	60	10	60-180	60	122	GapExp	0	204	3	75	1	distractor	0	227	-1000	-22420	13.328	13.247	13.409
ProbeTrackDT01	6	ProbeTrackDT01	10.3	SCS215a	20100519.154128	20100519.161015	8	0.013328	60	10	60-180	60	135	GapExp	0	205	3	2	1	target	1	494	753	-21667	13.328	13.041	13.615
ProbeTrackDT01	6	ProbeTrackDT01	10.3	SCS215a	20100519.154128	20100519.161021	8	0.013328	60	10	60-180	60	128	GapExp	0	206	3	75	0	target	0	240	-1000	-22667	13.328	13.293	13.386
ProbeTrackDT01	6	ProbeTrackDT01	10.3	SCS215a	20100519.154128	20100519.161028	8	0.013328	60	10	60-180	60	176	GapExp	0	207	3	1	1	target	1	1720	140	-22527	13.328	13.289	13.363
ProbeTrackDT01	6	ProbeTrackDT01	10.3	SCS215a	20100519.154128	20100519.161035	8	0.013328	60	10	60-180	60	102	GapExp	0	208	3	75	0	distractor	1	707	647	-21880	13.328	13.007	13.615
ProbeTrackDT01	6	ProbeTrackDT01	10.3	SCS215a	20100519.154128	20100519.161042	8	0.013328	60	10	60-180	60	134	GapExp	0	209	3	2	0	target	0	747	-1000	-22880	13.328	13.245	13.412
ProbeTrackDT01	6	ProbeTrackDT01	10.3	SCS215a	20100519.154128	20100519.161048	8	0.013328	60	10	60-180	60	121	GapExp	0	210	3	0	1	distractor	0	573	-1000	-23880	13.327	13.071	13.585
