exp	sub	code	rev	comp	runtime	trialtime	nstim	refreshdur	cuedur	gapdur	gapOnsetRange	durPostProbe	gapOnsetTime	blocktype	prac	trial	ntargets	soa	probeTarget	resp	acc	rt	pts	tpts	meanFrameDur	minFrameDur	maxFrameDur
ProbeTrackDT01	2	ProbeTrackDT01	10.3	SCS215a	20100514.130105	20100514.130140	8	0.013328	60	0	60-180	60	68	NoGap	1	1	3	2	1	target	1	1413	294	294	13.328	13.293	13.363
ProbeTrackDT01	2	ProbeTrackDT01	10.3	SCS215a	20100514.130105	20100514.130146	8	0.013328	60	0	60-180	60	63	NoGap	1	2	3	1	1	target	1	813	594	888	13.461	13.077	39.984
ProbeTrackDT01	2	ProbeTrackDT01	10.3	SCS215a	20100514.130105	20100514.130151	8	0.013328	60	0	60-180	60	68	NoGap	1	3	3	1	1	target	1	507	747	1635	13.328	13.069	13.552
ProbeTrackDT01	2	ProbeTrackDT01	10.3	SCS215a	20100514.130105	20100514.130156	8	0.013328	60	0	60-180	60	103	NoGap	1	4	3	1	0	target	0	734	-1000	635	13.384	13.156	26.409
ProbeTrackDT01	2	ProbeTrackDT01	10.3	SCS215a	20100514.130105	20100514.130201	8	0.013328	60	0	60-180	60	148	NoGap	1	5	3	4	1	target	1	734	633	1268	13.375	13.293	26.654
ProbeTrackDT01	2	ProbeTrackDT01	10.3	SCS215a	20100514.130105	20100514.130207	8	0.013328	60	0	60-180	60	159	NoGap	1	6	3	2	1	target	1	693	654	1922	13.374	12.866	27.084
ProbeTrackDT01	2	ProbeTrackDT01	10.3	SCS215a	20100514.130105	20100514.130213	8	0.013328	60	0	60-180	60	66	NoGap	1	7	3	0	0	distractor	1	760	620	2542	13.328	13.182	13.474
ProbeTrackDT01	2	ProbeTrackDT01	10.3	SCS215a	20100514.130105	20100514.130218	8	0.013328	60	0	60-180	60	120	NoGap	1	8	3	0	0	distractor	1	880	560	3102	13.328	13.260	13.430
ProbeTrackDT01	2	ProbeTrackDT01	10.3	SCS215a	20100514.130105	20100514.130224	8	0.013328	60	0	60-180	60	159	NoGap	1	9	3	75	1	target	1	933	534	3636	13.436	13.138	40.174
ProbeTrackDT01	2	ProbeTrackDT01	10.3	SCS215a	20100514.130105	20100514.130232	8	0.013328	60	0	60-180	60	116	NoGap	1	10	3	0	0	distractor	1	627	687	4323	13.328	13.047	13.608
ProbeTrackDT01	2	ProbeTrackDT01	10.3	SCS215a	20100514.130105	20100514.130237	8	0.013328	60	0	60-180	60	164	NoGap	1	11	3	0	1	target	1	773	614	4937	13.328	13.164	13.524
ProbeTrackDT01	2	ProbeTrackDT01	10.3	SCS215a	20100514.130105	20100514.130244	8	0.013328	60	0	60-180	60	156	NoGap	1	12	3	75	0	distractor	1	640	680	5617	13.328	13.099	13.557
ProbeTrackDT01	2	ProbeTrackDT01	10.3	SCS215a	20100514.130105	20100514.130251	8	0.013328	60	0	60-180	60	72	NoGap	1	13	3	2	0	distractor	1	640	680	6297	13.462	12.961	40.351
ProbeTrackDT01	2	ProbeTrackDT01	10.3	SCS215a	20100514.130105	20100514.130256	8	0.013328	60	0	60-180	60	75	NoGap	1	14	3	0	1	target	1	1040	480	6777	13.455	13.024	40.252
ProbeTrackDT01	2	ProbeTrackDT01	10.3	SCS215a	20100514.130105	20100514.130301	8	0.013328	60	0	60-180	60	128	NoGap	1	15	3	75	0	distractor	1	747	627	7404	13.407	13.027	26.838
ProbeTrackDT01	2	ProbeTrackDT01	10.3	SCS215a	20100514.130105	20100514.130308	8	0.013328	60	0	60-180	60	78	NoGap	1	16	3	1	0	distractor	1	760	620	8024	13.328	12.856	13.800
ProbeTrackDT01	2	ProbeTrackDT01	10.3	SCS215a	20100514.130105	20100514.130313	8	0.013328	60	0	60-180	60	94	NoGap	1	17	3	4	0	target	0	853	-1000	7024	13.328	13.292	13.363
ProbeTrackDT01	2	ProbeTrackDT01	10.3	SCS215a	20100514.130105	20100514.130318	8	0.013328	60	0	60-180	60	70	NoGap	1	18	3	1	1	distractor	0	627	-1000	6024	13.396	13.293	26.627
ProbeTrackDT01	2	ProbeTrackDT01	10.3	SCS215a	20100514.130105	20100514.130323	8	0.013328	60	0	60-180	60	165	NoGap	1	19	3	4	0	distractor	1	600	700	6724	13.374	13.140	26.621
ProbeTrackDT01	2	ProbeTrackDT01	10.3	SCS215a	20100514.130105	20100514.130329	8	0.013328	60	0	60-180	60	165	NoGap	1	20	3	75	1	target	1	507	747	7471	13.365	13.005	27.011
ProbeTrackDT01	2	ProbeTrackDT01	10.3	SCS215a	20100514.130105	20100514.130337	8	0.013328	60	0	60-180	60	85	NoGap	1	21	3	1	1	target	1	787	607	8078	13.328	13.013	13.641
ProbeTrackDT01	2	ProbeTrackDT01	10.3	SCS215a	20100514.130105	20100514.130342	8	0.013328	60	0	60-180	60	175	NoGap	1	22	3	4	1	target	1	640	680	8758	13.328	13.260	13.367
ProbeTrackDT01	2	ProbeTrackDT01	10.3	SCS215a	20100514.130105	20100514.130348	8	0.013328	60	0	60-180	60	179	NoGap	1	23	3	75	0	distractor	1	907	547	9305	13.362	13.121	26.657
ProbeTrackDT01	2	ProbeTrackDT01	10.3	SCS215a	20100514.130105	20100514.130356	8	0.013328	60	0	60-180	60	103	NoGap	1	24	3	75	1	target	1	787	607	9912	13.455	12.882	53.789
ProbeTrackDT01	2	ProbeTrackDT01	10.3	SCS215a	20100514.130105	20100514.130402	8	0.013328	60	0	60-180	60	93	NoGap	1	25	3	4	0	target	0	747	-1000	8912	13.328	13.280	13.408
ProbeTrackDT01	2	ProbeTrackDT01	10.3	SCS215a	20100514.130105	20100514.130408	8	0.013328	60	0	60-180	60	152	NoGap	1	26	3	4	1	target	1	773	614	9526	13.328	13.005	13.682
ProbeTrackDT01	2	ProbeTrackDT01	10.3	SCS215a	20100514.130105	20100514.130414	8	0.013328	60	0	60-180	60	68	NoGap	1	27	3	0	1	target	1	840	580	10106	13.328	13.187	13.468
ProbeTrackDT01	2	ProbeTrackDT01	10.3	SCS215a	20100514.130105	20100514.130419	8	0.013328	60	0	60-180	60	130	NoGap	1	28	3	2	0	distractor	1	787	607	10713	13.328	13.025	13.631
ProbeTrackDT01	2	ProbeTrackDT01	10.3	SCS215a	20100514.130105	20100514.130425	8	0.013328	60	0	60-180	60	71	NoGap	1	29	3	2	0	distractor	1	840	580	11293	13.328	13.072	13.582
ProbeTrackDT01	2	ProbeTrackDT01	10.3	SCS215a	20100514.130105	20100514.130430	8	0.013328	60	0	60-180	60	169	NoGap	1	30	3	2	1	target	1	640	680	11973	13.328	13.006	13.683
ProbeTrackDT01	2	ProbeTrackDT01	10.3	SCS215a	20100514.130105	20100514.130436	8	0.013328	60	0	60-180	60	77	NoGap	1	31	3	2	0	distractor	1	760	620	12593	13.328	12.976	13.681
ProbeTrackDT01	2	ProbeTrackDT01	10.3	SCS215a	20100514.130105	20100514.130441	8	0.013328	60	0	60-180	60	113	NoGap	1	32	3	75	1	target	1	640	680	13273	13.328	13.038	13.584
ProbeTrackDT01	2	ProbeTrackDT01	10.3	SCS215a	20100514.130105	20100514.130448	8	0.013328	60	0	60-180	60	84	NoGap	1	33	3	0	1	target	1	693	654	13927	13.328	13.245	13.427
ProbeTrackDT01	2	ProbeTrackDT01	10.3	SCS215a	20100514.130105	20100514.130453	8	0.013328	60	0	60-180	60	75	NoGap	1	34	3	1	0	distractor	1	987	507	14434	13.328	13.210	13.445
ProbeTrackDT01	2	ProbeTrackDT01	10.3	SCS215a	20100514.130105	20100514.130458	8	0.013328	60	0	60-180	60	87	NoGap	1	35	3	1	0	distractor	1	920	540	14974	13.328	12.972	13.684
ProbeTrackDT01	2	ProbeTrackDT01	10.3	SCS215a	20100514.130105	20100514.130504	8	0.013328	60	0	60-180	60	171	NoGap	1	36	3	4	1	target	1	574	713	15687	13.328	13.054	13.602
ProbeTrackDT01	2	ProbeTrackDT01	10.3	SCS215a	20100514.130105	20100514.130510	8	0.013328	60	0	60-180	60	133	NoGap	1	37	3	0	0	distractor	1	720	640	16327	13.328	13.292	13.363
ProbeTrackDT01	2	ProbeTrackDT01	10.3	SCS215a	20100514.130105	20100514.130516	8	0.013328	60	0	60-180	60	95	NoGap	1	38	3	2	1	target	1	1053	474	16801	13.328	13.246	13.409
ProbeTrackDT01	2	ProbeTrackDT01	10.3	SCS215a	20100514.130105	20100514.130521	8	0.013328	60	0	60-180	60	141	NoGap	1	39	3	75	0	distractor	1	840	580	17381	13.328	13.181	13.440
ProbeTrackDT01	2	ProbeTrackDT01	10.3	SCS215a	20100514.130105	20100514.130528	8	0.013328	60	0	60-180	60	95	NoGap	1	40	3	4	0	distractor	1	747	627	18008	13.328	13.213	13.475
ProbeTrackDT01	2	ProbeTrackDT01	10.3	SCS215a	20100514.130617	20100514.130645	8	0.013300	60	10	60-180	60	91	GapPrac	1	1	3	4	0	target	0	1773	-1000	17008	13.661	13.293	79.996
ProbeTrackDT01	2	ProbeTrackDT01	10.3	SCS215a	20100514.130617	20100514.130651	8	0.013300	60	10	60-180	60	124	GapPrac	1	2	3	75	0	distractor	1	1013	494	17502	13.366	13.293	26.634
ProbeTrackDT01	2	ProbeTrackDT01	10.3	SCS215a	20100514.130617	20100514.130658	8	0.013300	60	10	60-180	60	134	GapPrac	1	3	3	2	1	target	1	987	507	18009	13.328	13.064	13.559
ProbeTrackDT01	2	ProbeTrackDT01	10.3	SCS215a	20100514.130617	20100514.130705	8	0.013300	60	10	60-180	60	174	GapPrac	1	4	3	75	1	target	1	1586	207	18216	13.328	13.082	13.540
ProbeTrackDT01	2	ProbeTrackDT01	10.3	SCS215a	20100514.130617	20100514.130713	8	0.013300	60	10	60-180	60	65	GapPrac	1	5	3	2	0	distractor	1	2080	0	18216	13.328	13.056	13.565
ProbeTrackDT01	2	ProbeTrackDT01	10.3	SCS215a	20100514.130617	20100514.130719	8	0.013300	60	10	60-180	60	150	GapPrac	1	6	3	4	0	distractor	1	1387	307	18523	13.328	13.207	13.481
ProbeTrackDT01	2	ProbeTrackDT01	10.3	SCS215a	20100514.130617	20100514.130726	8	0.013300	60	10	60-180	60	95	GapPrac	1	7	3	0	0	target	0	760	-1000	17523	13.328	13.147	13.542
ProbeTrackDT01	2	ProbeTrackDT01	10.3	SCS215a	20100514.130617	20100514.130732	8	0.013300	60	10	60-180	60	65	GapPrac	1	8	3	75	0	distractor	1	867	567	18090	13.328	13.118	13.537
ProbeTrackDT01	2	ProbeTrackDT01	10.3	SCS215a	20100514.130617	20100514.130738	8	0.013300	60	10	60-180	60	168	GapPrac	1	9	3	1	1	distractor	0	1400	-1000	17090	13.328	13.171	13.484
ProbeTrackDT01	2	ProbeTrackDT01	10.3	SCS215a	20100514.130617	20100514.130745	8	0.013300	60	10	60-180	60	93	GapPrac	1	10	3	0	0	distractor	1	1386	307	17397	13.328	13.114	13.512
ProbeTrackDT01	2	ProbeTrackDT01	10.3	SCS215a	20100514.130617	20100514.130751	8	0.013300	60	10	60-180	60	102	GapPrac	1	11	3	2	0	distractor	1	1213	394	17791	13.381	13.264	26.656
ProbeTrackDT01	2	ProbeTrackDT01	10.3	SCS215a	20100514.130617	20100514.130757	8	0.013300	60	10	60-180	60	98	GapPrac	1	12	3	0	1	target	1	920	540	18331	13.328	13.162	13.527
ProbeTrackDT01	2	ProbeTrackDT01	10.3	SCS215a	20100514.130617	20100514.130803	8	0.013300	60	10	60-180	60	107	GapPrac	1	13	3	1	0	distractor	1	800	600	18931	13.328	13.253	13.402
ProbeTrackDT01	2	ProbeTrackDT01	10.3	SCS215a	20100514.130617	20100514.130809	8	0.013300	60	10	60-180	60	86	GapPrac	1	14	3	1	1	distractor	0	1080	-1000	17931	13.328	13.109	13.513
ProbeTrackDT01	2	ProbeTrackDT01	10.3	SCS215a	20100514.130617	20100514.130814	8	0.013300	60	10	60-180	60	160	GapPrac	1	15	3	0	1	target	1	733	634	18565	13.328	13.293	13.363
ProbeTrackDT01	2	ProbeTrackDT01	10.3	SCS215a	20100514.130617	20100514.130821	8	0.013300	60	10	60-180	60	139	GapPrac	1	16	3	75	1	target	1	640	680	19245	13.366	12.965	27.050
ProbeTrackDT01	2	ProbeTrackDT01	10.3	SCS215a	20100514.130617	20100514.130828	8	0.013300	60	10	60-180	60	73	GapPrac	1	17	3	1	0	distractor	1	853	574	19819	13.328	13.293	13.365
ProbeTrackDT01	2	ProbeTrackDT01	10.3	SCS215a	20100514.130617	20100514.130833	8	0.013300	60	10	60-180	60	146	GapPrac	1	18	3	2	1	target	1	973	514	20333	13.328	13.259	13.398
ProbeTrackDT01	2	ProbeTrackDT01	10.3	SCS215a	20100514.130617	20100514.130839	8	0.013300	60	10	60-180	60	116	GapPrac	1	19	3	4	1	target	1	694	653	20986	13.328	13.019	13.604
ProbeTrackDT01	2	ProbeTrackDT01	10.3	SCS215a	20100514.130617	20100514.130845	8	0.013300	60	10	60-180	60	177	GapPrac	1	20	3	4	1	target	1	840	580	21566	13.328	13.258	13.393
ProbeTrackDT01	2	ProbeTrackDT01	10.3	SCS215a	20100514.130948	20100514.131022	8	0.013328	60	10	60-180	60	70	GapPrac	1	1	3	2	1	target	1	-4	1002	22568	13.328	13.293	13.377
ProbeTrackDT01	2	ProbeTrackDT01	10.3	SCS215a	20100514.130948	20100514.131027	8	0.013328	60	10	60-180	60	62	GapPrac	1	2	3	1	1	distractor	0	640	-1000	21568	13.395	13.175	26.808
ProbeTrackDT01	2	ProbeTrackDT01	10.3	SCS215a	20100514.130948	20100514.131032	8	0.013328	60	10	60-180	60	134	GapPrac	1	3	3	75	0	target	0	427	-1000	20568	13.328	13.040	13.617
ProbeTrackDT01	2	ProbeTrackDT01	10.3	SCS215a	20100514.130948	20100514.131039	8	0.013328	60	10	60-180	60	76	GapPrac	1	4	3	4	0	target	0	760	-1000	19568	13.328	13.185	13.470
ProbeTrackDT01	2	ProbeTrackDT01	10.3	SCS215a	20100514.130948	20100514.131044	8	0.013328	60	10	60-180	60	180	GapPrac	1	5	3	2	0	32	-3	41783	-1000	18568	13.368	13.150	26.834
ProbeTrackDT01	2	ProbeTrackDT01	10.3	SCS215a	20100514.130948	20100514.131131	8	0.013328	60	10	60-180	60	119	GapPrac	1	6	3	0	1	target	1	747	627	19195	13.328	13.005	13.651
ProbeTrackDT01	2	ProbeTrackDT01	10.3	SCS215a	20100514.130948	20100514.131137	8	0.013328	60	10	60-180	60	129	GapPrac	1	7	3	1	1	distractor	0	947	-1000	18195	13.328	13.181	13.476
ProbeTrackDT01	2	ProbeTrackDT01	10.3	SCS215a	20100514.130948	20100514.131144	8	0.013328	60	10	60-180	60	70	GapPrac	1	8	3	0	1	target	1	760	620	18815	13.328	13.234	13.421
ProbeTrackDT01	2	ProbeTrackDT01	10.3	SCS215a	20100514.130948	20100514.131149	8	0.013328	60	10	60-180	60	145	GapPrac	1	9	3	2	1	target	1	1	1000	19815	13.328	13.209	13.414
ProbeTrackDT01	2	ProbeTrackDT01	10.3	SCS215a	20100514.130948	20100514.131154	8	0.013328	60	10	60-180	60	108	GapPrac	1	10	3	75	0	target	0	1187	-1000	18815	13.328	12.895	13.757
ProbeTrackDT01	2	ProbeTrackDT01	10.3	SCS215a	20100514.130948	20100514.131201	8	0.013328	60	10	60-180	60	175	GapPrac	1	11	3	75	1	distractor	0	-13	-1000	17815	13.328	13.250	13.406
ProbeTrackDT01	2	ProbeTrackDT01	10.3	SCS215a	20100514.130948	20100514.131208	8	0.013328	60	10	60-180	60	113	GapPrac	1	12	3	4	0	target	0	307	-1000	16815	13.328	13.212	13.444
ProbeTrackDT01	2	ProbeTrackDT01	10.3	SCS215a	20100514.130948	20100514.131213	8	0.013328	60	10	60-180	60	73	GapPrac	1	13	3	2	0	target	0	880	-1000	15815	13.328	13.246	13.409
ProbeTrackDT01	2	ProbeTrackDT01	10.3	SCS215a	20100514.130948	20100514.131219	8	0.013328	60	10	60-180	60	69	GapPrac	1	14	3	0	0	target	0	5265	-1000	14815	13.328	13.224	13.432
ProbeTrackDT01	2	ProbeTrackDT01	10.3	SCS215a	20100514.130948	20100514.131228	8	0.013328	60	10	60-180	60	147	GapPrac	1	15	3	0	0	distractor	1	1786	107	14922	13.373	13.177	26.686
ProbeTrackDT01	2	ProbeTrackDT01	10.3	SCS215a	20100514.130948	20100514.131235	8	0.013328	60	10	60-180	60	74	GapPrac	1	16	3	1	0	distractor	1	3359	0	14922	13.328	13.143	13.513
ProbeTrackDT01	2	ProbeTrackDT01	10.3	SCS215a	20100514.130948	20100514.131243	8	0.013328	60	10	60-180	60	70	GapPrac	1	17	3	4	1	distractor	0	2026	-1000	13922	13.328	13.261	13.395
ProbeTrackDT01	2	ProbeTrackDT01	10.3	SCS215a	20100514.130948	20100514.131250	8	0.013328	60	10	60-180	60	124	GapPrac	1	18	3	4	1	target	1	853	574	14496	13.328	13.135	13.521
ProbeTrackDT01	2	ProbeTrackDT01	10.3	SCS215a	20100514.130948	20100514.131256	8	0.013328	60	10	60-180	60	158	GapPrac	1	19	3	1	0	target	0	1453	-1000	13496	13.328	13.202	13.487
ProbeTrackDT01	2	ProbeTrackDT01	10.3	SCS215a	20100514.130948	20100514.131303	8	0.013328	60	10	60-180	60	76	GapPrac	1	20	3	75	1	32	-3	4825	-1000	12496	13.463	13.293	39.950
ProbeTrackDT01	2	ProbeTrackDT01	10.3	SCS215a	20100514.141247	20100514.141323	8	0.013327	60	10	60-180	60	156	GapPrac	1	1	3	0	0	distractor	1	787	607	13103	13.461	12.871	53.768
ProbeTrackDT01	2	ProbeTrackDT01	10.3	SCS215a	20100514.141247	20100514.141330	8	0.013327	60	10	60-180	60	129	GapPrac	1	2	3	2	0	target	0	507	-1000	12103	13.432	12.978	40.366
ProbeTrackDT01	2	ProbeTrackDT01	10.3	SCS215a	20100514.141247	20100514.141335	8	0.013327	60	10	60-180	60	174	GapPrac	1	3	3	4	0	distractor	1	347	827	12930	13.419	13.010	40.334
ProbeTrackDT01	2	ProbeTrackDT01	10.3	SCS215a	20100514.141247	20100514.141342	8	0.013327	60	10	60-180	60	101	GapPrac	1	4	3	2	0	target	0	440	-1000	11930	13.328	13.194	13.494
ProbeTrackDT01	2	ProbeTrackDT01	10.3	SCS215a	20100514.141247	20100514.141347	8	0.013327	60	10	60-180	60	137	GapPrac	1	5	3	75	1	distractor	0	1666	-1000	10930	13.328	12.903	13.752
ProbeTrackDT01	2	ProbeTrackDT01	10.3	SCS215a	20100514.141247	20100514.141355	8	0.013327	60	10	60-180	60	176	GapPrac	1	6	3	1	1	distractor	0	707	-1000	9930	13.538	12.907	80.387
ProbeTrackDT01	2	ProbeTrackDT01	10.3	SCS215a	20100514.141247	20100514.141401	8	0.013327	60	10	60-180	60	124	GapPrac	1	7	3	0	1	target	1	1133	434	10364	13.328	13.058	13.598
ProbeTrackDT01	2	ProbeTrackDT01	10.3	SCS215a	20100514.141247	20100514.141407	8	0.013327	60	10	60-180	60	88	GapPrac	1	8	3	2	1	target	1	827	587	10951	13.328	13.289	13.367
ProbeTrackDT01	2	ProbeTrackDT01	10.3	SCS215a	20100514.141247	20100514.141413	8	0.013327	60	10	60-180	60	157	GapPrac	1	9	3	1	0	distractor	1	534	733	11684	13.328	13.293	13.371
ProbeTrackDT01	2	ProbeTrackDT01	10.3	SCS215a	20100514.141247	20100514.141419	8	0.013327	60	10	60-180	60	162	GapPrac	1	10	3	0	0	distractor	1	680	660	12344	13.328	12.924	13.765
ProbeTrackDT01	2	ProbeTrackDT01	10.3	SCS215a	20100514.141247	20100514.141425	8	0.013327	60	10	60-180	60	149	GapPrac	1	11	3	0	1	target	1	920	540	12884	13.418	13.275	26.692
ProbeTrackDT01	2	ProbeTrackDT01	10.3	SCS215a	20100514.141247	20100514.141431	8	0.013327	60	10	60-180	60	178	GapPrac	1	12	3	75	0	target	0	1200	-1000	11884	13.328	13.275	13.381
ProbeTrackDT01	2	ProbeTrackDT01	10.3	SCS215a	20100514.141247	20100514.141439	8	0.013327	60	10	60-180	60	173	GapPrac	1	13	3	4	1	target	1	574	713	12597	13.328	13.173	13.488
ProbeTrackDT01	2	ProbeTrackDT01	10.3	SCS215a	20100514.141247	20100514.141446	8	0.013327	60	10	60-180	60	133	GapPrac	1	14	3	2	1	target	1	813	594	13191	13.328	13.095	13.561
ProbeTrackDT01	2	ProbeTrackDT01	10.3	SCS215a	20100514.141247	20100514.141452	8	0.013327	60	10	60-180	60	78	GapPrac	1	15	3	4	1	distractor	0	614	-1000	12191	13.328	13.293	13.363
ProbeTrackDT01	2	ProbeTrackDT01	10.3	SCS215a	20100514.141247	20100514.141457	8	0.013327	60	10	60-180	60	79	GapPrac	1	16	3	1	1	target	1	640	680	12871	13.328	13.056	13.633
ProbeTrackDT01	2	ProbeTrackDT01	10.3	SCS215a	20100514.141247	20100514.141502	8	0.013327	60	10	60-180	60	122	GapPrac	1	17	3	4	0	distractor	1	534	733	13604	13.328	13.264	13.392
ProbeTrackDT01	2	ProbeTrackDT01	10.3	SCS215a	20100514.141247	20100514.141508	8	0.013327	60	10	60-180	60	81	GapPrac	1	18	3	75	1	target	1	1027	487	14091	13.328	13.062	13.626
ProbeTrackDT01	2	ProbeTrackDT01	10.3	SCS215a	20100514.141247	20100514.141514	8	0.013327	60	10	60-180	60	62	GapPrac	1	19	3	1	0	target	0	653	-1000	13091	13.395	13.293	26.636
ProbeTrackDT01	2	ProbeTrackDT01	10.3	SCS215a	20100514.141247	20100514.141519	8	0.013327	60	10	60-180	60	100	GapPrac	1	20	3	75	0	distractor	1	1147	427	13518	13.369	13.071	26.885
ProbeTrackDT01	2	ProbeTrackDT01	10.3	SCS215a	20100514.141548	20100514.141604	8	0.013328	60	10	60-180	60	68	GapExp	1	1	3	75	0	target	0	600	-1000	12518	13.328	13.268	13.363
ProbeTrackDT01	2	ProbeTrackDT01	10.3	SCS215a	20100514.141548	20100514.141610	8	0.013328	60	10	60-180	60	96	GapExp	1	2	3	2	1	target	1	400	800	13318	13.328	13.276	13.371
ProbeTrackDT01	2	ProbeTrackDT01	10.3	SCS215a	20100514.141548	20100514.141615	8	0.013328	60	10	60-180	60	168	GapExp	1	3	3	1	0	distractor	1	707	647	13965	13.328	13.293	13.363
ProbeTrackDT01	2	ProbeTrackDT01	10.3	SCS215a	20100514.141548	20100514.141622	8	0.013328	60	10	60-180	60	67	GapExp	1	4	3	4	1	target	1	760	620	14585	13.328	13.073	13.581
ProbeTrackDT01	2	ProbeTrackDT01	10.3	SCS215a	20100514.141548	20100514.141627	8	0.013328	60	10	60-180	60	96	GapExp	1	5	3	0	1	target	1	494	753	15338	13.328	13.215	13.441
ProbeTrackDT01	2	ProbeTrackDT01	10.3	SCS215a	20100514.141548	20100514.141632	8	0.013328	60	10	60-180	60	153	GapExp	1	6	3	75	1	target	1	1040	480	15818	13.328	13.072	13.583
ProbeTrackDT01	2	ProbeTrackDT01	10.3	SCS215a	20100514.141548	20100514.141639	8	0.013328	60	10	60-180	60	154	GapExp	1	7	3	4	0	distractor	1	720	640	16458	13.372	13.239	26.770
ProbeTrackDT01	2	ProbeTrackDT01	10.3	SCS215a	20100514.141548	20100514.141646	8	0.013328	60	10	60-180	60	126	GapExp	1	8	3	0	0	target	0	4252	-1000	15458	13.328	13.185	13.436
ProbeTrackDT01	2	ProbeTrackDT01	10.3	SCS215a	20100514.141548	20100514.141655	8	0.013328	60	10	60-180	60	171	GapExp	1	9	3	1	1	target	1	600	700	16158	13.328	13.158	13.496
ProbeTrackDT01	2	ProbeTrackDT01	10.3	SCS215a	20100514.141548	20100514.141701	8	0.013328	60	10	60-180	60	109	GapExp	1	10	3	2	0	distractor	1	693	654	16812	13.328	13.155	13.534
ProbeTrackDT01	2	ProbeTrackDT01	10.3	SCS215a	20100514.141548	20100514.141707	8	0.013328	60	10	60-180	60	114	GapExp	0	11	3	1	1	target	1	427	787	17599	13.328	13.114	13.541
ProbeTrackDT01	2	ProbeTrackDT01	10.3	SCS215a	20100514.141548	20100514.141712	8	0.013328	60	10	60-180	60	175	GapExp	0	12	3	4	0	distractor	1	1000	500	18099	13.328	13.183	13.474
ProbeTrackDT01	2	ProbeTrackDT01	10.3	SCS215a	20100514.141548	20100514.141719	8	0.013328	60	10	60-180	60	101	GapExp	0	13	3	1	0	distractor	1	587	707	18806	13.328	13.293	13.363
ProbeTrackDT01	2	ProbeTrackDT01	10.3	SCS215a	20100514.141548	20100514.141724	8	0.013328	60	10	60-180	60	168	GapExp	0	14	3	0	1	target	1	1000	500	19306	13.455	12.874	40.470
ProbeTrackDT01	2	ProbeTrackDT01	10.3	SCS215a	20100514.141548	20100514.141731	8	0.013328	60	10	60-180	60	160	GapExp	0	15	3	2	0	target	0	707	-1000	18306	13.328	13.046	13.643
ProbeTrackDT01	2	ProbeTrackDT01	10.3	SCS215a	20100514.141548	20100514.141737	8	0.013328	60	10	60-180	60	81	GapExp	0	16	3	4	1	target	1	1147	427	18733	13.386	13.091	26.808
ProbeTrackDT01	2	ProbeTrackDT01	10.3	SCS215a	20100514.141548	20100514.141743	8	0.013328	60	10	60-180	60	179	GapExp	0	17	3	75	1	target	1	547	727	19460	13.328	13.091	13.565
ProbeTrackDT01	2	ProbeTrackDT01	10.3	SCS215a	20100514.141548	20100514.141750	8	0.013328	60	10	60-180	60	87	GapExp	0	18	3	0	1	target	1	574	713	20173	13.328	13.288	13.367
ProbeTrackDT01	2	ProbeTrackDT01	10.3	SCS215a	20100514.141548	20100514.141755	8	0.013328	60	10	60-180	60	147	GapExp	0	19	3	0	0	distractor	1	920	540	20713	13.373	12.886	27.130
ProbeTrackDT01	2	ProbeTrackDT01	10.3	SCS215a	20100514.141548	20100514.141802	8	0.013328	60	10	60-180	60	162	GapExp	0	20	3	2	1	target	1	520	740	21453	13.328	13.119	13.536
ProbeTrackDT01	2	ProbeTrackDT01	10.3	SCS215a	20100514.141548	20100514.141808	8	0.013328	60	10	60-180	60	137	GapExp	0	21	3	4	1	target	1	414	793	22246	13.328	13.290	13.366
ProbeTrackDT01	2	ProbeTrackDT01	10.3	SCS215a	20100514.141548	20100514.141813	8	0.013328	60	10	60-180	60	105	GapExp	0	22	3	2	0	target	0	494	-1000	21246	13.328	13.289	13.362
ProbeTrackDT01	2	ProbeTrackDT01	10.3	SCS215a	20100514.141548	20100514.141819	8	0.013328	60	10	60-180	60	179	GapExp	0	23	3	1	1	target	1	560	720	21966	13.328	13.293	13.365
ProbeTrackDT01	2	ProbeTrackDT01	10.3	SCS215a	20100514.141548	20100514.141825	8	0.013328	60	10	60-180	60	147	GapExp	0	24	3	4	0	distractor	1	520	740	22706	13.328	13.219	13.435
ProbeTrackDT01	2	ProbeTrackDT01	10.3	SCS215a	20100514.141548	20100514.141831	8	0.013328	60	10	60-180	60	173	GapExp	0	25	3	4	1	target	1	960	520	23226	13.328	13.167	13.455
ProbeTrackDT01	2	ProbeTrackDT01	10.3	SCS215a	20100514.141548	20100514.141838	8	0.013328	60	10	60-180	60	63	GapExp	0	26	3	4	1	distractor	0	693	-1000	22226	13.328	13.146	13.543
ProbeTrackDT01	2	ProbeTrackDT01	10.3	SCS215a	20100514.141548	20100514.141843	8	0.013328	60	10	60-180	60	147	GapExp	0	27	3	1	0	target	0	920	-1000	21226	13.328	13.049	13.572
ProbeTrackDT01	2	ProbeTrackDT01	10.3	SCS215a	20100514.141548	20100514.141849	8	0.013328	60	10	60-180	60	156	GapExp	0	28	3	75	1	target	1	520	740	21966	13.365	13.152	26.656
ProbeTrackDT01	2	ProbeTrackDT01	10.3	SCS215a	20100514.141548	20100514.141856	8	0.013328	60	10	60-180	60	74	GapExp	0	29	3	4	0	distractor	1	614	693	22659	13.326	12.958	13.364
ProbeTrackDT01	2	ProbeTrackDT01	10.3	SCS215a	20100514.141548	20100514.141901	8	0.013328	60	10	60-180	60	111	GapExp	0	30	3	0	0	target	0	1653	-1000	21659	13.328	13.256	13.366
ProbeTrackDT01	2	ProbeTrackDT01	10.3	SCS215a	20100514.141548	20100514.141908	8	0.013328	60	10	60-180	60	165	GapExp	0	31	3	4	1	target	1	494	753	22412	13.328	13.293	13.390
ProbeTrackDT01	2	ProbeTrackDT01	10.3	SCS215a	20100514.141548	20100514.141914	8	0.013328	60	10	60-180	60	68	GapExp	0	32	3	0	1	target	1	574	713	23125	13.328	13.293	13.362
ProbeTrackDT01	2	ProbeTrackDT01	10.3	SCS215a	20100514.141548	20100514.141919	8	0.013328	60	10	60-180	60	121	GapExp	0	33	3	75	1	target	1	494	753	23878	13.369	13.099	26.824
ProbeTrackDT01	2	ProbeTrackDT01	10.3	SCS215a	20100514.141548	20100514.141925	8	0.013328	60	10	60-180	60	75	GapExp	0	34	3	4	0	target	0	4159	-1000	22878	13.387	13.131	26.820
ProbeTrackDT01	2	ProbeTrackDT01	10.3	SCS215a	20100514.141548	20100514.141934	8	0.013328	60	10	60-180	60	132	GapExp	0	35	3	1	1	target	1	2852	0	22878	13.328	13.260	13.395
ProbeTrackDT01	2	ProbeTrackDT01	10.3	SCS215a	20100514.141548	20100514.141942	8	0.013328	60	10	60-180	60	66	GapExp	0	36	3	1	0	distractor	1	880	560	23438	13.391	13.232	26.740
ProbeTrackDT01	2	ProbeTrackDT01	10.3	SCS215a	20100514.141548	20100514.141947	8	0.013328	60	10	60-180	60	77	GapExp	0	37	3	1	0	target	0	640	-1000	22438	13.328	13.047	13.609
ProbeTrackDT01	2	ProbeTrackDT01	10.3	SCS215a	20100514.141548	20100514.141952	8	0.013328	60	10	60-180	60	91	GapExp	0	38	3	1	1	target	1	534	733	23171	13.328	13.084	13.537
ProbeTrackDT01	2	ProbeTrackDT01	10.3	SCS215a	20100514.141548	20100514.141957	8	0.013328	60	10	60-180	60	173	GapExp	0	39	3	75	1	target	1	587	707	23878	13.328	13.003	13.687
ProbeTrackDT01	2	ProbeTrackDT01	10.3	SCS215a	20100514.141548	20100514.142004	8	0.013328	60	10	60-180	60	81	GapExp	0	40	3	1	0	target	0	880	-1000	22878	13.328	13.101	13.554
ProbeTrackDT01	2	ProbeTrackDT01	10.3	SCS215a	20100514.141548	20100514.142010	8	0.013328	60	10	60-180	60	116	GapExp	0	41	3	0	0	distractor	1	707	647	23525	13.328	13.112	13.543
ProbeTrackDT01	2	ProbeTrackDT01	10.3	SCS215a	20100514.141548	20100514.142015	8	0.013328	60	10	60-180	60	161	GapExp	0	42	3	1	1	distractor	0	720	-1000	22525	13.372	13.180	26.388
ProbeTrackDT01	2	ProbeTrackDT01	10.3	SCS215a	20100514.141548	20100514.142022	8	0.013328	60	10	60-180	60	100	GapExp	0	43	3	2	0	distractor	1	1067	467	22992	13.436	13.231	39.976
ProbeTrackDT01	2	ProbeTrackDT01	10.3	SCS215a	20100514.141548	20100514.142028	8	0.013328	60	10	60-180	60	112	GapExp	0	44	3	2	1	target	1	680	660	23652	13.328	13.159	13.496
ProbeTrackDT01	2	ProbeTrackDT01	10.3	SCS215a	20100514.141548	20100514.142033	8	0.013328	60	10	60-180	60	102	GapExp	0	45	3	0	0	distractor	1	680	660	24312	13.883	13.233	53.289
ProbeTrackDT01	2	ProbeTrackDT01	10.3	SCS215a	20100514.141548	20100514.142039	8	0.013328	60	10	60-180	60	91	GapExp	0	46	3	2	0	distractor	1	1160	420	24732	13.384	13.107	26.656
ProbeTrackDT01	2	ProbeTrackDT01	10.3	SCS215a	20100514.141548	20100514.142045	8	0.013328	60	10	60-180	60	151	GapExp	0	47	3	75	0	distractor	1	640	680	25412	13.328	13.293	13.363
ProbeTrackDT01	2	ProbeTrackDT01	10.3	SCS215a	20100514.141548	20100514.142052	8	0.013328	60	10	60-180	60	138	GapExp	0	48	3	1	1	distractor	0	1293	-1000	24412	13.328	13.204	13.452
ProbeTrackDT01	2	ProbeTrackDT01	10.3	SCS215a	20100514.141548	20100514.142058	8	0.013328	60	10	60-180	60	133	GapExp	0	49	3	75	1	target	1	480	760	25172	13.328	13.026	13.664
ProbeTrackDT01	2	ProbeTrackDT01	10.3	SCS215a	20100514.141548	20100514.142105	8	0.013328	60	10	60-180	60	144	GapExp	0	50	3	0	1	target	1	773	614	25786	13.328	12.982	13.673
ProbeTrackDT01	2	ProbeTrackDT01	10.3	SCS215a	20100514.141548	20100514.142143	8	0.013328	60	10	60-180	60	102	GapExp	0	51	3	4	0	target	0	480	-1000	24786	13.328	13.164	13.490
ProbeTrackDT01	2	ProbeTrackDT01	10.3	SCS215a	20100514.141548	20100514.142148	8	0.013328	60	10	60-180	60	149	GapExp	0	52	3	2	0	distractor	1	787	607	25393	13.328	13.035	13.619
ProbeTrackDT01	2	ProbeTrackDT01	10.3	SCS215a	20100514.141548	20100514.142155	8	0.013328	60	10	60-180	60	158	GapExp	0	53	3	4	1	distractor	0	920	-1000	24393	13.328	13.134	13.520
ProbeTrackDT01	2	ProbeTrackDT01	10.3	SCS215a	20100514.141548	20100514.142201	8	0.013328	60	10	60-180	60	121	GapExp	0	54	3	2	1	target	1	560	720	25113	13.328	13.008	13.613
ProbeTrackDT01	2	ProbeTrackDT01	10.3	SCS215a	20100514.141548	20100514.142207	8	0.013328	60	10	60-180	60	98	GapExp	0	55	3	75	1	target	1	440	780	25893	13.328	13.293	13.363
ProbeTrackDT01	2	ProbeTrackDT01	10.3	SCS215a	20100514.141548	20100514.142213	8	0.013328	60	10	60-180	60	99	GapExp	0	56	3	0	1	target	1	1120	440	26333	13.328	13.136	13.533
ProbeTrackDT01	2	ProbeTrackDT01	10.3	SCS215a	20100514.141548	20100514.142219	8	0.013328	60	10	60-180	60	150	GapExp	0	57	3	4	1	target	1	707	647	26980	13.328	12.993	13.661
ProbeTrackDT01	2	ProbeTrackDT01	10.3	SCS215a	20100514.141548	20100514.142225	8	0.013328	60	10	60-180	60	125	GapExp	0	58	3	0	1	target	1	640	680	27660	13.328	13.246	13.410
ProbeTrackDT01	2	ProbeTrackDT01	10.3	SCS215a	20100514.141548	20100514.142231	8	0.013328	60	10	60-180	60	66	GapExp	0	59	3	0	1	target	1	507	747	28407	13.328	13.223	13.431
ProbeTrackDT01	2	ProbeTrackDT01	10.3	SCS215a	20100514.141548	20100514.142235	8	0.013328	60	10	60-180	60	121	GapExp	0	60	3	4	0	distractor	1	614	693	29100	13.328	12.941	13.715
ProbeTrackDT01	2	ProbeTrackDT01	10.3	SCS215a	20100514.141548	20100514.142241	8	0.013328	60	10	60-180	60	151	GapExp	0	61	3	2	0	target	0	1173	-1000	28100	13.328	13.218	13.436
ProbeTrackDT01	2	ProbeTrackDT01	10.3	SCS215a	20100514.141548	20100514.142248	8	0.013328	60	10	60-180	60	177	GapExp	0	62	3	2	1	target	1	600	700	28800	13.328	13.120	13.536
ProbeTrackDT01	2	ProbeTrackDT01	10.3	SCS215a	20100514.141548	20100514.142254	8	0.013328	60	10	60-180	60	147	GapExp	0	63	3	75	1	target	1	707	647	29447	13.328	13.180	13.476
ProbeTrackDT01	2	ProbeTrackDT01	10.3	SCS215a	20100514.141548	20100514.142301	8	0.013328	60	10	60-180	60	162	GapExp	0	64	3	4	0	target	0	560	-1000	28447	13.328	12.996	13.659
ProbeTrackDT01	2	ProbeTrackDT01	10.3	SCS215a	20100514.141548	20100514.142307	8	0.013328	60	10	60-180	60	173	GapExp	0	65	3	75	0	target	0	1067	-1000	27447	13.328	12.932	13.723
ProbeTrackDT01	2	ProbeTrackDT01	10.3	SCS215a	20100514.141548	20100514.142315	8	0.013328	60	10	60-180	60	89	GapExp	0	66	3	75	0	distractor	1	600	700	28147	13.328	13.026	13.629
ProbeTrackDT01	2	ProbeTrackDT01	10.3	SCS215a	20100514.141548	20100514.142321	8	0.013328	60	10	60-180	60	159	GapExp	0	67	3	4	1	target	1	574	713	28860	13.328	13.054	13.634
ProbeTrackDT01	2	ProbeTrackDT01	10.3	SCS215a	20100514.141548	20100514.142328	8	0.013328	60	10	60-180	60	80	GapExp	0	68	3	75	0	distractor	1	760	620	29480	13.328	13.251	13.371
ProbeTrackDT01	2	ProbeTrackDT01	10.3	SCS215a	20100514.141548	20100514.142334	8	0.013328	60	10	60-180	60	102	GapExp	0	69	3	4	1	target	1	760	620	30100	13.328	13.183	13.439
ProbeTrackDT01	2	ProbeTrackDT01	10.3	SCS215a	20100514.141548	20100514.142339	8	0.013328	60	10	60-180	60	175	GapExp	0	70	3	4	1	target	1	933	534	30634	13.328	13.162	13.492
ProbeTrackDT01	2	ProbeTrackDT01	10.3	SCS215a	20100514.141548	20100514.142346	8	0.013328	60	10	60-180	60	104	GapExp	0	71	3	75	0	distractor	1	720	640	31274	13.328	13.212	13.444
ProbeTrackDT01	2	ProbeTrackDT01	10.3	SCS215a	20100514.141548	20100514.142353	8	0.013328	60	10	60-180	60	61	GapExp	0	72	3	0	1	target	1	1320	340	31614	13.328	13.153	13.503
ProbeTrackDT01	2	ProbeTrackDT01	10.3	SCS215a	20100514.141548	20100514.142358	8	0.013328	60	10	60-180	60	77	GapExp	0	73	3	4	1	distractor	0	933	-1000	30614	13.328	13.092	13.563
ProbeTrackDT01	2	ProbeTrackDT01	10.3	SCS215a	20100514.141548	20100514.142404	8	0.013328	60	10	60-180	60	81	GapExp	0	74	3	4	0	target	0	8863	-1000	29614	13.328	13.124	13.497
ProbeTrackDT01	2	ProbeTrackDT01	10.3	SCS215a	20100514.141548	20100514.142417	8	0.013328	60	10	60-180	60	112	GapExp	0	75	3	75	0	distractor	1	1133	434	30048	13.328	13.087	13.568
ProbeTrackDT01	2	ProbeTrackDT01	10.3	SCS215a	20100514.141548	20100514.142424	8	0.013328	60	10	60-180	60	113	GapExp	0	76	3	0	0	distractor	1	747	627	30675	13.328	12.957	13.698
ProbeTrackDT01	2	ProbeTrackDT01	10.3	SCS215a	20100514.141548	20100514.142430	8	0.013328	60	10	60-180	60	69	GapExp	0	77	3	75	0	distractor	1	813	594	31269	13.328	13.081	13.574
ProbeTrackDT01	2	ProbeTrackDT01	10.3	SCS215a	20100514.141548	20100514.142436	8	0.013328	60	10	60-180	60	141	GapExp	0	78	3	75	1	target	1	667	667	31936	13.328	13.112	13.578
ProbeTrackDT01	2	ProbeTrackDT01	10.3	SCS215a	20100514.141548	20100514.142443	8	0.013328	60	10	60-180	60	140	GapExp	0	79	3	75	1	target	1	840	580	32516	13.328	13.114	13.539
ProbeTrackDT01	2	ProbeTrackDT01	10.3	SCS215a	20100514.141548	20100514.142450	8	0.013328	60	10	60-180	60	134	GapExp	0	80	3	2	1	distractor	0	680	-1000	31516	13.328	12.996	13.631
ProbeTrackDT01	2	ProbeTrackDT01	10.3	SCS215a	20100514.141548	20100514.142456	8	0.013328	60	10	60-180	60	164	GapExp	0	81	3	0	0	distractor	1	654	673	32189	13.328	13.244	13.411
ProbeTrackDT01	2	ProbeTrackDT01	10.3	SCS215a	20100514.141548	20100514.142502	8	0.013328	60	10	60-180	60	85	GapExp	0	82	3	75	1	target	1	680	660	32849	13.328	13.114	13.508
ProbeTrackDT01	2	ProbeTrackDT01	10.3	SCS215a	20100514.141548	20100514.142508	8	0.013328	60	10	60-180	60	90	GapExp	0	83	3	2	0	target	0	835	-1000	31849	13.328	13.291	13.363
ProbeTrackDT01	2	ProbeTrackDT01	10.3	SCS215a	20100514.141548	20100514.142514	8	0.013328	60	10	60-180	60	78	GapExp	0	84	3	1	0	distractor	1	720	640	32489	13.328	13.262	13.394
ProbeTrackDT01	2	ProbeTrackDT01	10.3	SCS215a	20100514.141548	20100514.142519	8	0.013328	60	10	60-180	60	102	GapExp	0	85	3	0	0	distractor	1	880	560	33049	13.328	13.228	13.428
ProbeTrackDT01	2	ProbeTrackDT01	10.3	SCS215a	20100514.141548	20100514.142525	8	0.013328	60	10	60-180	60	95	GapExp	0	86	3	1	0	distractor	1	654	673	33722	13.328	13.152	13.503
ProbeTrackDT01	2	ProbeTrackDT01	10.3	SCS215a	20100514.141548	20100514.142530	8	0.013328	60	10	60-180	60	70	GapExp	0	87	3	75	0	distractor	1	853	574	34296	13.328	13.293	13.363
ProbeTrackDT01	2	ProbeTrackDT01	10.3	SCS215a	20100514.141548	20100514.142536	8	0.013328	60	10	60-180	60	152	GapExp	0	88	3	4	0	distractor	1	560	720	35016	13.328	13.283	13.372
ProbeTrackDT01	2	ProbeTrackDT01	10.3	SCS215a	20100514.141548	20100514.142542	8	0.013328	60	10	60-180	60	132	GapExp	0	89	3	1	0	distractor	1	574	713	35729	13.328	13.139	13.512
ProbeTrackDT01	2	ProbeTrackDT01	10.3	SCS215a	20100514.141548	20100514.142548	8	0.013328	60	10	60-180	60	82	GapExp	0	90	3	0	1	distractor	0	813	-1000	34729	13.328	13.233	13.422
ProbeTrackDT01	2	ProbeTrackDT01	10.3	SCS215a	20100514.141548	20100514.142553	8	0.013328	60	10	60-180	60	161	GapExp	0	91	3	4	0	distractor	1	507	747	35476	13.328	13.117	13.537
ProbeTrackDT01	2	ProbeTrackDT01	10.3	SCS215a	20100514.141548	20100514.142600	8	0.013328	60	10	60-180	60	161	GapExp	0	92	3	75	0	distractor	1	787	607	36083	13.328	12.968	13.688
ProbeTrackDT01	2	ProbeTrackDT01	10.3	SCS215a	20100514.141548	20100514.142607	8	0.013328	60	10	60-180	60	79	GapExp	0	93	3	0	0	target	0	853	-1000	35083	13.328	13.293	13.363
ProbeTrackDT01	2	ProbeTrackDT01	10.3	SCS215a	20100514.141548	20100514.142612	8	0.013328	60	10	60-180	60	141	GapExp	0	94	3	2	1	target	1	534	733	35816	13.328	13.165	13.489
ProbeTrackDT01	2	ProbeTrackDT01	10.3	SCS215a	20100514.141548	20100514.142618	8	0.013328	60	10	60-180	60	117	GapExp	0	95	3	75	1	target	1	587	707	36523	13.328	13.000	13.621
ProbeTrackDT01	2	ProbeTrackDT01	10.3	SCS215a	20100514.141548	20100514.142625	8	0.013328	60	10	60-180	60	172	GapExp	0	96	3	2	1	target	1	907	547	37070	13.328	13.003	13.622
ProbeTrackDT01	2	ProbeTrackDT01	10.3	SCS215a	20100514.141548	20100514.142631	8	0.013328	60	10	60-180	60	89	GapExp	0	97	3	1	0	target	0	507	-1000	36070	13.328	13.292	13.363
ProbeTrackDT01	2	ProbeTrackDT01	10.3	SCS215a	20100514.141548	20100514.142636	8	0.013328	60	10	60-180	60	96	GapExp	0	98	3	2	1	target	1	547	727	36797	13.328	13.293	13.363
ProbeTrackDT01	2	ProbeTrackDT01	10.3	SCS215a	20100514.141548	20100514.142642	8	0.013328	60	10	60-180	60	120	GapExp	0	99	3	1	0	distractor	1	1400	300	37097	13.328	12.960	13.661
ProbeTrackDT01	2	ProbeTrackDT01	10.3	SCS215a	20100514.141548	20100514.142648	8	0.013328	60	10	60-180	60	136	GapExp	0	100	3	75	1	target	1	1413	294	37391	13.328	13.098	13.557
ProbeTrackDT01	2	ProbeTrackDT01	10.3	SCS215a	20100514.141548	20100514.142726	8	0.013328	60	10	60-180	60	141	GapExp	0	101	3	2	0	83	-3	640	-1000	36391	13.328	13.293	13.363
ProbeTrackDT01	2	ProbeTrackDT01	10.3	SCS215a	20100514.141548	20100514.142732	8	0.013328	60	10	60-180	60	141	GapExp	0	102	3	1	1	target	1	760	620	37011	13.328	13.151	13.537
ProbeTrackDT01	2	ProbeTrackDT01	10.3	SCS215a	20100514.141548	20100514.142738	8	0.013328	60	10	60-180	60	152	GapExp	0	103	3	0	1	target	1	480	760	37771	13.328	12.980	13.641
ProbeTrackDT01	2	ProbeTrackDT01	10.3	SCS215a	20100514.141548	20100514.142744	8	0.013328	60	10	60-180	60	132	GapExp	0	104	3	0	0	distractor	1	880	560	38331	13.328	9.517	17.139
ProbeTrackDT01	2	ProbeTrackDT01	10.3	SCS215a	20100514.141548	20100514.142750	8	0.013328	60	10	60-180	60	76	GapExp	0	105	3	2	1	target	1	560	720	39051	13.328	13.127	13.528
ProbeTrackDT01	2	ProbeTrackDT01	10.3	SCS215a	20100514.141548	20100514.142755	8	0.013328	60	10	60-180	60	78	GapExp	0	106	3	2	1	target	1	440	780	39831	13.328	13.128	13.548
ProbeTrackDT01	2	ProbeTrackDT01	10.3	SCS215a	20100514.141548	20100514.142800	8	0.013328	60	10	60-180	60	133	GapExp	0	107	3	2	1	target	1	667	667	40498	13.328	13.186	13.436
ProbeTrackDT01	2	ProbeTrackDT01	10.3	SCS215a	20100514.141548	20100514.142806	8	0.013328	60	10	60-180	60	123	GapExp	0	108	3	0	0	target	0	1015	-1000	39498	13.328	12.870	13.786
ProbeTrackDT01	2	ProbeTrackDT01	10.3	SCS215a	20100514.141548	20100514.142812	8	0.013328	60	10	60-180	60	98	GapExp	0	109	3	0	0	target	0	787	-1000	38498	13.383	13.142	26.778
ProbeTrackDT01	2	ProbeTrackDT01	10.3	SCS215a	20100514.141548	20100514.142817	8	0.013328	60	10	60-180	60	132	GapExp	0	110	3	75	1	target	1	387	807	39305	13.328	13.293	13.363
ProbeTrackDT01	2	ProbeTrackDT01	10.3	SCS215a	20100514.141548	20100514.142824	8	0.013328	60	10	60-180	60	147	GapExp	0	111	3	0	1	target	1	440	780	40085	13.530	13.064	53.436
ProbeTrackDT01	2	ProbeTrackDT01	10.3	SCS215a	20100514.141548	20100514.142829	8	0.013328	60	10	60-180	60	65	GapExp	0	112	3	2	1	distractor	0	707	-1000	39085	13.328	13.293	13.363
ProbeTrackDT01	2	ProbeTrackDT01	10.3	SCS215a	20100514.141548	20100514.142834	8	0.013328	60	10	60-180	60	62	GapExp	0	113	3	1	1	target	1	547	727	39812	13.328	13.262	13.395
ProbeTrackDT01	2	ProbeTrackDT01	10.3	SCS215a	20100514.141548	20100514.142839	8	0.013328	60	10	60-180	60	146	GapExp	0	114	3	1	1	target	1	467	767	40579	13.328	13.272	13.415
ProbeTrackDT01	2	ProbeTrackDT01	10.3	SCS215a	20100514.141548	20100514.142845	8	0.013328	60	10	60-180	60	106	GapExp	0	115	3	2	1	target	1	520	740	41319	13.328	13.051	13.570
ProbeTrackDT01	2	ProbeTrackDT01	10.3	SCS215a	20100514.141548	20100514.142850	8	0.013328	60	10	60-180	60	150	GapExp	0	116	3	1	0	distractor	1	694	653	41972	13.328	13.201	13.421
ProbeTrackDT01	2	ProbeTrackDT01	10.3	SCS215a	20100514.141548	20100514.142857	8	0.013328	60	10	60-180	60	171	GapExp	0	117	3	4	1	target	1	507	747	42719	13.328	13.049	13.606
ProbeTrackDT01	2	ProbeTrackDT01	10.3	SCS215a	20100514.141548	20100514.142903	8	0.013328	60	10	60-180	60	98	GapExp	0	118	3	2	1	target	1	534	733	43452	13.328	13.293	13.389
ProbeTrackDT01	2	ProbeTrackDT01	10.3	SCS215a	20100514.141548	20100514.142908	8	0.013328	60	10	60-180	60	138	GapExp	0	119	3	4	1	target	1	667	667	44119	13.375	13.215	26.684
ProbeTrackDT01	2	ProbeTrackDT01	10.3	SCS215a	20100514.141548	20100514.142914	8	0.013328	60	10	60-180	60	162	GapExp	0	120	3	75	0	target	0	560	-1000	43119	13.328	13.097	13.525
ProbeTrackDT01	2	ProbeTrackDT01	10.3	SCS215a	20100514.141548	20100514.142921	8	0.013328	60	10	60-180	60	65	GapExp	0	121	3	2	1	target	1	494	753	43872	13.328	13.224	13.399
ProbeTrackDT01	2	ProbeTrackDT01	10.3	SCS215a	20100514.141548	20100514.142926	8	0.013328	60	10	60-180	60	164	GapExp	0	122	3	2	1	target	1	747	627	44499	13.328	13.209	13.480
ProbeTrackDT01	2	ProbeTrackDT01	10.3	SCS215a	20100514.141548	20100514.142932	8	0.013328	60	10	60-180	60	82	GapExp	0	123	3	75	1	target	1	387	807	45306	13.328	13.204	13.451
ProbeTrackDT01	2	ProbeTrackDT01	10.3	SCS215a	20100514.141548	20100514.142938	8	0.013328	60	10	60-180	60	107	GapExp	0	124	3	4	1	target	1	387	807	46113	13.387	12.977	26.959
ProbeTrackDT01	2	ProbeTrackDT01	10.3	SCS215a	20100514.141548	20100514.142943	8	0.013328	60	10	60-180	60	105	GapExp	0	125	3	75	1	target	1	1333	334	46447	13.369	12.904	26.693
ProbeTrackDT01	2	ProbeTrackDT01	10.3	SCS215a	20100514.141548	20100514.142951	8	0.013328	60	10	60-180	60	78	GapExp	0	126	3	4	0	distractor	1	667	667	47114	13.328	13.257	13.399
ProbeTrackDT01	2	ProbeTrackDT01	10.3	SCS215a	20100514.141548	20100514.142956	8	0.013328	60	10	60-180	60	176	GapExp	0	127	3	75	0	distractor	1	987	507	47621	13.496	13.008	80.257
ProbeTrackDT01	2	ProbeTrackDT01	10.3	SCS215a	20100514.141548	20100514.143004	8	0.013328	60	10	60-180	60	177	GapExp	0	128	3	2	0	distractor	1	520	740	48361	13.371	13.141	26.623
ProbeTrackDT01	2	ProbeTrackDT01	10.3	SCS215a	20100514.141548	20100514.143010	8	0.013328	60	10	60-180	60	134	GapExp	0	129	3	4	1	target	1	707	647	49008	13.328	13.246	13.444
ProbeTrackDT01	2	ProbeTrackDT01	10.3	SCS215a	20100514.141548	20100514.143016	8	0.013328	60	10	60-180	60	178	GapExp	0	130	3	0	1	target	1	654	673	49681	13.328	13.157	13.498
ProbeTrackDT01	2	ProbeTrackDT01	10.3	SCS215a	20100514.141548	20100514.143022	8	0.013328	60	10	60-180	60	130	GapExp	0	131	3	2	1	target	1	627	687	50368	13.328	13.129	13.526
ProbeTrackDT01	2	ProbeTrackDT01	10.3	SCS215a	20100514.141548	20100514.143028	8	0.013328	60	10	60-180	60	65	GapExp	0	132	3	1	1	target	1	787	607	50975	13.328	13.026	13.630
ProbeTrackDT01	2	ProbeTrackDT01	10.3	SCS215a	20100514.141548	20100514.143033	8	0.013328	60	10	60-180	60	74	GapExp	0	133	3	1	1	target	1	547	727	51702	13.328	13.218	13.439
ProbeTrackDT01	2	ProbeTrackDT01	10.3	SCS215a	20100514.141548	20100514.143038	8	0.013328	60	10	60-180	60	92	GapExp	0	134	3	1	1	target	1	547	727	52429	13.328	12.949	13.708
ProbeTrackDT01	2	ProbeTrackDT01	10.3	SCS215a	20100514.141548	20100514.143043	8	0.013328	60	10	60-180	60	117	GapExp	0	135	3	0	0	target	0	440	-1000	51429	13.328	13.188	13.444
ProbeTrackDT01	2	ProbeTrackDT01	10.3	SCS215a	20100514.141548	20100514.143049	8	0.013328	60	10	60-180	60	135	GapExp	0	136	3	1	1	target	1	920	540	51969	13.375	13.085	26.870
ProbeTrackDT01	2	ProbeTrackDT01	10.3	SCS215a	20100514.141548	20100514.143055	8	0.013328	60	10	60-180	60	129	GapExp	0	137	3	1	0	target	0	1227	-1000	50969	13.328	13.139	13.517
ProbeTrackDT01	2	ProbeTrackDT01	10.3	SCS215a	20100514.141548	20100514.143101	8	0.013328	60	10	60-180	60	63	GapExp	0	138	3	1	0	target	0	853	-1000	49969	13.328	13.002	13.619
ProbeTrackDT01	2	ProbeTrackDT01	10.3	SCS215a	20100514.141548	20100514.143106	8	0.013328	60	10	60-180	60	174	GapExp	0	139	3	4	0	distractor	1	600	700	50669	13.328	13.029	13.626
ProbeTrackDT01	2	ProbeTrackDT01	10.3	SCS215a	20100514.141548	20100514.143113	8	0.013328	60	10	60-180	60	123	GapExp	0	140	3	1	1	target	1	587	707	51376	13.589	12.982	66.836
ProbeTrackDT01	2	ProbeTrackDT01	10.3	SCS215a	20100514.141548	20100514.143119	8	0.013328	60	10	60-180	60	124	GapExp	0	141	3	4	1	target	1	254	873	52249	13.328	12.972	13.650
ProbeTrackDT01	2	ProbeTrackDT01	10.3	SCS215a	20100514.141548	20100514.143124	8	0.013328	60	10	60-180	60	71	GapExp	0	142	3	4	1	target	1	534	733	52982	13.328	13.173	13.449
ProbeTrackDT01	2	ProbeTrackDT01	10.3	SCS215a	20100514.141548	20100514.143129	8	0.013328	60	10	60-180	60	177	GapExp	0	143	3	4	1	target	1	947	527	53509	13.328	12.976	13.680
ProbeTrackDT01	2	ProbeTrackDT01	10.3	SCS215a	20100514.141548	20100514.143136	8	0.013328	60	10	60-180	60	110	GapExp	0	144	3	75	0	target	0	494	-1000	52509	13.328	13.056	13.599
ProbeTrackDT01	2	ProbeTrackDT01	10.3	SCS215a	20100514.141548	20100514.143142	8	0.013328	60	10	60-180	60	109	GapExp	0	145	3	0	1	target	1	1413	294	52803	13.328	13.015	13.640
ProbeTrackDT01	2	ProbeTrackDT01	10.3	SCS215a	20100514.141548	20100514.143148	8	0.013328	60	10	60-180	60	74	GapExp	0	146	3	75	0	target	0	773	-1000	51803	13.328	13.115	13.574
ProbeTrackDT01	2	ProbeTrackDT01	10.3	SCS215a	20100514.141548	20100514.143154	8	0.013328	60	10	60-180	60	163	GapExp	0	147	3	0	0	target	0	1173	-1000	50803	13.328	13.064	13.624
ProbeTrackDT01	2	ProbeTrackDT01	10.3	SCS215a	20100514.141548	20100514.143201	8	0.013328	60	10	60-180	60	70	GapExp	0	148	3	0	1	target	1	654	673	51476	13.328	12.999	13.667
ProbeTrackDT01	2	ProbeTrackDT01	10.3	SCS215a	20100514.141548	20100514.143206	8	0.013328	60	10	60-180	60	164	GapExp	0	149	3	4	1	target	1	587	707	52183	13.328	13.067	13.556
ProbeTrackDT01	2	ProbeTrackDT01	10.3	SCS215a	20100514.141548	20100514.143212	8	0.013328	60	10	60-180	60	169	GapExp	0	150	3	4	1	target	1	480	760	52943	13.328	13.023	13.652
ProbeTrackDT01	2	ProbeTrackDT01	10.3	SCS215a	20100514.141548	20100514.143240	8	0.013328	60	10	60-180	60	101	GapExp	0	151	3	75	0	target	0	733	-1000	51943	13.328	12.953	13.703
ProbeTrackDT01	2	ProbeTrackDT01	10.3	SCS215a	20100514.141548	20100514.143247	8	0.013328	60	10	60-180	60	104	GapExp	0	152	3	1	0	83	-3	667	-1000	50943	13.328	13.061	13.594
ProbeTrackDT01	2	ProbeTrackDT01	10.3	SCS215a	20100514.141548	20100514.143252	8	0.013328	60	10	60-180	60	104	GapExp	0	153	3	1	0	distractor	1	707	647	51590	13.328	13.128	13.527
ProbeTrackDT01	2	ProbeTrackDT01	10.3	SCS215a	20100514.141548	20100514.143258	8	0.013328	60	10	60-180	60	117	GapExp	0	154	3	0	1	target	1	574	713	52303	13.328	13.009	13.647
ProbeTrackDT01	2	ProbeTrackDT01	10.3	SCS215a	20100514.141548	20100514.143303	8	0.013328	60	10	60-180	60	151	GapExp	0	155	3	2	0	distractor	1	627	687	52990	13.328	13.001	13.654
ProbeTrackDT01	2	ProbeTrackDT01	10.3	SCS215a	20100514.141548	20100514.143309	8	0.013328	60	10	60-180	60	116	GapExp	0	156	3	0	0	distractor	1	693	654	53644	13.328	12.980	13.674
ProbeTrackDT01	2	ProbeTrackDT01	10.3	SCS215a	20100514.141548	20100514.143315	8	0.013328	60	10	60-180	60	82	GapExp	0	157	3	1	1	target	1	1280	360	54004	13.329	13.251	13.398
ProbeTrackDT01	2	ProbeTrackDT01	10.3	SCS215a	20100514.141548	20100514.143321	8	0.013328	60	10	60-180	60	162	GapExp	0	158	3	4	0	distractor	1	414	793	54797	13.375	12.995	26.621
ProbeTrackDT01	2	ProbeTrackDT01	10.3	SCS215a	20100514.141548	20100514.143327	8	0.013328	60	10	60-180	60	91	GapExp	0	159	3	1	1	distractor	0	640	-1000	53797	13.328	13.022	13.599
ProbeTrackDT01	2	ProbeTrackDT01	10.3	SCS215a	20100514.141548	20100514.143332	8	0.013328	60	10	60-180	60	147	GapExp	0	160	3	0	0	distractor	1	467	767	54564	13.328	13.030	13.657
ProbeTrackDT01	2	ProbeTrackDT01	10.3	SCS215a	20100514.141548	20100514.143338	8	0.013328	60	10	60-180	60	139	GapExp	0	161	3	4	0	distractor	1	520	740	55304	13.328	13.102	13.554
ProbeTrackDT01	2	ProbeTrackDT01	10.3	SCS215a	20100514.141548	20100514.143344	8	0.013328	60	10	60-180	60	147	GapExp	0	162	3	2	0	distractor	1	587	707	56011	13.328	12.923	13.733
ProbeTrackDT01	2	ProbeTrackDT01	10.3	SCS215a	20100514.141548	20100514.143350	8	0.013328	60	10	60-180	60	139	GapExp	0	163	3	1	0	distractor	1	667	667	56678	13.328	13.035	13.621
ProbeTrackDT01	2	ProbeTrackDT01	10.3	SCS215a	20100514.141548	20100514.143356	8	0.013328	60	10	60-180	60	166	GapExp	0	164	3	0	0	distractor	1	480	760	57438	13.328	12.945	13.710
ProbeTrackDT01	2	ProbeTrackDT01	10.3	SCS215a	20100514.141548	20100514.143402	8	0.013328	60	10	60-180	60	159	GapExp	0	165	3	0	1	target	1	547	727	58165	13.374	13.126	26.790
ProbeTrackDT01	2	ProbeTrackDT01	10.3	SCS215a	20100514.141548	20100514.143408	8	0.013328	60	10	60-180	60	88	GapExp	0	166	3	75	1	target	1	693	654	58819	13.328	12.931	13.759
ProbeTrackDT01	2	ProbeTrackDT01	10.3	SCS215a	20100514.141548	20100514.143414	8	0.013328	60	10	60-180	60	69	GapExp	0	167	3	75	1	target	1	693	654	59473	13.328	12.948	13.675
ProbeTrackDT01	2	ProbeTrackDT01	10.3	SCS215a	20100514.141548	20100514.143420	8	0.013328	60	10	60-180	60	116	GapExp	0	168	3	2	0	distractor	1	640	680	60153	13.328	13.010	13.680
ProbeTrackDT01	2	ProbeTrackDT01	10.3	SCS215a	20100514.141548	20100514.143426	8	0.013328	60	10	60-180	60	89	GapExp	0	169	3	75	0	distractor	1	640	680	60833	13.328	12.960	13.695
ProbeTrackDT01	2	ProbeTrackDT01	10.3	SCS215a	20100514.141548	20100514.143432	8	0.013328	60	10	60-180	60	122	GapExp	0	170	3	2	0	distractor	1	600	700	61533	13.328	13.016	13.673
ProbeTrackDT01	2	ProbeTrackDT01	10.3	SCS215a	20100514.141548	20100514.143438	8	0.013328	60	10	60-180	60	133	GapExp	0	171	3	75	0	distractor	1	760	620	62153	13.328	13.085	13.571
ProbeTrackDT01	2	ProbeTrackDT01	10.3	SCS215a	20100514.141548	20100514.143445	8	0.013328	60	10	60-180	60	164	GapExp	0	172	3	75	1	target	1	480	760	62913	13.328	12.971	13.718
ProbeTrackDT01	2	ProbeTrackDT01	10.3	SCS215a	20100514.141548	20100514.143452	8	0.013328	60	10	60-180	60	68	GapExp	0	173	3	0	0	distractor	1	614	693	63606	13.328	13.072	13.550
ProbeTrackDT01	2	ProbeTrackDT01	10.3	SCS215a	20100514.141548	20100514.143457	8	0.013328	60	10	60-180	60	125	GapExp	0	174	3	1	0	distractor	1	600	700	64306	13.328	12.979	13.692
ProbeTrackDT01	2	ProbeTrackDT01	10.3	SCS215a	20100514.141548	20100514.143502	8	0.013328	60	10	60-180	60	149	GapExp	0	175	3	2	0	distractor	1	653	674	64980	13.328	12.994	13.660
ProbeTrackDT01	2	ProbeTrackDT01	10.3	SCS215a	20100514.141548	20100514.143508	8	0.013328	60	10	60-180	60	104	GapExp	0	176	3	2	0	distractor	1	547	727	65707	13.328	13.086	13.570
ProbeTrackDT01	2	ProbeTrackDT01	10.3	SCS215a	20100514.141548	20100514.143514	8	0.013328	60	10	60-180	60	137	GapExp	0	177	3	1	0	distractor	1	547	727	66434	13.328	13.063	13.593
ProbeTrackDT01	2	ProbeTrackDT01	10.3	SCS215a	20100514.141548	20100514.143520	8	0.013328	60	10	60-180	60	124	GapExp	0	178	3	4	0	distractor	1	600	700	67134	13.328	12.959	13.729
ProbeTrackDT01	2	ProbeTrackDT01	10.3	SCS215a	20100514.141548	20100514.143525	8	0.013328	60	10	60-180	60	94	GapExp	0	179	3	1	1	target	1	480	760	67894	13.328	12.977	13.645
ProbeTrackDT01	2	ProbeTrackDT01	10.3	SCS215a	20100514.141548	20100514.143531	8	0.013328	60	10	60-180	60	131	GapExp	0	180	3	4	0	distractor	1	720	640	68534	13.328	13.088	13.578
ProbeTrackDT01	2	ProbeTrackDT01	10.3	SCS215a	20100514.141548	20100514.143536	8	0.013328	60	10	60-180	60	140	GapExp	0	181	3	0	0	distractor	1	507	747	69281	13.328	13.077	13.579
ProbeTrackDT01	2	ProbeTrackDT01	10.3	SCS215a	20100514.141548	20100514.143542	8	0.013328	60	10	60-180	60	81	GapExp	0	182	3	1	1	target	1	520	740	70021	13.328	13.017	13.638
ProbeTrackDT01	2	ProbeTrackDT01	10.3	SCS215a	20100514.141548	20100514.143547	8	0.013328	60	10	60-180	60	68	GapExp	0	183	3	4	0	target	0	667	-1000	69021	13.328	13.054	13.601
ProbeTrackDT01	2	ProbeTrackDT01	10.3	SCS215a	20100514.141548	20100514.143552	8	0.013328	60	10	60-180	60	153	GapExp	0	184	3	2	1	target	1	574	713	69734	13.328	13.192	13.437
ProbeTrackDT01	2	ProbeTrackDT01	10.3	SCS215a	20100514.141548	20100514.143558	8	0.013328	60	10	60-180	60	75	GapExp	0	185	3	0	0	target	0	574	-1000	68734	13.328	12.932	13.724
ProbeTrackDT01	2	ProbeTrackDT01	10.3	SCS215a	20100514.141548	20100514.143603	8	0.013328	60	10	60-180	60	110	GapExp	0	186	3	2	0	target	0	653	-1000	67734	13.328	12.988	13.667
ProbeTrackDT01	2	ProbeTrackDT01	10.3	SCS215a	20100514.141548	20100514.143609	8	0.013328	60	10	60-180	60	128	GapExp	0	187	3	2	1	target	1	534	733	68467	13.328	12.998	13.658
ProbeTrackDT01	2	ProbeTrackDT01	10.3	SCS215a	20100514.141548	20100514.143615	8	0.013328	60	10	60-180	60	79	GapExp	0	188	3	0	1	target	1	653	674	69141	13.328	12.994	13.660
ProbeTrackDT01	2	ProbeTrackDT01	10.3	SCS215a	20100514.141548	20100514.143620	8	0.013328	60	10	60-180	60	140	GapExp	0	189	3	2	0	target	0	600	-1000	68141	13.328	13.021	13.667
ProbeTrackDT01	2	ProbeTrackDT01	10.3	SCS215a	20100514.141548	20100514.143626	8	0.013328	60	10	60-180	60	142	GapExp	0	190	3	0	1	target	1	534	733	68874	13.328	13.073	13.616
ProbeTrackDT01	2	ProbeTrackDT01	10.3	SCS215a	20100514.141548	20100514.143632	8	0.013328	60	10	60-180	60	82	GapExp	0	191	3	2	0	distractor	1	813	594	69468	13.328	12.982	13.706
ProbeTrackDT01	2	ProbeTrackDT01	10.3	SCS215a	20100514.141548	20100514.143637	8	0.013328	60	10	60-180	60	156	GapExp	0	192	3	1	1	target	1	400	800	70268	13.328	13.034	13.621
ProbeTrackDT01	2	ProbeTrackDT01	10.3	SCS215a	20100514.141548	20100514.143643	8	0.013328	60	10	60-180	60	119	GapExp	0	193	3	4	0	distractor	1	1013	494	70762	13.328	12.936	13.685
ProbeTrackDT01	2	ProbeTrackDT01	10.3	SCS215a	20100514.141548	20100514.143649	8	0.013328	60	10	60-180	60	73	GapExp	0	194	3	75	1	target	1	427	787	71549	13.328	13.210	13.480
ProbeTrackDT01	2	ProbeTrackDT01	10.3	SCS215a	20100514.141548	20100514.143655	8	0.013328	60	10	60-180	60	104	GapExp	0	195	3	0	0	distractor	1	600	700	72249	13.328	13.097	13.558
ProbeTrackDT01	2	ProbeTrackDT01	10.3	SCS215a	20100514.141548	20100514.143700	8	0.013328	60	10	60-180	60	95	GapExp	0	196	3	2	1	target	1	534	733	72982	13.328	13.114	13.542
ProbeTrackDT01	2	ProbeTrackDT01	10.3	SCS215a	20100514.141548	20100514.143705	8	0.013328	60	10	60-180	60	158	GapExp	0	197	3	1	1	target	1	663	669	73651	13.328	13.215	13.442
ProbeTrackDT01	2	ProbeTrackDT01	10.3	SCS215a	20100514.141548	20100514.143711	8	0.013328	60	10	60-180	60	111	GapExp	0	198	3	75	1	target	1	414	793	74444	13.328	13.164	13.514
ProbeTrackDT01	2	ProbeTrackDT01	10.3	SCS215a	20100514.141548	20100514.143718	8	0.013328	60	10	60-180	60	111	GapExp	0	199	3	75	0	distractor	1	680	660	75104	13.328	13.035	13.621
ProbeTrackDT01	2	ProbeTrackDT01	10.3	SCS215a	20100514.141548	20100514.143724	8	0.013328	60	10	60-180	60	150	GapExp	0	200	3	75	0	distractor	1	760	620	75724	13.328	13.101	13.565
ProbeTrackDT01	2	ProbeTrackDT01	10.3	SCS215a	20100514.141548	20100514.143803	8	0.013328	60	10	60-180	60	87	GapExp	0	201	3	75	0	target	0	587	-1000	74724	13.328	13.243	13.412
ProbeTrackDT01	2	ProbeTrackDT01	10.3	SCS215a	20100514.141548	20100514.143809	8	0.013328	60	10	60-180	60	123	GapExp	0	202	3	2	0	distractor	1	587	707	75431	13.328	13.251	13.407
ProbeTrackDT01	2	ProbeTrackDT01	10.3	SCS215a	20100514.141548	20100514.143815	8	0.013328	60	10	60-180	60	162	GapExp	0	203	3	1	0	distractor	1	534	733	76164	13.657	13.261	80.098
ProbeTrackDT01	2	ProbeTrackDT01	10.3	SCS215a	20100514.141548	20100514.143821	8	0.013328	60	10	60-180	60	117	GapExp	0	204	3	4	0	target	0	574	-1000	75164	13.328	13.293	13.363
ProbeTrackDT01	2	ProbeTrackDT01	10.3	SCS215a	20100514.141548	20100514.143827	8	0.013328	60	10	60-180	60	178	GapExp	0	205	3	75	0	distractor	1	760	620	75784	13.462	13.048	66.951
ProbeTrackDT01	2	ProbeTrackDT01	10.3	SCS215a	20100514.141548	20100514.143834	8	0.013328	60	10	60-180	60	109	GapExp	0	206	3	0	1	target	1	480	760	76544	13.328	13.286	13.363
ProbeTrackDT01	2	ProbeTrackDT01	10.3	SCS215a	20100514.141548	20100514.143840	8	0.013328	60	10	60-180	60	180	GapExp	0	207	3	1	0	distractor	1	520	740	77284	13.632	12.991	53.681
ProbeTrackDT01	2	ProbeTrackDT01	10.3	SCS215a	20100514.141548	20100514.143846	8	0.013328	60	10	60-180	60	70	GapExp	0	208	3	4	0	distractor	1	667	667	77951	13.707	12.932	93.673
ProbeTrackDT01	2	ProbeTrackDT01	10.3	SCS215a	20100514.141548	20100514.143851	8	0.013328	60	10	60-180	60	89	GapExp	0	209	3	0	1	target	1	494	753	78704	13.328	13.192	13.496
ProbeTrackDT01	2	ProbeTrackDT01	10.3	SCS215a	20100514.141548	20100514.143856	8	0.013328	60	10	60-180	60	126	GapExp	0	210	3	2	0	target	0	947	-1000	77704	13.376	13.162	26.689
