exp	sub	code	rev	comp	runtime	trialtime	nstim	refreshdur	cuedur	gapdur	gapOnsetRange	durPostProbe	gapOnsetTime	blocktype	prac	trial	ntargets	soa	probeTarget	resp	acc	rt	pts	tpts	meanFrameDur	minFrameDur	maxFrameDur
ProbeTrackDT01	20	ProbeTrack	10.4	SCS215a	20100712.095054	20100712.095123	8	0.013328	60	0	60-180	60	85	NoGap	1	1	2	4	0	target	0	454	-1000	-1000	13.328	13.282	13.365
ProbeTrackDT01	20	ProbeTrack	10.4	SCS215a	20100712.095054	20100712.095128	8	0.013328	60	0	60-180	60	65	NoGap	1	2	2	75	0	target	0	640	-1000	-2000	13.328	12.918	13.703
ProbeTrackDT01	20	ProbeTrack	10.4	SCS215a	20100712.095054	20100712.095134	8	0.013328	60	0	60-180	60	116	NoGap	1	3	2	75	1	target	1	374	813	-1187	13.328	12.914	13.740
ProbeTrackDT01	20	ProbeTrack	10.4	SCS215a	20100712.095054	20100712.095140	8	0.013328	60	0	60-180	60	120	NoGap	1	4	2	2	0	distractor	1	813	594	-593	13.328	13.293	13.363
ProbeTrackDT01	20	ProbeTrack	10.4	SCS215a	20100712.095054	20100712.095146	8	0.013328	60	0	60-180	60	136	NoGap	1	5	2	4	1	target	1	440	780	187	13.328	13.274	13.385
ProbeTrackDT01	20	ProbeTrack	10.4	SCS215a	20100712.095054	20100712.095151	8	0.013328	60	0	60-180	60	86	NoGap	1	6	2	1	0	distractor	1	573	714	901	13.328	13.217	13.442
ProbeTrackDT01	20	ProbeTrack	10.4	SCS215a	20100712.095054	20100712.095156	8	0.013328	60	0	60-180	60	119	NoGap	1	7	2	0	1	target	1	440	780	1681	13.328	13.293	13.365
ProbeTrackDT01	20	ProbeTrack	10.4	SCS215a	20100712.095054	20100712.095202	8	0.013328	60	0	60-180	60	177	NoGap	1	8	2	1	0	distractor	1	467	767	2448	13.328	13.293	13.363
ProbeTrackDT01	20	ProbeTrack	10.4	SCS215a	20100712.095054	20100712.095208	8	0.013328	60	0	60-180	60	63	NoGap	1	9	2	2	0	distractor	1	680	660	3108	13.328	13.293	13.363
ProbeTrackDT01	20	ProbeTrack	10.4	SCS215a	20100712.095054	20100712.095213	8	0.013328	60	0	60-180	60	119	NoGap	1	10	2	0	0	distractor	1	560	720	3828	13.328	13.196	13.461
ProbeTrackDT01	20	ProbeTrack	10.4	SCS215a	20100712.095054	20100712.095218	8	0.013328	60	0	60-180	60	124	NoGap	1	11	2	75	1	distractor	0	400	-1000	2828	13.328	13.227	13.431
ProbeTrackDT01	20	ProbeTrack	10.4	SCS215a	20100712.095054	20100712.095224	8	0.013328	60	0	60-180	60	86	NoGap	1	12	2	0	0	distractor	1	627	687	3515	13.328	12.953	13.736
ProbeTrackDT01	20	ProbeTrack	10.4	SCS215a	20100712.095054	20100712.095229	8	0.013328	60	0	60-180	60	158	NoGap	1	13	2	1	0	distractor	1	667	667	4182	13.328	13.038	13.584
ProbeTrackDT01	20	ProbeTrack	10.4	SCS215a	20100712.095054	20100712.095236	8	0.013328	60	0	60-180	60	152	NoGap	1	14	2	0	1	target	1	467	767	4949	13.328	13.134	13.522
ProbeTrackDT01	20	ProbeTrack	10.4	SCS215a	20100712.095054	20100712.095241	8	0.013328	60	0	60-180	60	121	NoGap	1	15	2	2	0	distractor	1	600	700	5649	13.382	12.979	26.543
ProbeTrackDT01	20	ProbeTrack	10.4	SCS215a	20100712.095054	20100712.095247	8	0.013328	60	0	60-180	60	62	NoGap	1	16	2	75	1	target	1	520	740	6389	13.328	13.290	13.364
ProbeTrackDT01	20	ProbeTrack	10.4	SCS215a	20100712.095054	20100712.095253	8	0.013328	60	0	60-180	60	166	NoGap	1	17	2	4	0	distractor	1	507	747	7136	13.328	12.989	13.667
ProbeTrackDT01	20	ProbeTrack	10.4	SCS215a	20100712.095054	20100712.095259	8	0.013328	60	0	60-180	60	150	NoGap	1	18	2	4	1	target	1	467	767	7903	13.328	13.034	13.622
ProbeTrackDT01	20	ProbeTrack	10.4	SCS215a	20100712.095054	20100712.095304	8	0.013328	60	0	60-180	60	169	NoGap	1	19	2	0	0	distractor	1	534	733	8636	13.328	13.044	13.611
ProbeTrackDT01	20	ProbeTrack	10.4	SCS215a	20100712.095054	20100712.095310	8	0.013328	60	0	60-180	60	157	NoGap	1	20	2	4	0	distractor	1	480	760	9396	13.328	13.022	13.603
ProbeTrackDT01	20	ProbeTrack	10.4	SCS215a	20100712.095054	20100712.095316	8	0.013328	60	0	60-180	60	83	NoGap	1	21	2	75	0	distractor	1	440	780	10176	13.328	13.292	13.363
ProbeTrackDT01	20	ProbeTrack	10.4	SCS215a	20100712.095054	20100712.095322	8	0.013328	60	0	60-180	60	112	NoGap	1	22	2	1	1	target	1	560	720	10896	13.328	13.293	13.363
ProbeTrackDT01	20	ProbeTrack	10.4	SCS215a	20100712.095054	20100712.095328	8	0.013328	60	0	60-180	60	164	NoGap	1	23	2	4	0	distractor	1	480	760	11656	13.328	13.250	13.406
ProbeTrackDT01	20	ProbeTrack	10.4	SCS215a	20100712.095054	20100712.095334	8	0.013328	60	0	60-180	60	92	NoGap	1	24	2	75	1	target	1	440	780	12436	13.328	13.292	13.363
ProbeTrackDT01	20	ProbeTrack	10.4	SCS215a	20100712.095054	20100712.095340	8	0.013328	60	0	60-180	60	145	NoGap	1	25	2	0	0	distractor	1	427	787	13223	13.590	13.293	53.295
ProbeTrackDT01	20	ProbeTrack	10.4	SCS215a	20100712.095054	20100712.095345	8	0.013328	60	0	60-180	60	65	NoGap	1	26	2	1	1	target	1	627	687	13910	13.328	13.195	13.460
ProbeTrackDT01	20	ProbeTrack	10.4	SCS215a	20100712.095054	20100712.095350	8	0.013328	60	0	60-180	60	80	NoGap	1	27	2	2	1	target	1	347	827	14737	13.328	13.192	13.464
ProbeTrackDT01	20	ProbeTrack	10.4	SCS215a	20100712.095054	20100712.095355	8	0.013328	60	0	60-180	60	160	NoGap	1	28	2	4	1	distractor	0	400	-1000	13737	13.328	13.293	13.363
ProbeTrackDT01	20	ProbeTrack	10.4	SCS215a	20100712.095054	20100712.095401	8	0.013328	60	0	60-180	60	180	NoGap	1	29	2	2	1	target	1	387	807	14544	13.328	13.292	13.363
ProbeTrackDT01	20	ProbeTrack	10.4	SCS215a	20100712.095054	20100712.095407	8	0.013328	60	0	60-180	60	171	NoGap	1	30	2	2	1	target	1	427	787	15331	13.328	13.293	13.364
ProbeTrackDT01	20	ProbeTrack	10.4	SCS215a	20100712.095054	20100712.095413	8	0.013328	60	0	60-180	60	124	NoGap	1	31	2	0	1	target	1	427	787	16118	13.328	13.293	13.363
ProbeTrackDT01	20	ProbeTrack	10.4	SCS215a	20100712.095054	20100712.095418	8	0.013328	60	0	60-180	60	115	NoGap	1	32	2	2	0	distractor	1	640	680	16798	13.328	13.226	13.429
ProbeTrackDT01	20	ProbeTrack	10.4	SCS215a	20100712.095054	20100712.095424	8	0.013328	60	0	60-180	60	178	NoGap	1	33	2	0	1	target	1	520	740	17538	13.328	13.184	13.438
ProbeTrackDT01	20	ProbeTrack	10.4	SCS215a	20100712.095054	20100712.095430	8	0.013328	60	0	60-180	60	69	NoGap	1	34	2	4	1	target	1	480	760	18298	13.328	13.198	13.491
ProbeTrackDT01	20	ProbeTrack	10.4	SCS215a	20100712.095054	20100712.095435	8	0.013328	60	0	60-180	60	130	NoGap	1	35	2	1	1	target	1	334	833	19131	13.328	13.293	13.363
ProbeTrackDT01	20	ProbeTrack	10.4	SCS215a	20100712.095054	20100712.095440	8	0.013328	60	0	60-180	60	115	NoGap	1	36	2	75	0	distractor	1	414	793	19924	13.328	13.293	13.363
ProbeTrackDT01	20	ProbeTrack	10.4	SCS215a	20100712.095054	20100712.095446	8	0.013328	60	0	60-180	60	177	NoGap	1	37	2	1	1	target	1	440	780	20704	13.328	13.179	13.510
ProbeTrackDT01	20	ProbeTrack	10.4	SCS215a	20100712.095054	20100712.095452	8	0.013328	60	0	60-180	60	152	NoGap	1	38	2	2	1	target	1	467	767	21471	13.328	13.293	13.363
ProbeTrackDT01	20	ProbeTrack	10.4	SCS215a	20100712.095054	20100712.095458	8	0.013328	60	0	60-180	60	170	NoGap	1	39	2	75	0	distractor	1	547	727	22198	13.328	12.857	13.766
ProbeTrackDT01	20	ProbeTrack	10.4	SCS215a	20100712.095054	20100712.095505	8	0.013328	60	0	60-180	60	109	NoGap	1	40	2	1	0	distractor	1	653	674	22872	13.328	13.198	13.490
ProbeTrackDT01	20	ProbeTrack	10.4	SCS215a	20100712.095551	20100712.095557	8	0.013327	60	10	60-180	60	126	GapPrac	1	1	2	1	1	target	1	414	793	23665	13.328	13.292	13.363
ProbeTrackDT01	20	ProbeTrack	10.4	SCS215a	20100712.095551	20100712.095603	8	0.013327	60	10	60-180	60	80	GapPrac	1	2	2	75	1	target	1	747	627	24292	13.328	12.922	13.769
ProbeTrackDT01	20	ProbeTrack	10.4	SCS215a	20100712.095551	20100712.095609	8	0.013327	60	10	60-180	60	156	GapPrac	1	3	2	0	1	target	1	520	740	25032	13.328	13.036	13.619
ProbeTrackDT01	20	ProbeTrack	10.4	SCS215a	20100712.095551	20100712.095615	8	0.013327	60	10	60-180	60	149	GapPrac	1	4	2	0	0	distractor	1	600	700	25732	13.328	13.293	13.374
ProbeTrackDT01	20	ProbeTrack	10.4	SCS215a	20100712.095551	20100712.095621	8	0.013327	60	10	60-180	60	139	GapPrac	1	5	2	1	0	target	0	427	-1000	24732	13.328	13.187	13.469
ProbeTrackDT01	20	ProbeTrack	10.4	SCS215a	20100712.095551	20100712.095627	8	0.013327	60	10	60-180	60	142	GapPrac	1	6	2	1	0	distractor	1	574	713	25445	13.328	13.289	13.367
ProbeTrackDT01	20	ProbeTrack	10.4	SCS215a	20100712.095551	20100712.095633	8	0.013327	60	10	60-180	60	104	GapPrac	1	7	2	2	0	distractor	1	494	753	26198	13.328	13.293	13.363
ProbeTrackDT01	20	ProbeTrack	10.4	SCS215a	20100712.095551	20100712.095638	8	0.013327	60	10	60-180	60	133	GapPrac	1	8	2	4	1	target	1	440	780	26978	13.328	13.148	13.474
ProbeTrackDT01	20	ProbeTrack	10.4	SCS215a	20100712.095551	20100712.095644	8	0.013327	60	10	60-180	60	67	GapPrac	1	9	2	0	1	target	1	454	773	27751	13.328	13.293	13.363
ProbeTrackDT01	20	ProbeTrack	10.4	SCS215a	20100712.095551	20100712.095648	8	0.013327	60	10	60-180	60	104	GapPrac	1	10	2	4	0	target	0	440	-1000	26751	13.328	13.293	13.363
ProbeTrackDT01	20	ProbeTrack	10.4	SCS215a	20100712.095551	20100712.095654	8	0.013327	60	10	60-180	60	133	GapPrac	1	11	2	75	1	target	1	494	753	27504	13.328	13.293	13.363
ProbeTrackDT01	20	ProbeTrack	10.4	SCS215a	20100712.095551	20100712.095701	8	0.013327	60	10	60-180	60	145	GapPrac	1	12	2	4	0	distractor	1	587	707	28211	13.328	13.293	13.363
ProbeTrackDT01	20	ProbeTrack	10.4	SCS215a	20100712.095551	20100712.095706	8	0.013327	60	10	60-180	60	168	GapPrac	1	13	2	2	1	target	1	440	780	28991	13.328	13.293	13.363
ProbeTrackDT01	20	ProbeTrack	10.4	SCS215a	20100712.095551	20100712.095713	8	0.013327	60	10	60-180	60	66	GapPrac	1	14	2	75	0	distractor	1	547	727	29718	13.328	13.293	13.363
ProbeTrackDT01	20	ProbeTrack	10.4	SCS215a	20100712.095551	20100712.095718	8	0.013327	60	10	60-180	60	179	GapPrac	1	15	2	2	0	distractor	1	600	700	30418	13.328	13.293	13.363
ProbeTrackDT01	20	ProbeTrack	10.4	SCS215a	20100712.095551	20100712.095725	8	0.013327	60	10	60-180	60	118	GapPrac	1	16	2	4	1	target	1	440	780	31198	13.328	13.229	13.426
ProbeTrackDT01	20	ProbeTrack	10.4	SCS215a	20100712.095551	20100712.095730	8	0.013327	60	10	60-180	60	167	GapPrac	1	17	2	2	1	target	1	494	753	31951	13.328	13.293	13.363
ProbeTrackDT01	20	ProbeTrack	10.4	SCS215a	20100712.095551	20100712.095736	8	0.013327	60	10	60-180	60	133	GapPrac	1	18	2	0	0	distractor	1	400	800	32751	13.328	13.292	13.363
ProbeTrackDT01	20	ProbeTrack	10.4	SCS215a	20100712.095551	20100712.095742	8	0.013327	60	10	60-180	60	113	GapPrac	1	19	2	1	1	target	1	427	787	33538	13.328	13.293	13.363
ProbeTrackDT01	20	ProbeTrack	10.4	SCS215a	20100712.095551	20100712.095747	8	0.013327	60	10	60-180	60	144	GapPrac	1	20	2	75	0	distractor	1	654	673	34211	13.328	13.293	13.363
ProbeTrackDT01	20	ProbeTrack	10.4	SCS215a	20100712.095903	20100712.095923	8	0.013328	60	10	60-180	60	136	GapPrac	1	1	2	2	1	target	1	374	813	35024	13.328	13.293	13.363
ProbeTrackDT01	20	ProbeTrack	10.4	SCS215a	20100712.095903	20100712.095928	8	0.013328	60	10	60-180	60	176	GapPrac	1	2	2	4	0	distractor	1	587	707	35731	13.328	13.292	13.364
ProbeTrackDT01	20	ProbeTrack	10.4	SCS215a	20100712.095903	20100712.095935	8	0.013328	60	10	60-180	60	77	GapPrac	1	3	2	4	1	target	1	454	773	36504	13.328	13.036	13.586
ProbeTrackDT01	20	ProbeTrack	10.4	SCS215a	20100712.095903	20100712.095940	8	0.013328	60	10	60-180	60	80	GapPrac	1	4	2	2	0	distractor	1	507	747	37251	13.328	13.289	13.367
ProbeTrackDT01	20	ProbeTrack	10.4	SCS215a	20100712.095903	20100712.095945	8	0.013328	60	10	60-180	60	141	GapPrac	1	5	2	2	0	target	0	3945	-1000	36251	13.328	13.292	13.363
ProbeTrackDT01	20	ProbeTrack	10.4	SCS215a	20100712.095903	20100712.095954	8	0.013328	60	10	60-180	60	78	GapPrac	1	6	2	1	0	distractor	1	454	773	37024	13.328	13.255	13.397
ProbeTrackDT01	20	ProbeTrack	10.4	SCS215a	20100712.095903	20100712.095959	8	0.013328	60	10	60-180	60	122	GapPrac	1	7	2	75	1	target	1	720	640	37664	13.328	12.978	13.643
ProbeTrackDT01	20	ProbeTrack	10.4	SCS215a	20100712.095903	20100712.100005	8	0.013328	60	10	60-180	60	126	GapPrac	1	8	2	75	0	target	0	467	-1000	36664	13.328	13.293	13.364
ProbeTrackDT01	20	ProbeTrack	10.4	SCS215a	20100712.095903	20100712.100012	8	0.013328	60	10	60-180	60	69	GapPrac	1	9	2	1	1	target	1	560	720	37384	13.328	13.293	13.363
ProbeTrackDT01	20	ProbeTrack	10.4	SCS215a	20100712.095903	20100712.100017	8	0.013328	60	10	60-180	60	128	GapPrac	1	10	2	75	0	distractor	1	907	547	37931	13.328	13.292	13.363
ProbeTrackDT01	20	ProbeTrack	10.4	SCS215a	20100712.095903	20100712.100024	8	0.013328	60	10	60-180	60	150	GapPrac	1	11	2	0	0	target	0	720	-1000	36931	13.328	13.293	13.363
ProbeTrackDT01	20	ProbeTrack	10.4	SCS215a	20100712.095903	20100712.100030	8	0.013328	60	10	60-180	60	154	GapPrac	1	12	2	75	1	distractor	0	494	-1000	35931	13.328	13.293	13.363
ProbeTrackDT01	20	ProbeTrack	10.4	SCS215a	20100712.095903	20100712.100037	8	0.013328	60	10	60-180	60	98	GapPrac	1	13	2	0	0	target	0	627	-1000	34931	13.328	13.293	13.365
ProbeTrackDT01	20	ProbeTrack	10.4	SCS215a	20100712.095903	20100712.100043	8	0.013328	60	10	60-180	60	93	GapPrac	1	14	2	2	1	distractor	0	973	-1000	33931	13.328	13.288	13.366
ProbeTrackDT01	20	ProbeTrack	10.4	SCS215a	20100712.095903	20100712.100048	8	0.013328	60	10	60-180	60	151	GapPrac	1	15	2	1	0	target	0	454	-1000	32931	13.328	13.293	13.363
ProbeTrackDT01	20	ProbeTrack	10.4	SCS215a	20100712.095903	20100712.100054	8	0.013328	60	10	60-180	60	104	GapPrac	1	16	2	1	1	distractor	0	414	-1000	31931	13.328	13.293	13.363
ProbeTrackDT01	20	ProbeTrack	10.4	SCS215a	20100712.095903	20100712.100059	8	0.013328	60	10	60-180	60	82	GapPrac	1	17	2	0	1	target	1	387	807	32738	13.328	13.293	13.365
ProbeTrackDT01	20	ProbeTrack	10.4	SCS215a	20100712.095903	20100712.100104	8	0.013328	60	10	60-180	60	64	GapPrac	1	18	2	4	1	target	1	427	787	33525	13.328	13.293	13.363
ProbeTrackDT01	20	ProbeTrack	10.4	SCS215a	20100712.095903	20100712.100109	8	0.013328	60	10	60-180	60	86	GapPrac	1	19	2	4	0	target	0	707	-1000	32525	13.328	13.169	13.470
ProbeTrackDT01	20	ProbeTrack	10.4	SCS215a	20100712.095903	20100712.100114	8	0.013328	60	10	60-180	60	83	GapPrac	1	20	2	0	1	distractor	0	747	-1000	31525	13.328	13.033	13.650
ProbeTrackDT01	20	ProbeTrack	10.4	SCS215a	20100712.100212	20100712.100233	8	0.013328	60	10	60-180	60	63	GapExp	1	1	2	75	1	target	1	494	753	32278	13.328	13.293	13.363
ProbeTrackDT01	20	ProbeTrack	10.4	SCS215a	20100712.100212	20100712.100239	8	0.013328	60	10	60-180	60	162	GapExp	1	2	2	4	0	distractor	1	787	607	32885	13.328	13.293	13.363
ProbeTrackDT01	20	ProbeTrack	10.4	SCS215a	20100712.100212	20100712.100245	8	0.013328	60	10	60-180	60	62	GapExp	1	3	2	4	1	target	1	573	714	33599	13.328	13.289	13.366
ProbeTrackDT01	20	ProbeTrack	10.4	SCS215a	20100712.100212	20100712.100250	8	0.013328	60	10	60-180	60	63	GapExp	1	4	2	1	0	target	0	10356	-1000	32599	13.328	13.292	13.363
ProbeTrackDT01	20	ProbeTrack	10.4	SCS215a	20100712.100212	20100712.100305	8	0.013328	60	10	60-180	60	160	GapExp	1	5	2	0	0	distractor	1	587	707	33306	13.328	13.293	13.363
ProbeTrackDT01	20	ProbeTrack	10.4	SCS215a	20100712.100212	20100712.100311	8	0.013328	60	10	60-180	60	120	GapExp	1	6	2	2	1	target	1	627	687	33993	13.328	13.292	13.363
ProbeTrackDT01	20	ProbeTrack	10.4	SCS215a	20100712.100212	20100712.100317	8	0.013328	60	10	60-180	60	108	GapExp	1	7	2	0	1	target	1	600	700	34693	13.328	13.291	13.365
ProbeTrackDT01	20	ProbeTrack	10.4	SCS215a	20100712.100212	20100712.100322	8	0.013328	60	10	60-180	60	102	GapExp	1	8	2	1	1	target	1	574	713	35406	13.328	13.160	13.505
ProbeTrackDT01	20	ProbeTrack	10.4	SCS215a	20100712.100212	20100712.100328	8	0.013328	60	10	60-180	60	148	GapExp	1	9	2	75	0	target	0	494	-1000	34406	13.328	12.949	13.740
ProbeTrackDT01	20	ProbeTrack	10.4	SCS215a	20100712.100212	20100712.100335	8	0.013328	60	10	60-180	60	121	GapExp	1	10	2	2	0	target	0	1053	-1000	33406	13.328	13.293	13.363
ProbeTrackDT01	20	ProbeTrack	10.4	SCS215a	20100712.100212	20100712.100341	8	0.013328	60	10	60-180	60	164	GapExp	0	11	2	4	1	target	1	600	700	34106	13.328	13.279	13.363
ProbeTrackDT01	20	ProbeTrack	10.4	SCS215a	20100712.100212	20100712.100347	8	0.013328	60	10	60-180	60	172	GapExp	0	12	2	0	1	distractor	0	574	-1000	33106	13.328	13.293	13.363
ProbeTrackDT01	20	ProbeTrack	10.4	SCS215a	20100712.100212	20100712.100353	8	0.013328	60	10	60-180	60	105	GapExp	0	13	2	4	1	target	1	160	920	34026	13.328	13.293	13.363
ProbeTrackDT01	20	ProbeTrack	10.4	SCS215a	20100712.100212	20100712.100358	8	0.013328	60	10	60-180	60	175	GapExp	0	14	2	4	1	target	1	400	800	34826	13.328	13.293	13.364
ProbeTrackDT01	20	ProbeTrack	10.4	SCS215a	20100712.100212	20100712.100404	8	0.013328	60	10	60-180	60	103	GapExp	0	15	2	2	1	target	1	440	780	35606	13.328	13.293	13.364
ProbeTrackDT01	20	ProbeTrack	10.4	SCS215a	20100712.100212	20100712.100410	8	0.013328	60	10	60-180	60	131	GapExp	0	16	2	4	0	target	0	400	-1000	34606	13.328	13.293	13.363
ProbeTrackDT01	20	ProbeTrack	10.4	SCS215a	20100712.100212	20100712.100415	8	0.013328	60	10	60-180	60	99	GapExp	0	17	2	2	0	target	0	414	-1000	33606	13.328	13.226	13.430
ProbeTrackDT01	20	ProbeTrack	10.4	SCS215a	20100712.100212	20100712.100421	8	0.013328	60	10	60-180	60	134	GapExp	0	18	2	1	0	distractor	1	507	747	34353	13.328	13.291	13.365
ProbeTrackDT01	20	ProbeTrack	10.4	SCS215a	20100712.100212	20100712.100426	8	0.013328	60	10	60-180	60	149	GapExp	0	19	2	2	1	target	1	467	767	35120	13.328	13.293	13.364
ProbeTrackDT01	20	ProbeTrack	10.4	SCS215a	20100712.100212	20100712.100432	8	0.013328	60	10	60-180	60	65	GapExp	0	20	2	1	1	target	1	4105	0	35120	13.328	13.293	13.366
ProbeTrackDT01	20	ProbeTrack	10.4	SCS215a	20100712.100212	20100712.100441	8	0.013328	60	10	60-180	60	175	GapExp	0	21	2	0	0	target	0	587	-1000	34120	13.328	13.293	13.363
ProbeTrackDT01	20	ProbeTrack	10.4	SCS215a	20100712.100212	20100712.100447	8	0.013328	60	10	60-180	60	136	GapExp	0	22	2	4	1	target	1	480	760	34880	13.328	13.293	13.363
ProbeTrackDT01	20	ProbeTrack	10.4	SCS215a	20100712.100212	20100712.100453	8	0.013328	60	10	60-180	60	97	GapExp	0	23	2	0	1	target	1	560	720	35600	13.328	13.293	13.366
ProbeTrackDT01	20	ProbeTrack	10.4	SCS215a	20100712.100212	20100712.100458	8	0.013328	60	10	60-180	60	152	GapExp	0	24	2	75	0	distractor	1	813	594	36194	13.328	13.293	13.363
ProbeTrackDT01	20	ProbeTrack	10.4	SCS215a	20100712.100212	20100712.100505	8	0.013328	60	10	60-180	60	136	GapExp	0	25	2	75	1	target	1	1080	460	36654	13.328	13.293	13.363
ProbeTrackDT01	20	ProbeTrack	10.4	SCS215a	20100712.100212	20100712.100513	8	0.013328	60	10	60-180	60	62	GapExp	0	26	2	75	0	distractor	1	667	667	37321	13.328	13.293	13.363
ProbeTrackDT01	20	ProbeTrack	10.4	SCS215a	20100712.100212	20100712.100519	8	0.013328	60	10	60-180	60	123	GapExp	0	27	2	0	0	target	0	414	-1000	36321	13.328	13.293	13.363
ProbeTrackDT01	20	ProbeTrack	10.4	SCS215a	20100712.100212	20100712.100524	8	0.013328	60	10	60-180	60	118	GapExp	0	28	2	2	0	distractor	1	560	720	37041	13.328	13.293	13.363
ProbeTrackDT01	20	ProbeTrack	10.4	SCS215a	20100712.100212	20100712.100530	8	0.013328	60	10	60-180	60	132	GapExp	0	29	2	1	0	distractor	1	467	767	37808	13.328	13.293	13.363
ProbeTrackDT01	20	ProbeTrack	10.4	SCS215a	20100712.100212	20100712.100535	8	0.013328	60	10	60-180	60	128	GapExp	0	30	2	4	0	distractor	1	547	727	38535	13.328	13.061	13.629
ProbeTrackDT01	20	ProbeTrack	10.4	SCS215a	20100712.100212	20100712.100541	8	0.013328	60	10	60-180	60	150	GapExp	0	31	2	1	1	target	1	547	727	39262	13.326	12.879	13.527
ProbeTrackDT01	20	ProbeTrack	10.4	SCS215a	20100712.100212	20100712.100547	8	0.013328	60	10	60-180	60	142	GapExp	0	32	2	4	0	target	0	680	-1000	38262	13.328	13.272	13.395
ProbeTrackDT01	20	ProbeTrack	10.4	SCS215a	20100712.100212	20100712.100553	8	0.013328	60	10	60-180	60	159	GapExp	0	33	2	1	1	target	1	2719	0	38262	13.328	12.916	13.774
ProbeTrackDT01	20	ProbeTrack	10.4	SCS215a	20100712.100212	20100712.100601	8	0.013328	60	10	60-180	60	149	GapExp	0	34	2	0	0	target	0	680	-1000	37262	13.328	13.234	13.422
ProbeTrackDT01	20	ProbeTrack	10.4	SCS215a	20100712.100212	20100712.100607	8	0.013328	60	10	60-180	60	135	GapExp	0	35	2	0	1	target	1	3066	0	37262	13.328	13.277	13.380
ProbeTrackDT01	20	ProbeTrack	10.4	SCS215a	20100712.100212	20100712.100616	8	0.013328	60	10	60-180	60	73	GapExp	0	36	2	1	0	target	0	1440	-1000	36262	13.328	13.228	13.394
ProbeTrackDT01	20	ProbeTrack	10.4	SCS215a	20100712.100212	20100712.100622	8	0.013328	60	10	60-180	60	140	GapExp	0	37	2	75	0	distractor	1	747	627	36889	13.328	13.232	13.424
ProbeTrackDT01	20	ProbeTrack	10.4	SCS215a	20100712.100212	20100712.100629	8	0.013328	60	10	60-180	60	102	GapExp	0	38	2	75	1	target	1	1773	114	37003	13.700	13.043	40.454
ProbeTrackDT01	20	ProbeTrack	10.4	SCS215a	20100712.100212	20100712.100636	8	0.013328	60	10	60-180	60	179	GapExp	0	39	2	2	0	target	0	1014	-1000	36003	13.328	13.293	13.364
ProbeTrackDT01	20	ProbeTrack	10.4	SCS215a	20100712.100212	20100712.100643	8	0.013328	60	10	60-180	60	97	GapExp	0	40	2	1	1	target	1	933	534	36537	13.328	13.271	13.418
ProbeTrackDT01	20	ProbeTrack	10.4	SCS215a	20100712.100212	20100712.100649	8	0.013328	60	10	60-180	60	140	GapExp	0	41	2	0	0	target	0	800	-1000	35537	13.328	13.074	13.582
ProbeTrackDT01	20	ProbeTrack	10.4	SCS215a	20100712.100212	20100712.100655	8	0.013328	60	10	60-180	60	129	GapExp	0	42	2	1	0	target	0	600	-1000	34537	13.328	13.292	13.364
ProbeTrackDT01	20	ProbeTrack	10.4	SCS215a	20100712.100212	20100712.100701	8	0.013328	60	10	60-180	60	73	GapExp	0	43	2	0	1	target	1	8544	0	34537	13.328	13.291	13.366
ProbeTrackDT01	20	ProbeTrack	10.4	SCS215a	20100712.100212	20100712.100714	8	0.013328	60	10	60-180	60	153	GapExp	0	44	2	75	0	target	0	1533	-1000	33537	13.328	13.214	13.441
ProbeTrackDT01	20	ProbeTrack	10.4	SCS215a	20100712.100212	20100712.100722	8	0.013328	60	10	60-180	60	101	GapExp	0	45	2	75	0	target	0	440	-1000	32537	13.328	13.145	13.511
ProbeTrackDT01	20	ProbeTrack	10.4	SCS215a	20100712.100212	20100712.100728	8	0.013328	60	10	60-180	60	144	GapExp	0	46	2	75	0	target	0	400	-1000	31537	13.328	13.293	13.362
ProbeTrackDT01	20	ProbeTrack	10.4	SCS215a	20100712.100212	20100712.100735	8	0.013328	60	10	60-180	60	175	GapExp	0	47	2	1	1	distractor	0	1027	-1000	30537	13.328	13.170	13.519
ProbeTrackDT01	20	ProbeTrack	10.4	SCS215a	20100712.100212	20100712.100741	8	0.013328	60	10	60-180	60	175	GapExp	0	48	2	2	1	target	1	1466	267	30804	13.411	13.293	26.638
ProbeTrackDT01	20	ProbeTrack	10.4	SCS215a	20100712.100212	20100712.100749	8	0.013328	60	10	60-180	60	79	GapExp	0	49	2	4	0	target	0	480	-1000	29804	13.328	13.280	13.408
ProbeTrackDT01	20	ProbeTrack	10.4	SCS215a	20100712.100212	20100712.100754	8	0.013328	60	10	60-180	60	73	GapExp	0	50	2	4	1	target	1	960	520	30324	13.328	13.293	13.363
ProbeTrackDT01	20	ProbeTrack	10.4	SCS215a	20100712.100212	20100712.100838	8	0.013328	60	10	60-180	60	109	GapExp	0	51	2	0	0	distractor	1	613	694	31018	13.328	13.293	13.363
ProbeTrackDT01	20	ProbeTrack	10.4	SCS215a	20100712.100212	20100712.100844	8	0.013328	60	10	60-180	60	74	GapExp	0	52	2	75	1	target	1	973	514	31532	13.328	13.290	13.366
ProbeTrackDT01	20	ProbeTrack	10.4	SCS215a	20100712.100212	20100712.100850	8	0.013328	60	10	60-180	60	150	GapExp	0	53	2	4	0	distractor	1	600	700	32232	13.328	13.134	13.554
ProbeTrackDT01	20	ProbeTrack	10.4	SCS215a	20100712.100212	20100712.100856	8	0.013328	60	10	60-180	60	169	GapExp	0	54	2	1	1	target	1	334	833	33065	13.328	13.039	13.582
ProbeTrackDT01	20	ProbeTrack	10.4	SCS215a	20100712.100212	20100712.100902	8	0.013328	60	10	60-180	60	140	GapExp	0	55	2	0	1	target	1	387	807	33872	13.328	13.293	13.363
ProbeTrackDT01	20	ProbeTrack	10.4	SCS215a	20100712.100212	20100712.100908	8	0.013328	60	10	60-180	60	177	GapExp	0	56	2	0	1	distractor	0	680	-1000	32872	13.328	13.293	13.363
ProbeTrackDT01	20	ProbeTrack	10.4	SCS215a	20100712.100212	20100712.100914	8	0.013328	60	10	60-180	60	138	GapExp	0	57	2	0	0	target	0	3825	-1000	31872	13.328	12.949	13.708
ProbeTrackDT01	20	ProbeTrack	10.4	SCS215a	20100712.100212	20100712.100923	8	0.013328	60	10	60-180	60	164	GapExp	0	58	2	2	1	target	1	653	674	32546	13.328	13.292	13.365
ProbeTrackDT01	20	ProbeTrack	10.4	SCS215a	20100712.100212	20100712.100930	8	0.013328	60	10	60-180	60	102	GapExp	0	59	2	4	0	target	0	1093	-1000	31546	13.328	13.108	13.581
ProbeTrackDT01	20	ProbeTrack	10.4	SCS215a	20100712.100212	20100712.100936	8	0.013328	60	10	60-180	60	131	GapExp	0	60	2	2	1	target	1	494	753	32299	13.691	12.887	26.656
ProbeTrackDT01	20	ProbeTrack	10.4	SCS215a	20100712.100212	20100712.100942	8	0.013328	60	10	60-180	60	174	GapExp	0	61	2	0	1	target	1	427	787	33086	13.328	13.096	13.560
ProbeTrackDT01	20	ProbeTrack	10.4	SCS215a	20100712.100212	20100712.100948	8	0.013328	60	10	60-180	60	111	GapExp	0	62	2	2	0	distractor	1	600	700	33786	13.328	13.292	13.364
ProbeTrackDT01	20	ProbeTrack	10.4	SCS215a	20100712.100212	20100712.100953	8	0.013328	60	10	60-180	60	166	GapExp	0	63	2	2	0	target	0	360	-1000	32786	13.375	13.293	26.675
ProbeTrackDT01	20	ProbeTrack	10.4	SCS215a	20100712.100212	20100712.100959	8	0.013328	60	10	60-180	60	85	GapExp	0	64	2	2	0	distractor	1	707	647	33433	13.328	13.175	13.480
ProbeTrackDT01	20	ProbeTrack	10.4	SCS215a	20100712.100212	20100712.101005	8	0.013328	60	10	60-180	60	165	GapExp	0	65	2	4	1	target	1	440	780	34213	13.328	13.293	13.363
ProbeTrackDT01	20	ProbeTrack	10.4	SCS215a	20100712.100212	20100712.101011	8	0.013328	60	10	60-180	60	98	GapExp	0	66	2	1	1	target	1	613	694	34907	13.328	13.250	13.390
ProbeTrackDT01	20	ProbeTrack	10.4	SCS215a	20100712.100212	20100712.101016	8	0.013328	60	10	60-180	60	84	GapExp	0	67	2	0	0	target	0	640	-1000	33907	13.328	13.143	13.512
ProbeTrackDT01	20	ProbeTrack	10.4	SCS215a	20100712.100212	20100712.101021	8	0.013328	60	10	60-180	60	117	GapExp	0	68	2	0	0	distractor	1	813	594	34501	13.328	12.997	13.690
ProbeTrackDT01	20	ProbeTrack	10.4	SCS215a	20100712.100212	20100712.101027	8	0.013328	60	10	60-180	60	145	GapExp	0	69	2	2	0	target	0	720	-1000	33501	13.374	12.870	26.555
ProbeTrackDT01	20	ProbeTrack	10.4	SCS215a	20100712.100212	20100712.101033	8	0.013328	60	10	60-180	60	154	GapExp	0	70	2	2	1	target	1	853	574	34075	13.328	13.293	13.363
ProbeTrackDT01	20	ProbeTrack	10.4	SCS215a	20100712.100212	20100712.101040	8	0.013328	60	10	60-180	60	133	GapExp	0	71	2	75	0	target	0	414	-1000	33075	13.328	13.237	13.452
ProbeTrackDT01	20	ProbeTrack	10.4	SCS215a	20100712.100212	20100712.101046	8	0.013328	60	10	60-180	60	137	GapExp	0	72	2	1	1	target	1	707	647	33722	13.328	13.170	13.519
ProbeTrackDT01	20	ProbeTrack	10.4	SCS215a	20100712.100212	20100712.101052	8	0.013328	60	10	60-180	60	70	GapExp	0	73	2	75	1	target	1	760	620	34342	13.328	13.197	13.491
ProbeTrackDT01	20	ProbeTrack	10.4	SCS215a	20100712.100212	20100712.101059	8	0.013328	60	10	60-180	60	109	GapExp	0	74	2	75	1	target	1	360	820	35162	13.328	13.032	13.624
ProbeTrackDT01	20	ProbeTrack	10.4	SCS215a	20100712.100212	20100712.101105	8	0.013328	60	10	60-180	60	133	GapExp	0	75	2	4	1	target	1	-13	1007	36169	13.328	13.237	13.385
ProbeTrackDT01	20	ProbeTrack	10.4	SCS215a	20100712.100212	20100712.101110	8	0.013328	60	10	60-180	60	169	GapExp	0	76	2	0	1	target	1	374	813	36982	13.328	13.293	13.363
ProbeTrackDT01	20	ProbeTrack	10.4	SCS215a	20100712.100212	20100712.101116	8	0.013328	60	10	60-180	60	93	GapExp	0	77	2	2	1	target	1	40	980	37962	13.328	13.293	13.363
ProbeTrackDT01	20	ProbeTrack	10.4	SCS215a	20100712.100212	20100712.101121	8	0.013328	60	10	60-180	60	143	GapExp	0	78	2	4	1	target	1	520	740	38702	13.328	13.228	13.429
ProbeTrackDT01	20	ProbeTrack	10.4	SCS215a	20100712.100212	20100712.101127	8	0.013328	60	10	60-180	60	171	GapExp	0	79	2	75	1	target	1	360	820	39522	13.328	13.171	13.451
ProbeTrackDT01	20	ProbeTrack	10.4	SCS215a	20100712.100212	20100712.101134	8	0.013328	60	10	60-180	60	178	GapExp	0	80	2	2	0	target	0	360	-1000	38522	13.328	13.293	13.363
ProbeTrackDT01	20	ProbeTrack	10.4	SCS215a	20100712.100212	20100712.101140	8	0.013328	60	10	60-180	60	159	GapExp	0	81	2	0	0	target	0	507	-1000	37522	13.328	13.079	13.577
ProbeTrackDT01	20	ProbeTrack	10.4	SCS215a	20100712.100212	20100712.101146	8	0.013328	60	10	60-180	60	180	GapExp	0	82	2	1	1	target	1	440	780	38302	13.328	13.293	13.363
ProbeTrackDT01	20	ProbeTrack	10.4	SCS215a	20100712.100212	20100712.101152	8	0.013328	60	10	60-180	60	105	GapExp	0	83	2	75	1	target	1	147	927	39229	13.328	13.103	13.587
ProbeTrackDT01	20	ProbeTrack	10.4	SCS215a	20100712.100212	20100712.101158	8	0.013328	60	10	60-180	60	170	GapExp	0	84	2	2	1	distractor	0	893	-1000	38229	13.328	13.292	13.363
ProbeTrackDT01	20	ProbeTrack	10.4	SCS215a	20100712.100212	20100712.101205	8	0.013328	60	10	60-180	60	124	GapExp	0	85	2	4	1	target	1	454	773	39002	13.328	13.293	13.363
ProbeTrackDT01	20	ProbeTrack	10.4	SCS215a	20100712.100212	20100712.101211	8	0.013328	60	10	60-180	60	123	GapExp	0	86	2	75	0	distractor	1	507	747	39749	13.328	13.265	13.365
ProbeTrackDT01	20	ProbeTrack	10.4	SCS215a	20100712.100212	20100712.101217	8	0.013328	60	10	60-180	60	98	GapExp	0	87	2	0	1	distractor	0	747	-1000	38749	13.328	13.088	13.568
ProbeTrackDT01	20	ProbeTrack	10.4	SCS215a	20100712.100212	20100712.101223	8	0.013328	60	10	60-180	60	175	GapExp	0	88	2	2	1	target	1	520	740	39489	13.328	13.293	13.363
ProbeTrackDT01	20	ProbeTrack	10.4	SCS215a	20100712.100212	20100712.101229	8	0.013328	60	10	60-180	60	81	GapExp	0	89	2	2	0	distractor	1	668	666	40155	13.328	13.279	13.378
ProbeTrackDT01	20	ProbeTrack	10.4	SCS215a	20100712.100212	20100712.101234	8	0.013328	60	10	60-180	60	101	GapExp	0	90	2	1	0	target	0	494	-1000	39155	13.328	13.293	13.366
ProbeTrackDT01	20	ProbeTrack	10.4	SCS215a	20100712.100212	20100712.101240	8	0.013328	60	10	60-180	60	62	GapExp	0	91	2	4	1	target	1	947	527	39682	13.328	13.068	13.588
ProbeTrackDT01	20	ProbeTrack	10.4	SCS215a	20100712.100212	20100712.101245	8	0.013328	60	10	60-180	60	94	GapExp	0	92	2	1	0	target	0	747	-1000	38682	13.328	13.293	13.363
ProbeTrackDT01	20	ProbeTrack	10.4	SCS215a	20100712.100212	20100712.101250	8	0.013328	60	10	60-180	60	73	GapExp	0	93	2	75	1	target	1	440	780	39462	13.328	13.056	13.609
ProbeTrackDT01	20	ProbeTrack	10.4	SCS215a	20100712.100212	20100712.101256	8	0.013328	60	10	60-180	60	168	GapExp	0	94	2	4	0	distractor	1	507	747	40209	13.328	13.049	13.606
ProbeTrackDT01	20	ProbeTrack	10.4	SCS215a	20100712.100212	20100712.101302	8	0.013328	60	10	60-180	60	139	GapExp	0	95	2	4	0	distractor	1	1013	494	40703	13.328	13.247	13.442
ProbeTrackDT01	20	ProbeTrack	10.4	SCS215a	20100712.100212	20100712.101309	8	0.013328	60	10	60-180	60	159	GapExp	0	96	2	75	0	distractor	1	627	687	41390	13.364	12.963	26.992
ProbeTrackDT01	20	ProbeTrack	10.4	SCS215a	20100712.100212	20100712.101316	8	0.013328	60	10	60-180	60	61	GapExp	0	97	2	75	1	target	1	2319	0	41390	13.328	13.070	13.585
ProbeTrackDT01	20	ProbeTrack	10.4	SCS215a	20100712.100212	20100712.101324	8	0.013328	60	10	60-180	60	92	GapExp	0	98	2	2	0	target	0	787	-1000	40390	13.328	13.293	13.363
ProbeTrackDT01	20	ProbeTrack	10.4	SCS215a	20100712.100212	20100712.101329	8	0.013328	60	10	60-180	60	140	GapExp	0	99	2	75	0	target	0	467	-1000	39390	13.328	13.196	13.461
ProbeTrackDT01	20	ProbeTrack	10.4	SCS215a	20100712.100212	20100712.101336	8	0.013328	60	10	60-180	60	135	GapExp	0	100	2	1	0	distractor	1	720	640	40030	13.328	12.960	13.697
ProbeTrackDT01	20	ProbeTrack	10.4	SCS215a	20100712.100212	20100712.101430	8	0.013328	60	10	60-180	60	68	GapExp	0	101	2	0	1	target	1	853	574	40604	13.328	13.283	13.364
ProbeTrackDT01	20	ProbeTrack	10.4	SCS215a	20100712.100212	20100712.101435	8	0.013328	60	10	60-180	60	128	GapExp	0	102	2	4	1	target	1	653	674	41278	13.328	13.162	13.527
ProbeTrackDT01	20	ProbeTrack	10.4	SCS215a	20100712.100212	20100712.101441	8	0.013328	60	10	60-180	60	80	GapExp	0	103	2	2	0	target	0	574	-1000	40278	13.328	13.292	13.363
ProbeTrackDT01	20	ProbeTrack	10.4	SCS215a	20100712.100212	20100712.101446	8	0.013328	60	10	60-180	60	122	GapExp	0	104	2	0	1	target	1	427	787	41065	14.157	12.926	40.064
ProbeTrackDT01	20	ProbeTrack	10.4	SCS215a	20100712.100212	20100712.101452	8	0.013328	60	10	60-180	60	159	GapExp	0	105	2	75	0	distractor	1	960	520	41585	13.328	13.293	13.363
ProbeTrackDT01	20	ProbeTrack	10.4	SCS215a	20100712.100212	20100712.101459	8	0.013328	60	10	60-180	60	139	GapExp	0	106	2	1	0	target	0	587	-1000	40585	13.328	13.293	13.363
ProbeTrackDT01	20	ProbeTrack	10.4	SCS215a	20100712.100212	20100712.101505	8	0.013328	60	10	60-180	60	100	GapExp	0	107	2	0	1	target	1	667	667	41252	13.328	13.293	13.363
ProbeTrackDT01	20	ProbeTrack	10.4	SCS215a	20100712.100212	20100712.101511	8	0.013328	60	10	60-180	60	140	GapExp	0	108	2	2	1	target	1	494	753	42005	13.328	13.259	13.395
ProbeTrackDT01	20	ProbeTrack	10.4	SCS215a	20100712.100212	20100712.101517	8	0.013328	60	10	60-180	60	97	GapExp	0	109	2	75	0	distractor	1	587	707	42712	13.328	13.289	13.366
ProbeTrackDT01	20	ProbeTrack	10.4	SCS215a	20100712.100212	20100712.101523	8	0.013328	60	10	60-180	60	159	GapExp	0	110	2	4	1	target	1	480	760	43472	13.328	13.293	13.363
ProbeTrackDT01	20	ProbeTrack	10.4	SCS215a	20100712.100212	20100712.101529	8	0.013328	60	10	60-180	60	106	GapExp	0	111	2	2	0	target	0	734	-1000	42472	13.328	13.293	13.362
ProbeTrackDT01	20	ProbeTrack	10.4	SCS215a	20100712.100212	20100712.101535	8	0.013328	60	10	60-180	60	177	GapExp	0	112	2	2	1	target	1	427	787	43259	13.328	13.244	13.379
ProbeTrackDT01	20	ProbeTrack	10.4	SCS215a	20100712.100212	20100712.101541	8	0.013328	60	10	60-180	60	74	GapExp	0	113	2	75	1	target	1	454	773	44032	13.328	13.293	13.363
ProbeTrackDT01	20	ProbeTrack	10.4	SCS215a	20100712.100212	20100712.101547	8	0.013328	60	10	60-180	60	165	GapExp	0	114	2	4	0	distractor	1	494	753	44785	13.328	13.293	13.363
ProbeTrackDT01	20	ProbeTrack	10.4	SCS215a	20100712.100212	20100712.101553	8	0.013328	60	10	60-180	60	131	GapExp	0	115	2	4	0	distractor	1	600	700	45485	13.328	13.292	13.363
ProbeTrackDT01	20	ProbeTrack	10.4	SCS215a	20100712.100212	20100712.101559	8	0.013328	60	10	60-180	60	156	GapExp	0	116	2	0	0	distractor	1	680	660	46145	13.328	13.276	13.364
ProbeTrackDT01	20	ProbeTrack	10.4	SCS215a	20100712.100212	20100712.101605	8	0.013328	60	10	60-180	60	100	GapExp	0	117	2	0	0	target	0	1000	-1000	45145	13.328	13.293	13.363
ProbeTrackDT01	20	ProbeTrack	10.4	SCS215a	20100712.100212	20100712.101611	8	0.013328	60	10	60-180	60	69	GapExp	0	118	2	2	1	distractor	0	720	-1000	44145	13.328	13.292	13.363
ProbeTrackDT01	20	ProbeTrack	10.4	SCS215a	20100712.100212	20100712.101616	8	0.013328	60	10	60-180	60	179	GapExp	0	119	2	2	1	target	1	427	787	44932	13.328	13.292	13.364
ProbeTrackDT01	20	ProbeTrack	10.4	SCS215a	20100712.100212	20100712.101622	8	0.013328	60	10	60-180	60	153	GapExp	0	120	2	1	0	target	0	720	-1000	43932	13.328	13.043	13.647
ProbeTrackDT01	20	ProbeTrack	10.4	SCS215a	20100712.100212	20100712.101628	8	0.013328	60	10	60-180	60	133	GapExp	0	121	2	1	1	distractor	0	387	-1000	42932	13.328	13.293	13.363
ProbeTrackDT01	20	ProbeTrack	10.4	SCS215a	20100712.100212	20100712.101634	8	0.013328	60	10	60-180	60	73	GapExp	0	122	2	1	1	target	1	414	793	43725	13.328	13.293	13.363
ProbeTrackDT01	20	ProbeTrack	10.4	SCS215a	20100712.100212	20100712.101639	8	0.013328	60	10	60-180	60	108	GapExp	0	123	2	1	0	distractor	1	640	680	44405	13.328	13.293	13.363
ProbeTrackDT01	20	ProbeTrack	10.4	SCS215a	20100712.100212	20100712.101644	8	0.013328	60	10	60-180	60	84	GapExp	0	124	2	4	1	target	1	414	793	45198	13.328	13.293	13.370
ProbeTrackDT01	20	ProbeTrack	10.4	SCS215a	20100712.100212	20100712.101649	8	0.013328	60	10	60-180	60	107	GapExp	0	125	2	1	0	target	0	840	-1000	44198	13.328	13.073	13.616
ProbeTrackDT01	20	ProbeTrack	10.4	SCS215a	20100712.100212	20100712.101655	8	0.013328	60	10	60-180	60	116	GapExp	0	126	2	2	1	target	1	720	640	44838	13.328	12.937	13.752
ProbeTrackDT01	20	ProbeTrack	10.4	SCS215a	20100712.100212	20100712.101701	8	0.013328	60	10	60-180	60	83	GapExp	0	127	2	2	0	distractor	1	747	627	45465	13.328	13.275	13.415
ProbeTrackDT01	20	ProbeTrack	10.4	SCS215a	20100712.100212	20100712.101706	8	0.013328	60	10	60-180	60	155	GapExp	0	128	2	1	1	target	1	1746	127	45592	13.328	13.168	13.468
ProbeTrackDT01	20	ProbeTrack	10.4	SCS215a	20100712.100212	20100712.101713	8	0.013328	60	10	60-180	60	139	GapExp	0	129	2	75	1	target	1	480	760	46352	13.328	13.153	13.537
ProbeTrackDT01	20	ProbeTrack	10.4	SCS215a	20100712.100212	20100712.101720	8	0.013328	60	10	60-180	60	142	GapExp	0	130	2	0	1	target	1	400	800	47152	13.328	13.293	13.365
ProbeTrackDT01	20	ProbeTrack	10.4	SCS215a	20100712.100212	20100712.101726	8	0.013328	60	10	60-180	60	125	GapExp	0	131	2	4	0	target	0	294	-1000	46152	13.328	13.293	13.363
ProbeTrackDT01	20	ProbeTrack	10.4	SCS215a	20100712.100212	20100712.101731	8	0.013328	60	10	60-180	60	137	GapExp	0	132	2	75	0	distractor	1	680	660	46812	13.328	13.293	13.363
ProbeTrackDT01	20	ProbeTrack	10.4	SCS215a	20100712.100212	20100712.101738	8	0.013328	60	10	60-180	60	74	GapExp	0	133	2	0	0	target	0	534	-1000	45812	13.328	13.293	13.363
ProbeTrackDT01	20	ProbeTrack	10.4	SCS215a	20100712.100212	20100712.101743	8	0.013328	60	10	60-180	60	128	GapExp	0	134	2	0	1	target	1	454	773	46585	13.328	13.044	13.577
ProbeTrackDT01	20	ProbeTrack	10.4	SCS215a	20100712.100212	20100712.101749	8	0.013328	60	10	60-180	60	116	GapExp	0	135	2	4	0	target	0	693	-1000	45585	13.328	13.293	13.363
ProbeTrackDT01	20	ProbeTrack	10.4	SCS215a	20100712.100212	20100712.101755	8	0.013328	60	10	60-180	60	124	GapExp	0	136	2	1	0	distractor	1	933	534	46119	13.328	13.293	13.363
ProbeTrackDT01	20	ProbeTrack	10.4	SCS215a	20100712.100212	20100712.101801	8	0.013328	60	10	60-180	60	143	GapExp	0	137	2	75	1	target	1	480	760	46879	13.328	13.188	13.466
ProbeTrackDT01	20	ProbeTrack	10.4	SCS215a	20100712.100212	20100712.101807	8	0.013328	60	10	60-180	60	85	GapExp	0	138	2	4	1	target	1	667	667	47546	13.328	13.265	13.363
ProbeTrackDT01	20	ProbeTrack	10.4	SCS215a	20100712.100212	20100712.101813	8	0.013328	60	10	60-180	60	66	GapExp	0	139	2	75	0	distractor	1	600	700	48246	13.328	13.288	13.367
ProbeTrackDT01	20	ProbeTrack	10.4	SCS215a	20100712.100212	20100712.101819	8	0.013328	60	10	60-180	60	105	GapExp	0	140	2	0	1	target	1	773	614	48860	13.328	13.263	13.394
ProbeTrackDT01	20	ProbeTrack	10.4	SCS215a	20100712.100212	20100712.101824	8	0.013328	60	10	60-180	60	123	GapExp	0	141	2	4	1	target	1	640	680	49540	13.328	13.293	13.363
ProbeTrackDT01	20	ProbeTrack	10.4	SCS215a	20100712.100212	20100712.101830	8	0.013328	60	10	60-180	60	144	GapExp	0	142	2	1	0	target	0	760	-1000	48540	13.328	13.219	13.438
ProbeTrackDT01	20	ProbeTrack	10.4	SCS215a	20100712.100212	20100712.101836	8	0.013328	60	10	60-180	60	103	GapExp	0	143	2	75	1	target	1	693	654	49194	13.328	13.153	13.536
ProbeTrackDT01	20	ProbeTrack	10.4	SCS215a	20100712.100212	20100712.101843	8	0.013328	60	10	60-180	60	146	GapExp	0	144	2	2	0	target	0	387	-1000	48194	13.328	13.186	13.442
ProbeTrackDT01	20	ProbeTrack	10.4	SCS215a	20100712.100212	20100712.101848	8	0.013328	60	10	60-180	60	140	GapExp	0	145	2	4	1	target	1	427	787	48981	13.378	12.802	27.146
ProbeTrackDT01	20	ProbeTrack	10.4	SCS215a	20100712.100212	20100712.101854	8	0.013328	60	10	60-180	60	150	GapExp	0	146	2	4	0	target	0	680	-1000	47981	13.328	13.293	13.363
ProbeTrackDT01	20	ProbeTrack	10.4	SCS215a	20100712.100212	20100712.101901	8	0.013328	60	10	60-180	60	120	GapExp	0	147	2	4	0	target	0	560	-1000	46981	13.328	13.293	13.363
ProbeTrackDT01	20	ProbeTrack	10.4	SCS215a	20100712.100212	20100712.101906	8	0.013328	60	10	60-180	60	161	GapExp	0	148	2	0	0	target	0	653	-1000	45981	13.328	13.293	13.362
ProbeTrackDT01	20	ProbeTrack	10.4	SCS215a	20100712.100212	20100712.101912	8	0.013328	60	10	60-180	60	66	GapExp	0	149	2	4	1	distractor	0	520	-1000	44981	13.328	13.293	13.363
ProbeTrackDT01	20	ProbeTrack	10.4	SCS215a	20100712.100212	20100712.101917	8	0.013328	60	10	60-180	60	122	GapExp	0	150	2	4	1	target	1	507	747	45728	13.328	13.293	13.363
ProbeTrackDT01	20	ProbeTrack	10.4	SCS215a	20100712.100212	20100712.102001	8	0.013328	60	10	60-180	60	92	GapExp	0	151	2	4	0	distractor	1	773	614	46342	13.328	13.201	13.455
ProbeTrackDT01	20	ProbeTrack	10.4	SCS215a	20100712.100212	20100712.102007	8	0.013328	60	10	60-180	60	97	GapExp	0	152	2	75	0	target	0	800	-1000	45342	13.370	12.911	26.578
ProbeTrackDT01	20	ProbeTrack	10.4	SCS215a	20100712.100212	20100712.102013	8	0.013328	60	10	60-180	60	83	GapExp	0	153	2	75	1	target	1	440	780	46122	13.328	13.292	13.363
ProbeTrackDT01	20	ProbeTrack	10.4	SCS215a	20100712.100212	20100712.102019	8	0.013328	60	10	60-180	60	176	GapExp	0	154	2	2	0	distractor	1	733	634	46756	13.328	13.287	13.367
ProbeTrackDT01	20	ProbeTrack	10.4	SCS215a	20100712.100212	20100712.102026	8	0.013328	60	10	60-180	60	168	GapExp	0	155	2	75	1	target	1	440	780	47536	13.328	13.293	13.363
ProbeTrackDT01	20	ProbeTrack	10.4	SCS215a	20100712.100212	20100712.102033	8	0.013328	60	10	60-180	60	71	GapExp	0	156	2	0	1	target	1	427	787	48323	13.328	13.293	13.363
ProbeTrackDT01	20	ProbeTrack	10.4	SCS215a	20100712.100212	20100712.102038	8	0.013328	60	10	60-180	60	122	GapExp	0	157	2	1	0	distractor	1	640	680	49003	13.328	13.292	13.364
ProbeTrackDT01	20	ProbeTrack	10.4	SCS215a	20100712.100212	20100712.102044	8	0.013328	60	10	60-180	60	124	GapExp	0	158	2	1	1	target	1	400	800	49803	13.328	13.292	13.363
ProbeTrackDT01	20	ProbeTrack	10.4	SCS215a	20100712.100212	20100712.102049	8	0.013328	60	10	60-180	60	164	GapExp	0	159	2	0	0	distractor	1	520	740	50543	13.328	13.293	13.363
ProbeTrackDT01	20	ProbeTrack	10.4	SCS215a	20100712.100212	20100712.102055	8	0.013328	60	10	60-180	60	149	GapExp	0	160	2	1	0	distractor	1	440	780	51323	13.328	13.292	13.363
ProbeTrackDT01	20	ProbeTrack	10.4	SCS215a	20100712.100212	20100712.102101	8	0.013328	60	10	60-180	60	161	GapExp	0	161	2	75	1	target	1	507	747	52070	13.328	13.293	13.363
ProbeTrackDT01	20	ProbeTrack	10.4	SCS215a	20100712.100212	20100712.102108	8	0.013328	60	10	60-180	60	92	GapExp	0	162	2	0	0	distractor	1	1067	467	52537	13.328	13.289	13.363
ProbeTrackDT01	20	ProbeTrack	10.4	SCS215a	20100712.100212	20100712.102114	8	0.013328	60	10	60-180	60	109	GapExp	0	163	2	0	1	target	1	507	747	53284	13.328	13.293	13.363
ProbeTrackDT01	20	ProbeTrack	10.4	SCS215a	20100712.100212	20100712.102119	8	0.013328	60	10	60-180	60	136	GapExp	0	164	2	75	0	distractor	1	454	773	54057	13.328	13.293	13.366
ProbeTrackDT01	20	ProbeTrack	10.4	SCS215a	20100712.100212	20100712.102126	8	0.013328	60	10	60-180	60	152	GapExp	0	165	2	4	1	target	1	627	687	54744	13.328	13.003	13.642
ProbeTrackDT01	20	ProbeTrack	10.4	SCS215a	20100712.100212	20100712.102132	8	0.013328	60	10	60-180	60	98	GapExp	0	166	2	2	1	target	1	640	680	55424	13.328	13.278	13.363
ProbeTrackDT01	20	ProbeTrack	10.4	SCS215a	20100712.100212	20100712.102138	8	0.013328	60	10	60-180	60	164	GapExp	0	167	2	2	0	target	0	733	-1000	54424	13.328	13.292	13.396
ProbeTrackDT01	20	ProbeTrack	10.4	SCS215a	20100712.100212	20100712.102144	8	0.013328	60	10	60-180	60	143	GapExp	0	168	2	0	0	target	0	440	-1000	53424	13.328	13.293	13.363
ProbeTrackDT01	20	ProbeTrack	10.4	SCS215a	20100712.100212	20100712.102150	8	0.013328	60	10	60-180	60	89	GapExp	0	169	2	75	0	distractor	1	520	740	54164	13.328	13.293	13.366
ProbeTrackDT01	20	ProbeTrack	10.4	SCS215a	20100712.100212	20100712.102156	8	0.013328	60	10	60-180	60	131	GapExp	0	170	2	2	1	distractor	0	800	-1000	53164	13.328	13.293	13.363
ProbeTrackDT01	20	ProbeTrack	10.4	SCS215a	20100712.100212	20100712.102202	8	0.013328	60	10	60-180	60	108	GapExp	0	171	2	1	1	target	1	760	620	53784	13.328	13.293	13.363
ProbeTrackDT01	20	ProbeTrack	10.4	SCS215a	20100712.100212	20100712.102208	8	0.013328	60	10	60-180	60	157	GapExp	0	172	2	0	0	target	0	1040	-1000	52784	13.328	13.152	13.470
ProbeTrackDT01	20	ProbeTrack	10.4	SCS215a	20100712.100212	20100712.102214	8	0.013328	60	10	60-180	60	179	GapExp	0	173	2	4	0	distractor	1	560	720	53504	13.328	13.293	13.363
ProbeTrackDT01	20	ProbeTrack	10.4	SCS215a	20100712.100212	20100712.102221	8	0.013328	60	10	60-180	60	154	GapExp	0	174	2	1	1	target	1	653	674	54178	13.328	13.111	13.512
ProbeTrackDT01	20	ProbeTrack	10.4	SCS215a	20100712.100212	20100712.102227	8	0.013328	60	10	60-180	60	151	GapExp	0	175	2	4	0	distractor	1	1426	287	54465	13.328	13.293	13.363
ProbeTrackDT01	20	ProbeTrack	10.4	SCS215a	20100712.100212	20100712.102234	8	0.013328	60	10	60-180	60	162	GapExp	0	176	2	0	1	target	1	1520	240	54705	13.328	13.042	13.649
ProbeTrackDT01	20	ProbeTrack	10.4	SCS215a	20100712.100212	20100712.102241	8	0.013328	60	10	60-180	60	125	GapExp	0	177	2	1	1	target	1	747	627	55332	13.328	13.203	13.526
ProbeTrackDT01	20	ProbeTrack	10.4	SCS215a	20100712.100212	20100712.102247	8	0.013328	60	10	60-180	60	149	GapExp	0	178	2	75	1	target	1	880	560	55892	13.328	13.113	13.509
ProbeTrackDT01	20	ProbeTrack	10.4	SCS215a	20100712.100212	20100712.102254	8	0.013328	60	10	60-180	60	102	GapExp	0	179	2	2	0	target	0	507	-1000	54892	13.328	13.293	13.364
ProbeTrackDT01	20	ProbeTrack	10.4	SCS215a	20100712.100212	20100712.102300	8	0.013328	60	10	60-180	60	76	GapExp	0	180	2	1	0	target	0	667	-1000	53892	13.328	13.057	13.565
ProbeTrackDT01	20	ProbeTrack	10.4	SCS215a	20100712.100212	20100712.102305	8	0.013328	60	10	60-180	60	100	GapExp	0	181	2	2	0	distractor	1	494	753	54645	13.328	13.285	13.379
ProbeTrackDT01	20	ProbeTrack	10.4	SCS215a	20100712.100212	20100712.102310	8	0.013328	60	10	60-180	60	95	GapExp	0	182	2	4	0	target	0	773	-1000	53645	13.328	13.293	13.364
ProbeTrackDT01	20	ProbeTrack	10.4	SCS215a	20100712.100212	20100712.102316	8	0.013328	60	10	60-180	60	62	GapExp	0	183	2	0	0	target	0	760	-1000	52645	13.328	13.293	13.363
ProbeTrackDT01	20	ProbeTrack	10.4	SCS215a	20100712.100212	20100712.102321	8	0.013328	60	10	60-180	60	106	GapExp	0	184	2	1	1	target	1	534	733	53378	13.328	13.233	13.423
ProbeTrackDT01	20	ProbeTrack	10.4	SCS215a	20100712.100212	20100712.102326	8	0.013328	60	10	60-180	60	88	GapExp	0	185	2	0	1	target	1	707	647	54025	13.328	13.266	13.363
ProbeTrackDT01	20	ProbeTrack	10.4	SCS215a	20100712.100212	20100712.102332	8	0.013328	60	10	60-180	60	104	GapExp	0	186	2	2	1	distractor	0	1000	-1000	53025	13.328	13.289	13.368
ProbeTrackDT01	20	ProbeTrack	10.4	SCS215a	20100712.100212	20100712.102337	8	0.013328	60	10	60-180	60	84	GapExp	0	187	2	75	0	distractor	1	640	680	53705	13.328	13.293	13.363
ProbeTrackDT01	20	ProbeTrack	10.4	SCS215a	20100712.100212	20100712.102344	8	0.013328	60	10	60-180	60	93	GapExp	0	188	2	1	1	target	1	707	647	54352	13.328	13.293	13.363
ProbeTrackDT01	20	ProbeTrack	10.4	SCS215a	20100712.100212	20100712.102349	8	0.013328	60	10	60-180	60	142	GapExp	0	189	2	1	0	distractor	1	733	634	54986	13.328	13.189	13.502
ProbeTrackDT01	20	ProbeTrack	10.4	SCS215a	20100712.100212	20100712.102355	8	0.013328	60	10	60-180	60	89	GapExp	0	190	2	75	0	target	0	627	-1000	53986	13.328	13.132	13.526
ProbeTrackDT01	20	ProbeTrack	10.4	SCS215a	20100712.100212	20100712.102401	8	0.013328	60	10	60-180	60	66	GapExp	0	191	2	4	0	target	0	1933	-1000	52986	13.328	13.274	13.383
ProbeTrackDT01	20	ProbeTrack	10.4	SCS215a	20100712.100212	20100712.102408	8	0.013328	60	10	60-180	60	122	GapExp	0	192	2	0	0	target	0	1893	-1000	51986	13.328	13.203	13.486
ProbeTrackDT01	20	ProbeTrack	10.4	SCS215a	20100712.100212	20100712.102415	8	0.013328	60	10	60-180	60	148	GapExp	0	193	2	2	1	target	1	454	773	52759	13.328	13.293	13.363
ProbeTrackDT01	20	ProbeTrack	10.4	SCS215a	20100712.100212	20100712.102421	8	0.013328	60	10	60-180	60	148	GapExp	0	194	2	2	0	target	0	707	-1000	51759	13.328	12.969	13.575
ProbeTrackDT01	20	ProbeTrack	10.4	SCS215a	20100712.100212	20100712.102427	8	0.013328	60	10	60-180	60	76	GapExp	0	195	2	2	0	target	0	440	-1000	50759	13.328	13.293	13.363
ProbeTrackDT01	20	ProbeTrack	10.4	SCS215a	20100712.100212	20100712.102432	8	0.013328	60	10	60-180	60	74	GapExp	0	196	2	4	1	target	1	1560	220	50979	13.328	13.243	13.380
ProbeTrackDT01	20	ProbeTrack	10.4	SCS215a	20100712.100212	20100712.102438	8	0.013328	60	10	60-180	60	179	GapExp	0	197	2	1	0	target	0	813	-1000	49979	13.328	13.293	13.363
ProbeTrackDT01	20	ProbeTrack	10.4	SCS215a	20100712.100212	20100712.102445	8	0.013328	60	10	60-180	60	122	GapExp	0	198	2	1	0	target	0	2413	-1000	48979	13.328	13.289	13.363
ProbeTrackDT01	20	ProbeTrack	10.4	SCS215a	20100712.100212	20100712.102452	8	0.013328	60	10	60-180	60	65	GapExp	0	199	2	4	0	distractor	1	720	640	49619	13.328	13.293	13.363
ProbeTrackDT01	20	ProbeTrack	10.4	SCS215a	20100712.100212	20100712.102457	8	0.013328	60	10	60-180	60	171	GapExp	0	200	2	0	1	target	1	707	647	50266	13.328	12.928	13.694
ProbeTrackDT01	20	ProbeTrack	10.4	SCS215a	20100712.100212	20100712.102539	8	0.013328	60	10	60-180	60	157	GapExp	0	201	2	1	1	target	1	560	720	50986	13.328	13.289	13.366
ProbeTrackDT01	20	ProbeTrack	10.4	SCS215a	20100712.100212	20100712.102545	8	0.013328	60	10	60-180	60	87	GapExp	0	202	2	1	1	target	1	507	747	51733	13.328	13.293	13.363
ProbeTrackDT01	20	ProbeTrack	10.4	SCS215a	20100712.100212	20100712.102550	8	0.013328	60	10	60-180	60	177	GapExp	0	203	2	75	1	target	1	440	780	52513	13.328	13.293	13.363
ProbeTrackDT01	20	ProbeTrack	10.4	SCS215a	20100712.100212	20100712.102557	8	0.013328	60	10	60-180	60	163	GapExp	0	204	2	75	1	target	1	760	620	53133	13.328	13.293	13.363
ProbeTrackDT01	20	ProbeTrack	10.4	SCS215a	20100712.100212	20100712.102605	8	0.013328	60	10	60-180	60	133	GapExp	0	205	2	2	1	target	1	667	667	53800	13.328	13.244	13.378
ProbeTrackDT01	20	ProbeTrack	10.4	SCS215a	20100712.100212	20100712.102611	8	0.013328	60	10	60-180	60	134	GapExp	0	206	2	0	0	target	0	720	-1000	52800	13.328	13.293	13.363
ProbeTrackDT01	20	ProbeTrack	10.4	SCS215a	20100712.100212	20100712.102617	8	0.013328	60	10	60-180	60	137	GapExp	0	207	2	2	1	distractor	0	560	-1000	51800	13.328	13.263	13.363
ProbeTrackDT01	20	ProbeTrack	10.4	SCS215a	20100712.100212	20100712.102623	8	0.013328	60	10	60-180	60	157	GapExp	0	208	2	75	0	target	0	507	-1000	50800	13.328	13.293	13.363
ProbeTrackDT01	20	ProbeTrack	10.4	SCS215a	20100712.100212	20100712.102630	8	0.013328	60	10	60-180	60	98	GapExp	0	209	2	75	1	target	1	454	773	51573	13.328	13.288	13.367
ProbeTrackDT01	20	ProbeTrack	10.4	SCS215a	20100712.100212	20100712.102636	8	0.013328	60	10	60-180	60	79	GapExp	0	210	2	1	0	target	0	467	-1000	50573	13.328	13.292	13.363
