exp	sub	code	rev	comp	runtime	trialtime	nstim	refreshdur	cuedur	gapdur	gapOnsetRange	durPostProbe	gapOnsetTime	blocktype	prac	trial	ntargets	soa	probeTarget	resp	acc	rt	pts	tpts	meanFrameDur	minFrameDur	maxFrameDur
ProbeTrack12	9	ProbeTrack	11.3	WolfelabSpurzheim	20101105.105640	20101105.105754	8	0.011766	60	0	60-180	60	127	NoGap	1	1	2	3	0	distractor	1	1155	423	423	11.943	11.754	35.292
ProbeTrack12	9	ProbeTrack	11.3	WolfelabSpurzheim	20101105.105640	20101105.105804	8	0.011766	60	0	60-180	60	68	NoGap	1	2	2	45	1	distractor	0	461	-1000	-577	11.816	11.752	23.536
ProbeTrack12	9	ProbeTrack	11.3	WolfelabSpurzheim	20101105.105640	20101105.105816	8	0.011766	60	0	60-180	60	147	NoGap	1	3	2	0	0	distractor	1	896	552	-25	11.765	11.748	11.781
ProbeTrack12	9	ProbeTrack	11.3	WolfelabSpurzheim	20101105.105640	20101105.105824	8	0.011766	60	0	60-180	60	142	NoGap	1	4	2	0	1	target	1	485	758	733	11.765	11.754	11.777
ProbeTrack12	9	ProbeTrack	11.3	WolfelabSpurzheim	20101105.105640	20101105.105834	8	0.011766	60	0	60-180	60	159	NoGap	1	5	2	45	1	target	1	438	781	1514	11.765	11.755	11.777
ProbeTrack12	9	ProbeTrack	11.3	WolfelabSpurzheim	20101105.105640	20101105.105841	8	0.011766	60	0	60-180	60	105	NoGap	1	6	2	3	0	distractor	1	967	517	2031	11.765	11.754	11.776
ProbeTrack12	9	ProbeTrack	11.3	WolfelabSpurzheim	20101105.105640	20101105.105851	8	0.011766	60	0	60-180	60	81	NoGap	1	7	2	3	1	target	1	661	670	2701	11.765	11.734	11.803
ProbeTrack12	9	ProbeTrack	11.3	WolfelabSpurzheim	20101105.105640	20101105.105857	8	0.011766	60	0	60-180	60	67	NoGap	1	8	2	45	0	distractor	1	908	546	3247	11.765	11.755	11.776
ProbeTrack12	9	ProbeTrack	11.3	WolfelabSpurzheim	20101105.105640	20101105.105903	8	0.011766	60	0	60-180	60	65	NoGap	1	9	2	3	1	target	1	590	705	3952	11.765	11.754	11.776
ProbeTrack12	9	ProbeTrack	11.3	WolfelabSpurzheim	20101105.105640	20101105.105909	8	0.011766	60	0	60-180	60	153	NoGap	1	10	2	1	0	distractor	1	720	640	4592	11.765	11.753	11.776
ProbeTrack12	9	ProbeTrack	11.3	WolfelabSpurzheim	20101105.105640	20101105.105917	8	0.011766	60	0	60-180	60	87	NoGap	1	11	2	45	1	target	1	438	781	5373	11.765	11.744	11.776
ProbeTrack12	9	ProbeTrack	11.3	WolfelabSpurzheim	20101105.105640	20101105.105922	8	0.011766	60	0	60-180	60	178	NoGap	1	12	2	45	0	distractor	1	602	699	6072	11.765	11.753	11.777
ProbeTrack12	9	ProbeTrack	11.3	WolfelabSpurzheim	20101105.105640	20101105.105930	8	0.011766	60	0	60-180	60	109	NoGap	1	13	2	1	0	distractor	1	661	670	6742	11.765	11.754	11.776
ProbeTrack12	9	ProbeTrack	11.3	WolfelabSpurzheim	20101105.105640	20101105.105936	8	0.011766	60	0	60-180	60	68	NoGap	1	14	2	0	0	distractor	1	696	652	7394	11.765	11.754	11.776
ProbeTrack12	9	ProbeTrack	11.3	WolfelabSpurzheim	20101105.105640	20101105.105941	8	0.011766	60	0	60-180	60	150	NoGap	1	15	2	0	0	distractor	1	567	717	8111	11.765	11.754	11.776
ProbeTrack12	9	ProbeTrack	11.3	WolfelabSpurzheim	20101105.105640	20101105.105948	8	0.011766	60	0	60-180	60	114	NoGap	1	16	2	0	1	target	1	637	682	8793	11.765	11.728	11.805
ProbeTrack12	9	ProbeTrack	11.3	WolfelabSpurzheim	20101105.105640	20101105.105954	8	0.011766	60	0	60-180	60	152	NoGap	1	17	2	0	0	distractor	1	520	740	9533	11.765	11.754	11.777
ProbeTrack12	9	ProbeTrack	11.3	WolfelabSpurzheim	20101105.105640	20101105.110000	8	0.011766	60	0	60-180	60	117	NoGap	1	18	2	1	0	distractor	1	590	705	10238	11.765	11.753	11.776
ProbeTrack12	9	ProbeTrack	11.3	WolfelabSpurzheim	20101105.105640	20101105.110006	8	0.011766	60	0	60-180	60	171	NoGap	1	19	2	1	1	target	1	684	658	10896	11.765	11.708	11.811
ProbeTrack12	9	ProbeTrack	11.3	WolfelabSpurzheim	20101105.105640	20101105.110013	8	0.011766	60	0	60-180	60	65	NoGap	1	20	2	3	0	target	0	814	-1000	9896	11.765	11.755	11.777
ProbeTrack12	9	ProbeTrack	11.3	WolfelabSpurzheim	20101105.105640	20101105.110018	8	0.011766	60	0	60-180	60	63	NoGap	1	21	2	0	1	target	1	496	752	10648	11.765	11.755	11.776
ProbeTrack12	9	ProbeTrack	11.3	WolfelabSpurzheim	20101105.105640	20101105.110024	8	0.011766	60	0	60-180	60	163	NoGap	1	22	2	0	1	target	1	449	776	11424	11.765	11.727	11.803
ProbeTrack12	9	ProbeTrack	11.3	WolfelabSpurzheim	20101105.105640	20101105.110030	8	0.011766	60	0	60-180	60	87	NoGap	1	23	2	1	1	target	1	520	740	12164	11.765	11.753	11.777
ProbeTrack12	9	ProbeTrack	11.3	WolfelabSpurzheim	20101105.105640	20101105.110036	8	0.011766	60	0	60-180	60	129	NoGap	1	24	2	0	1	target	1	496	752	12916	11.765	11.753	11.775
ProbeTrack12	9	ProbeTrack	11.3	WolfelabSpurzheim	20101105.105640	20101105.110042	8	0.011766	60	0	60-180	60	129	NoGap	1	25	2	1	1	target	1	414	793	13709	11.765	11.754	11.775
ProbeTrack12	9	ProbeTrack	11.3	WolfelabSpurzheim	20101105.105640	20101105.110047	8	0.011766	60	0	60-180	60	93	NoGap	1	26	2	45	0	distractor	1	708	646	14355	11.765	11.754	11.776
ProbeTrack12	9	ProbeTrack	11.3	WolfelabSpurzheim	20101105.105640	20101105.110054	8	0.011766	60	0	60-180	60	97	NoGap	1	27	2	3	1	target	1	285	858	15213	11.765	11.754	11.776
ProbeTrack12	9	ProbeTrack	11.3	WolfelabSpurzheim	20101105.105640	20101105.110059	8	0.011766	60	0	60-180	60	111	NoGap	1	28	2	1	1	target	1	320	840	16053	11.765	11.754	11.780
ProbeTrack12	9	ProbeTrack	11.3	WolfelabSpurzheim	20101105.105640	20101105.110105	8	0.011766	60	0	60-180	60	136	NoGap	1	29	2	3	1	target	1	320	840	16893	11.765	11.754	11.777
ProbeTrack12	9	ProbeTrack	11.3	WolfelabSpurzheim	20101105.105640	20101105.110111	8	0.011766	60	0	60-180	60	147	NoGap	1	30	2	0	0	distractor	1	708	646	17539	11.765	11.754	11.776
ProbeTrack12	9	ProbeTrack	11.3	WolfelabSpurzheim	20101105.105640	20101105.110117	8	0.011766	60	0	60-180	60	114	NoGap	1	31	2	1	0	distractor	1	637	682	18221	11.765	11.753	11.776
ProbeTrack12	9	ProbeTrack	11.3	WolfelabSpurzheim	20101105.105640	20101105.110123	8	0.011766	60	0	60-180	60	121	NoGap	1	32	2	3	0	distractor	1	614	693	18914	11.765	11.754	11.777
ProbeTrack12	9	ProbeTrack	11.3	WolfelabSpurzheim	20101105.105640	20101105.110129	8	0.011766	60	0	60-180	60	101	NoGap	1	33	2	45	1	target	1	367	817	19731	11.765	11.753	11.777
ProbeTrack12	9	ProbeTrack	11.3	WolfelabSpurzheim	20101105.105640	20101105.110135	8	0.011766	60	0	60-180	60	127	NoGap	1	34	2	45	0	distractor	1	579	711	20442	11.765	11.737	11.791
ProbeTrack12	9	ProbeTrack	11.3	WolfelabSpurzheim	20101105.105640	20101105.110142	8	0.011766	60	0	60-180	60	134	NoGap	1	35	2	1	1	target	1	437	782	21224	11.765	11.754	11.776
ProbeTrack12	9	ProbeTrack	11.3	WolfelabSpurzheim	20101105.105640	20101105.110148	8	0.011766	60	0	60-180	60	121	NoGap	1	36	2	3	1	target	1	332	834	22058	11.765	11.755	11.776
ProbeTrack12	9	ProbeTrack	11.3	WolfelabSpurzheim	20101105.105640	20101105.110153	8	0.011766	60	0	60-180	60	66	NoGap	1	37	2	45	1	target	1	485	758	22816	11.765	11.753	11.776
ProbeTrack12	9	ProbeTrack	11.3	WolfelabSpurzheim	20101105.105640	20101105.110159	8	0.011766	60	0	60-180	60	76	NoGap	1	38	2	1	0	distractor	1	544	728	23544	11.765	11.754	11.776
ProbeTrack12	9	ProbeTrack	11.3	WolfelabSpurzheim	20101105.105640	20101105.110204	8	0.011766	60	0	60-180	60	96	NoGap	1	39	2	3	0	distractor	1	579	711	24255	11.765	11.742	11.782
ProbeTrack12	9	ProbeTrack	11.3	WolfelabSpurzheim	20101105.105640	20101105.110210	8	0.011766	60	0	60-180	60	75	NoGap	1	40	2	45	0	distractor	1	579	711	24966	11.765	11.753	11.777
ProbeTrack12	9	ProbeTrack	11.3	WolfelabSpurzheim	20101105.110303	20101105.110315	8	0.011765	60	10	60-180	60	156	GapPrac	1	1	2	0	1	target	1	755	623	25589	11.882	11.756	23.535
ProbeTrack12	9	ProbeTrack	11.3	WolfelabSpurzheim	20101105.110303	20101105.110325	8	0.011765	60	0	60-180	60	61	GapPrac	1	2	2	1	0	distractor	1	579	711	26300	11.828	11.754	23.533
ProbeTrack12	9	ProbeTrack	11.3	WolfelabSpurzheim	20101105.110303	20101105.110330	8	0.011765	60	10	60-180	60	154	GapPrac	1	3	2	45	1	distractor	0	649	-1000	25300	11.765	11.754	11.777
ProbeTrack12	9	ProbeTrack	11.3	WolfelabSpurzheim	20101105.110303	20101105.110339	8	0.011765	60	0	60-180	60	70	GapPrac	1	4	2	1	1	target	1	543	729	26029	11.886	11.740	11.782
ProbeTrack12	9	ProbeTrack	11.3	WolfelabSpurzheim	20101105.110303	20101105.110345	8	0.011765	60	0	60-180	60	180	GapPrac	1	5	2	45	0	distractor	1	555	723	26752	11.765	11.752	11.777
ProbeTrack12	9	ProbeTrack	11.3	WolfelabSpurzheim	20101105.110303	20101105.110352	8	0.011765	60	10	60-180	60	180	GapPrac	1	6	2	1	0	distractor	1	708	646	27398	11.765	11.753	11.776
ProbeTrack12	9	ProbeTrack	11.3	WolfelabSpurzheim	20101105.110303	20101105.110359	8	0.011765	60	0	60-180	60	77	GapPrac	1	7	2	0	1	target	1	555	723	28121	11.765	11.754	11.776
ProbeTrack12	9	ProbeTrack	11.3	WolfelabSpurzheim	20101105.110303	20101105.110404	8	0.011765	60	0	60-180	60	161	GapPrac	1	8	2	1	1	distractor	0	567	-1000	27121	11.765	11.754	11.776
ProbeTrack12	9	ProbeTrack	11.3	WolfelabSpurzheim	20101105.110303	20101105.110410	8	0.011765	60	0	60-180	60	131	GapPrac	1	9	2	0	0	distractor	1	766	617	27738	11.765	11.754	11.777
ProbeTrack12	9	ProbeTrack	11.3	WolfelabSpurzheim	20101105.110303	20101105.110417	8	0.011765	60	10	60-180	60	118	GapPrac	1	10	2	3	1	target	1	931	535	28273	11.765	11.754	11.780
ProbeTrack12	9	ProbeTrack	11.3	WolfelabSpurzheim	20101105.110303	20101105.110423	8	0.011765	60	10	60-180	60	105	GapPrac	1	11	2	0	1	distractor	0	825	-1000	27273	11.765	11.754	11.779
ProbeTrack12	9	ProbeTrack	11.3	WolfelabSpurzheim	20101105.110303	20101105.110429	8	0.011765	60	0	60-180	60	146	GapPrac	1	12	2	3	0	distractor	1	661	670	27943	11.765	11.754	11.775
ProbeTrack12	9	ProbeTrack	11.3	WolfelabSpurzheim	20101105.110303	20101105.110436	8	0.011765	60	0	60-180	60	86	GapPrac	1	13	2	45	1	target	1	731	635	28578	11.765	11.755	11.776
ProbeTrack12	9	ProbeTrack	11.3	WolfelabSpurzheim	20101105.110303	20101105.110442	8	0.011765	60	10	60-180	60	95	GapPrac	1	14	2	3	0	distractor	1	849	576	29154	11.765	11.755	11.777
ProbeTrack12	9	ProbeTrack	11.3	WolfelabSpurzheim	20101105.110303	20101105.110448	8	0.011765	60	10	60-180	60	76	GapPrac	1	15	2	1	1	target	1	614	693	29847	11.765	11.753	11.776
ProbeTrack12	9	ProbeTrack	11.3	WolfelabSpurzheim	20101105.110303	20101105.110454	8	0.011765	60	10	60-180	60	160	GapPrac	1	16	2	0	0	distractor	1	767	617	30464	11.765	11.733	11.801
ProbeTrack12	9	ProbeTrack	11.3	WolfelabSpurzheim	20101105.110303	20101105.110500	8	0.011765	60	0	60-180	60	124	GapPrac	1	17	2	3	1	target	1	543	729	31193	11.765	11.731	11.792
ProbeTrack12	9	ProbeTrack	11.3	WolfelabSpurzheim	20101105.110303	20101105.110506	8	0.011765	60	10	60-180	60	153	GapPrac	1	18	2	45	1	target	1	591	705	31898	11.765	11.754	11.776
ProbeTrack12	9	ProbeTrack	11.3	WolfelabSpurzheim	20101105.110303	20101105.110513	8	0.011765	60	0	60-180	60	122	GapPrac	1	19	2	1	0	distractor	1	696	652	32550	11.765	11.748	11.778
ProbeTrack12	9	ProbeTrack	11.3	WolfelabSpurzheim	20101105.110303	20101105.110519	8	0.011765	60	10	60-180	60	168	GapPrac	1	20	2	45	0	distractor	1	707	647	33197	11.765	11.754	11.776
ProbeTrack12	9	ProbeTrack	11.3	WolfelabSpurzheim	20101105.110617	20101105.110629	8	0.011767	60	0	60-180	60	86	GapExp	1	1	2	3	0	distractor	1	626	687	33884	11.980	11.755	35.300
ProbeTrack12	9	ProbeTrack	11.3	WolfelabSpurzheim	20101105.110617	20101105.110636	8	0.011767	60	10	60-180	60	160	GapExp	1	2	2	0	0	target	0	1167	-1000	32884	11.765	11.753	11.776
ProbeTrack12	9	ProbeTrack	11.3	WolfelabSpurzheim	20101105.110617	20101105.110644	8	0.011767	60	0	60-180	60	164	GapExp	1	3	2	45	0	distractor	1	578	711	33595	11.835	11.754	23.543
ProbeTrack12	9	ProbeTrack	11.3	WolfelabSpurzheim	20101105.110617	20101105.110651	8	0.011767	60	0	60-180	60	121	GapExp	1	4	2	0	0	distractor	1	731	635	34230	11.765	11.736	11.798
ProbeTrack12	9	ProbeTrack	11.3	WolfelabSpurzheim	20101105.110617	20101105.110657	8	0.011767	60	10	60-180	60	80	GapExp	1	5	2	45	1	target	1	602	699	34929	11.765	11.754	11.776
ProbeTrack12	9	ProbeTrack	11.3	WolfelabSpurzheim	20101105.110617	20101105.110704	8	0.011767	60	10	60-180	60	88	GapExp	1	6	2	3	0	distractor	1	978	511	35440	11.865	11.754	11.777
ProbeTrack12	9	ProbeTrack	11.3	WolfelabSpurzheim	20101105.110617	20101105.110710	8	0.011767	60	10	60-180	60	102	GapExp	1	7	2	3	1	target	1	473	764	36204	11.765	11.753	11.776
ProbeTrack12	9	ProbeTrack	11.3	WolfelabSpurzheim	20101105.110617	20101105.110715	8	0.011767	60	0	60-180	60	145	GapExp	1	8	2	45	1	target	1	580	710	36914	11.765	11.749	11.778
ProbeTrack12	9	ProbeTrack	11.3	WolfelabSpurzheim	20101105.110617	20101105.110723	8	0.011767	60	0	60-180	60	142	GapExp	1	9	2	3	1	target	1	532	734	37648	11.765	11.745	11.780
ProbeTrack12	9	ProbeTrack	11.3	WolfelabSpurzheim	20101105.110617	20101105.110729	8	0.011767	60	10	60-180	60	67	GapExp	1	10	2	45	0	distractor	1	555	723	38371	11.765	11.753	11.775
ProbeTrack12	9	ProbeTrack	11.3	WolfelabSpurzheim	20101105.110617	20101105.110735	8	0.011767	60	10	60-180	60	114	GapExp	0	11	2	1	1	target	1	532	734	39105	11.765	11.754	11.777
ProbeTrack12	9	ProbeTrack	11.3	WolfelabSpurzheim	20101105.110617	20101105.110741	8	0.011767	60	10	60-180	60	91	GapExp	0	12	2	45	0	distractor	1	555	723	39828	11.765	11.754	11.775
ProbeTrack12	9	ProbeTrack	11.3	WolfelabSpurzheim	20101105.110617	20101105.110747	8	0.011767	60	0	60-180	60	144	GapExp	0	13	2	1	0	distractor	1	649	676	40504	11.765	11.745	11.785
ProbeTrack12	9	ProbeTrack	11.3	WolfelabSpurzheim	20101105.110617	20101105.110753	8	0.011767	60	10	60-180	60	72	GapExp	0	14	2	45	0	distractor	1	543	729	41233	11.765	11.753	11.776
ProbeTrack12	9	ProbeTrack	11.3	WolfelabSpurzheim	20101105.110617	20101105.110759	8	0.011767	60	10	60-180	60	95	GapExp	0	15	2	3	0	target	0	790	-1000	40233	11.765	11.753	11.776
ProbeTrack12	9	ProbeTrack	11.3	WolfelabSpurzheim	20101105.110617	20101105.110805	8	0.011767	60	10	60-180	60	118	GapExp	0	16	2	1	0	distractor	1	720	640	40873	11.765	11.754	11.776
ProbeTrack12	9	ProbeTrack	11.3	WolfelabSpurzheim	20101105.110617	20101105.110812	8	0.011767	60	0	60-180	60	133	GapExp	0	17	2	3	0	distractor	1	743	629	41502	11.765	11.754	11.775
ProbeTrack12	9	ProbeTrack	11.3	WolfelabSpurzheim	20101105.110617	20101105.110818	8	0.011767	60	0	60-180	60	143	GapExp	0	18	2	45	0	distractor	1	708	646	42148	11.765	11.752	11.776
ProbeTrack12	9	ProbeTrack	11.3	WolfelabSpurzheim	20101105.110617	20101105.110825	8	0.011767	60	10	60-180	60	144	GapExp	0	19	2	3	1	target	1	708	646	42794	11.765	11.754	11.776
ProbeTrack12	9	ProbeTrack	11.3	WolfelabSpurzheim	20101105.110617	20101105.110831	8	0.011767	60	0	60-180	60	116	GapExp	0	20	2	45	1	target	1	438	781	43575	11.765	11.754	11.779
ProbeTrack12	9	ProbeTrack	11.3	WolfelabSpurzheim	20101105.110617	20101105.110837	8	0.011767	60	10	60-180	60	85	GapExp	0	21	2	0	1	target	1	555	723	44298	11.765	11.755	11.776
ProbeTrack12	9	ProbeTrack	11.3	WolfelabSpurzheim	20101105.110617	20101105.110843	8	0.011767	60	10	60-180	60	107	GapExp	0	22	2	0	0	distractor	1	674	663	44961	11.765	11.753	11.776
ProbeTrack12	9	ProbeTrack	11.3	WolfelabSpurzheim	20101105.110617	20101105.110848	8	0.011767	60	10	60-180	60	87	GapExp	0	23	2	1	1	distractor	0	591	-1000	43961	11.765	11.754	11.777
ProbeTrack12	9	ProbeTrack	11.3	WolfelabSpurzheim	20101105.110617	20101105.110854	8	0.011767	60	0	60-180	60	129	GapExp	0	24	2	0	0	distractor	1	673	664	44625	11.765	11.755	11.777
ProbeTrack12	9	ProbeTrack	11.3	WolfelabSpurzheim	20101105.110617	20101105.110900	8	0.011767	60	10	60-180	60	137	GapExp	0	25	2	3	0	distractor	1	685	658	45283	11.765	11.753	11.776
ProbeTrack12	9	ProbeTrack	11.3	WolfelabSpurzheim	20101105.110617	20101105.110906	8	0.011767	60	10	60-180	60	109	GapExp	0	26	2	1	1	target	1	555	723	46006	11.765	11.754	11.776
ProbeTrack12	9	ProbeTrack	11.3	WolfelabSpurzheim	20101105.110617	20101105.110912	8	0.011767	60	0	60-180	60	142	GapExp	0	27	2	3	0	distractor	1	708	646	46652	11.765	11.753	11.776
ProbeTrack12	9	ProbeTrack	11.3	WolfelabSpurzheim	20101105.110617	20101105.110918	8	0.011767	60	0	60-180	60	133	GapExp	0	28	2	45	1	target	1	520	740	47392	11.765	11.744	11.785
ProbeTrack12	9	ProbeTrack	11.3	WolfelabSpurzheim	20101105.110617	20101105.110925	8	0.011767	60	0	60-180	60	120	GapExp	0	29	2	45	1	target	1	485	758	48150	11.765	11.754	11.776
ProbeTrack12	9	ProbeTrack	11.3	WolfelabSpurzheim	20101105.110617	20101105.110931	8	0.011767	60	0	60-180	60	174	GapExp	0	30	2	45	1	target	1	473	764	48914	11.765	11.738	11.798
ProbeTrack12	9	ProbeTrack	11.3	WolfelabSpurzheim	20101105.110617	20101105.110938	8	0.011767	60	10	60-180	60	78	GapExp	0	31	2	45	0	distractor	1	567	717	49631	11.765	11.754	11.777
ProbeTrack12	9	ProbeTrack	11.3	WolfelabSpurzheim	20101105.110617	20101105.110944	8	0.011767	60	10	60-180	60	124	GapExp	0	32	2	1	0	distractor	1	567	717	50348	11.765	11.740	11.788
ProbeTrack12	9	ProbeTrack	11.3	WolfelabSpurzheim	20101105.110617	20101105.110950	8	0.011767	60	0	60-180	60	88	GapExp	0	33	2	45	0	distractor	1	555	723	51071	11.765	11.753	11.775
ProbeTrack12	9	ProbeTrack	11.3	WolfelabSpurzheim	20101105.110617	20101105.110956	8	0.011767	60	0	60-180	60	176	GapExp	0	34	2	1	1	target	1	532	734	51805	11.765	11.753	11.776
ProbeTrack12	9	ProbeTrack	11.3	WolfelabSpurzheim	20101105.110617	20101105.111002	8	0.011767	60	10	60-180	60	112	GapExp	0	35	2	0	0	distractor	1	955	523	52328	11.765	11.754	11.776
ProbeTrack12	9	ProbeTrack	11.3	WolfelabSpurzheim	20101105.110617	20101105.111008	8	0.011767	60	10	60-180	60	150	GapExp	0	36	2	45	0	distractor	1	1120	440	52768	11.765	11.735	11.794
ProbeTrack12	9	ProbeTrack	11.3	WolfelabSpurzheim	20101105.110617	20101105.111015	8	0.011767	60	0	60-180	60	153	GapExp	0	37	2	0	0	distractor	1	649	676	53444	11.765	11.744	11.792
ProbeTrack12	9	ProbeTrack	11.3	WolfelabSpurzheim	20101105.110617	20101105.111022	8	0.011767	60	10	60-180	60	118	GapExp	0	38	2	1	0	target	0	591	-1000	52444	11.765	11.754	11.776
ProbeTrack12	9	ProbeTrack	11.3	WolfelabSpurzheim	20101105.110617	20101105.111028	8	0.011767	60	10	60-180	60	124	GapExp	0	39	2	3	0	distractor	1	684	658	53102	11.765	11.755	11.776
ProbeTrack12	9	ProbeTrack	11.3	WolfelabSpurzheim	20101105.110617	20101105.111034	8	0.011767	60	10	60-180	60	108	GapExp	0	40	2	0	1	target	1	743	629	53731	11.765	11.755	11.777
ProbeTrack12	9	ProbeTrack	11.3	WolfelabSpurzheim	20101105.110617	20101105.111040	8	0.011767	60	10	60-180	60	62	GapExp	0	41	2	3	1	target	1	497	752	54483	11.765	11.754	11.775
ProbeTrack12	9	ProbeTrack	11.3	WolfelabSpurzheim	20101105.110617	20101105.111045	8	0.011767	60	10	60-180	60	66	GapExp	0	42	2	0	0	distractor	1	920	540	55023	11.765	11.754	11.776
ProbeTrack12	9	ProbeTrack	11.3	WolfelabSpurzheim	20101105.110617	20101105.111051	8	0.011767	60	10	60-180	60	65	GapExp	0	43	2	3	0	distractor	1	861	570	55593	11.765	11.753	11.776
ProbeTrack12	9	ProbeTrack	11.3	WolfelabSpurzheim	20101105.110617	20101105.111056	8	0.011767	60	0	60-180	60	141	GapExp	0	44	2	3	1	target	1	485	758	56351	11.765	11.754	11.776
ProbeTrack12	9	ProbeTrack	11.3	WolfelabSpurzheim	20101105.110617	20101105.111102	8	0.011767	60	10	60-180	60	63	GapExp	0	45	2	3	0	distractor	1	837	582	56933	11.765	11.755	11.775
ProbeTrack12	9	ProbeTrack	11.3	WolfelabSpurzheim	20101105.110617	20101105.111108	8	0.011767	60	0	60-180	60	143	GapExp	0	46	2	0	1	target	1	426	787	57720	11.765	11.742	11.796
ProbeTrack12	9	ProbeTrack	11.3	WolfelabSpurzheim	20101105.110617	20101105.111113	8	0.011767	60	10	60-180	60	100	GapExp	0	47	2	45	1	target	1	485	758	58478	11.765	11.753	11.777
ProbeTrack12	9	ProbeTrack	11.3	WolfelabSpurzheim	20101105.110617	20101105.111120	8	0.011767	60	10	60-180	60	107	GapExp	0	48	2	1	0	distractor	1	638	681	59159	11.765	11.753	11.776
ProbeTrack12	9	ProbeTrack	11.3	WolfelabSpurzheim	20101105.110617	20101105.111126	8	0.011767	60	10	60-180	60	174	GapExp	0	49	2	1	1	target	1	543	729	59888	11.765	11.740	11.801
ProbeTrack12	9	ProbeTrack	11.3	WolfelabSpurzheim	20101105.110617	20101105.111132	8	0.011767	60	10	60-180	60	127	GapExp	0	50	2	45	1	target	1	485	758	60646	11.765	11.753	11.777
ProbeTrack12	9	ProbeTrack	11.3	WolfelabSpurzheim	20101105.110617	20101105.111138	8	0.011767	60	10	60-180	60	159	GapExp	0	51	2	3	0	target	0	567	-1000	59646	11.765	11.753	11.777
ProbeTrack12	9	ProbeTrack	11.3	WolfelabSpurzheim	20101105.110617	20101105.111145	8	0.011767	60	10	60-180	60	89	GapExp	0	52	2	1	1	target	1	637	682	60328	11.765	11.754	11.777
ProbeTrack12	9	ProbeTrack	11.3	WolfelabSpurzheim	20101105.110617	20101105.111150	8	0.011767	60	0	60-180	60	130	GapExp	0	53	2	3	0	distractor	1	825	588	60916	11.765	11.756	11.776
ProbeTrack12	9	ProbeTrack	11.3	WolfelabSpurzheim	20101105.110617	20101105.111157	8	0.011767	60	0	60-180	60	124	GapExp	0	54	2	1	1	target	1	602	699	61615	11.765	11.755	11.777
ProbeTrack12	9	ProbeTrack	11.3	WolfelabSpurzheim	20101105.110617	20101105.111202	8	0.011767	60	10	60-180	60	136	GapExp	0	55	2	45	1	target	1	614	693	62308	11.765	11.753	11.777
ProbeTrack12	9	ProbeTrack	11.3	WolfelabSpurzheim	20101105.110617	20101105.111209	8	0.011767	60	10	60-180	60	77	GapExp	0	56	2	1	0	target	0	579	-1000	61308	11.765	11.753	11.776
ProbeTrack12	9	ProbeTrack	11.3	WolfelabSpurzheim	20101105.110617	20101105.111215	8	0.011767	60	10	60-180	60	66	GapExp	0	57	2	1	0	distractor	1	649	676	61984	11.765	11.755	11.775
ProbeTrack12	9	ProbeTrack	11.3	WolfelabSpurzheim	20101105.110617	20101105.111220	8	0.011767	60	0	60-180	60	155	GapExp	0	58	2	45	0	distractor	1	591	705	62689	11.765	11.753	11.778
ProbeTrack12	9	ProbeTrack	11.3	WolfelabSpurzheim	20101105.110617	20101105.111227	8	0.011767	60	0	60-180	60	92	GapExp	0	59	2	0	1	target	1	661	670	63359	11.765	11.753	11.776
ProbeTrack12	9	ProbeTrack	11.3	WolfelabSpurzheim	20101105.110617	20101105.111233	8	0.011767	60	10	60-180	60	155	GapExp	0	60	2	45	0	distractor	1	650	675	64034	11.765	11.754	11.777
ProbeTrack12	9	ProbeTrack	11.3	WolfelabSpurzheim	20101105.110617	20101105.111240	8	0.011767	60	0	60-180	60	112	GapExp	0	61	2	45	0	distractor	1	873	564	64598	11.765	11.752	11.776
ProbeTrack12	9	ProbeTrack	11.3	WolfelabSpurzheim	20101105.110617	20101105.111246	8	0.011767	60	10	60-180	60	82	GapExp	0	62	2	0	1	target	1	649	676	65274	11.765	11.754	11.775
ProbeTrack12	9	ProbeTrack	11.3	WolfelabSpurzheim	20101105.110617	20101105.111252	8	0.011767	60	0	60-180	60	160	GapExp	0	63	2	0	0	distractor	1	590	705	65979	11.765	11.737	11.799
ProbeTrack12	9	ProbeTrack	11.3	WolfelabSpurzheim	20101105.110617	20101105.111258	8	0.011767	60	0	60-180	60	130	GapExp	0	64	2	1	0	distractor	1	602	699	66678	11.765	11.754	11.777
ProbeTrack12	9	ProbeTrack	11.3	WolfelabSpurzheim	20101105.110617	20101105.111304	8	0.011767	60	10	60-180	60	108	GapExp	0	65	2	45	1	target	1	849	576	67254	11.765	11.755	11.777
ProbeTrack12	9	ProbeTrack	11.3	WolfelabSpurzheim	20101105.110617	20101105.111310	8	0.011767	60	10	60-180	60	129	GapExp	0	66	2	1	1	target	1	532	734	67988	11.765	11.754	11.777
ProbeTrack12	9	ProbeTrack	11.3	WolfelabSpurzheim	20101105.110617	20101105.111316	8	0.011767	60	0	60-180	60	62	GapExp	0	67	2	0	1	target	1	626	687	68675	11.765	11.734	11.789
ProbeTrack12	9	ProbeTrack	11.3	WolfelabSpurzheim	20101105.110617	20101105.111322	8	0.011767	60	0	60-180	60	144	GapExp	0	68	2	3	0	distractor	1	625	688	69363	11.765	11.754	11.778
ProbeTrack12	9	ProbeTrack	11.3	WolfelabSpurzheim	20101105.110617	20101105.111328	8	0.011767	60	0	60-180	60	147	GapExp	0	69	2	0	0	distractor	1	555	723	70086	11.765	11.754	11.777
ProbeTrack12	9	ProbeTrack	11.3	WolfelabSpurzheim	20101105.110617	20101105.111334	8	0.011767	60	0	60-180	60	129	GapExp	0	70	2	0	0	distractor	1	531	735	70821	11.765	11.752	11.776
ProbeTrack12	9	ProbeTrack	11.3	WolfelabSpurzheim	20101105.110617	20101105.111340	8	0.011767	60	0	60-180	60	109	GapExp	0	71	2	3	1	target	1	555	723	71544	11.765	11.754	11.775
ProbeTrack12	9	ProbeTrack	11.3	WolfelabSpurzheim	20101105.110617	20101105.111345	8	0.011767	60	0	60-180	60	165	GapExp	0	72	2	45	1	target	1	485	758	72302	11.765	11.754	11.777
ProbeTrack12	9	ProbeTrack	11.3	WolfelabSpurzheim	20101105.110617	20101105.111352	8	0.011767	60	10	60-180	60	62	GapExp	0	73	2	45	1	target	1	802	599	72901	11.765	11.754	11.777
ProbeTrack12	9	ProbeTrack	11.3	WolfelabSpurzheim	20101105.110617	20101105.111358	8	0.011767	60	10	60-180	60	176	GapExp	0	74	2	0	0	distractor	1	543	729	73630	11.765	11.754	11.777
ProbeTrack12	9	ProbeTrack	11.3	WolfelabSpurzheim	20101105.110617	20101105.111405	8	0.011767	60	0	60-180	60	108	GapExp	0	75	2	0	1	target	1	591	705	74335	11.765	11.754	11.776
ProbeTrack12	9	ProbeTrack	11.3	WolfelabSpurzheim	20101105.110617	20101105.111411	8	0.011767	60	0	60-180	60	160	GapExp	0	76	2	0	0	distractor	1	544	728	75063	11.765	11.755	11.777
ProbeTrack12	9	ProbeTrack	11.3	WolfelabSpurzheim	20101105.110617	20101105.111417	8	0.011767	60	10	60-180	60	178	GapExp	0	77	2	45	0	distractor	1	614	693	75756	11.765	11.726	11.799
ProbeTrack12	9	ProbeTrack	11.3	WolfelabSpurzheim	20101105.110617	20101105.111424	8	0.011767	60	10	60-180	60	125	GapExp	0	78	2	1	1	target	1	614	693	76449	11.765	11.722	11.806
ProbeTrack12	9	ProbeTrack	11.3	WolfelabSpurzheim	20101105.110617	20101105.111430	8	0.011767	60	0	60-180	60	135	GapExp	0	79	2	3	1	target	1	532	734	77183	11.765	11.753	11.777
ProbeTrack12	9	ProbeTrack	11.3	WolfelabSpurzheim	20101105.110617	20101105.111436	8	0.011767	60	0	60-180	60	95	GapExp	0	80	2	3	1	target	1	543	729	77912	11.765	11.750	11.785
ProbeTrack12	9	ProbeTrack	11.3	WolfelabSpurzheim	20101105.110617	20101105.111441	8	0.011767	60	0	60-180	60	131	GapExp	0	81	2	0	1	target	1	544	728	78640	11.765	11.755	11.776
ProbeTrack12	9	ProbeTrack	11.3	WolfelabSpurzheim	20101105.110617	20101105.111447	8	0.011767	60	0	60-180	60	135	GapExp	0	82	2	0	0	distractor	1	461	770	79410	11.765	11.732	11.791
ProbeTrack12	9	ProbeTrack	11.3	WolfelabSpurzheim	20101105.110617	20101105.111452	8	0.011767	60	0	60-180	60	156	GapExp	0	83	2	1	1	target	1	391	805	80215	11.765	11.747	11.778
ProbeTrack12	9	ProbeTrack	11.3	WolfelabSpurzheim	20101105.110617	20101105.111458	8	0.011767	60	0	60-180	60	154	GapExp	0	84	2	0	1	target	1	496	752	80967	11.765	11.754	11.776
ProbeTrack12	9	ProbeTrack	11.3	WolfelabSpurzheim	20101105.110617	20101105.111504	8	0.011767	60	10	60-180	60	153	GapExp	0	85	2	1	0	distractor	1	567	717	81684	11.765	11.736	11.794
ProbeTrack12	9	ProbeTrack	11.3	WolfelabSpurzheim	20101105.110617	20101105.111510	8	0.011767	60	10	60-180	60	70	GapExp	0	86	2	3	0	distractor	1	567	717	82401	11.765	11.752	11.775
ProbeTrack12	9	ProbeTrack	11.3	WolfelabSpurzheim	20101105.110617	20101105.111517	8	0.011767	60	0	60-180	60	82	GapExp	0	87	2	45	0	44	-3	861	-1000	81401	11.765	11.754	11.777
ProbeTrack12	9	ProbeTrack	11.3	WolfelabSpurzheim	20101105.110617	20101105.111523	8	0.011767	60	10	60-180	60	153	GapExp	0	88	2	1	1	target	1	473	764	82165	11.765	11.732	11.794
ProbeTrack12	9	ProbeTrack	11.3	WolfelabSpurzheim	20101105.110617	20101105.111530	8	0.011767	60	0	60-180	60	89	GapExp	0	89	2	1	1	target	1	543	729	82894	11.765	11.755	11.776
ProbeTrack12	9	ProbeTrack	11.3	WolfelabSpurzheim	20101105.110617	20101105.111535	8	0.011767	60	0	60-180	60	102	GapExp	0	90	2	3	0	distractor	1	567	717	83611	11.765	11.754	11.775
ProbeTrack12	9	ProbeTrack	11.3	WolfelabSpurzheim	20101105.110617	20101105.111540	8	0.011767	60	0	60-180	60	170	GapExp	0	91	2	0	0	distractor	1	579	711	84322	11.765	11.753	11.777
ProbeTrack12	9	ProbeTrack	11.3	WolfelabSpurzheim	20101105.110617	20101105.111547	8	0.011767	60	10	60-180	60	113	GapExp	0	92	2	0	0	distractor	1	614	693	85015	11.765	11.753	11.776
ProbeTrack12	9	ProbeTrack	11.3	WolfelabSpurzheim	20101105.110617	20101105.111553	8	0.011767	60	10	60-180	60	151	GapExp	0	93	2	0	1	target	1	1449	276	85291	11.765	11.753	11.776
ProbeTrack12	9	ProbeTrack	11.3	WolfelabSpurzheim	20101105.110617	20101105.111600	8	0.011767	60	0	60-180	60	156	GapExp	0	94	2	3	1	target	1	332	834	86125	11.765	11.754	11.778
ProbeTrack12	9	ProbeTrack	11.3	WolfelabSpurzheim	20101105.110617	20101105.111606	8	0.011767	60	10	60-180	60	143	GapExp	0	95	2	3	1	distractor	0	449	-1000	85125	11.765	11.753	11.776
ProbeTrack12	9	ProbeTrack	11.3	WolfelabSpurzheim	20101105.110617	20101105.111612	8	0.011767	60	0	60-180	60	96	GapExp	0	96	2	45	0	distractor	1	673	664	85789	11.765	11.754	11.777
ProbeTrack12	9	ProbeTrack	11.3	WolfelabSpurzheim	20101105.110617	20101105.111619	8	0.011767	60	10	60-180	60	87	GapExp	0	97	2	3	1	target	1	531	735	86524	11.765	11.753	11.776
ProbeTrack12	9	ProbeTrack	11.3	WolfelabSpurzheim	20101105.110617	20101105.111624	8	0.011767	60	10	60-180	60	88	GapExp	0	98	2	3	1	target	1	461	770	87294	11.765	11.754	11.775
ProbeTrack12	9	ProbeTrack	11.3	WolfelabSpurzheim	20101105.110617	20101105.111629	8	0.011767	60	10	60-180	60	95	GapExp	0	99	2	3	1	target	1	426	787	88081	11.765	11.716	11.819
ProbeTrack12	9	ProbeTrack	11.3	WolfelabSpurzheim	20101105.110617	20101105.111635	8	0.011767	60	10	60-180	60	137	GapExp	0	100	2	0	1	target	1	579	711	88792	11.765	11.752	11.776
ProbeTrack12	9	ProbeTrack	11.3	WolfelabSpurzheim	20101105.110617	20101105.111641	8	0.011767	60	0	60-180	60	70	GapExp	0	101	2	1	1	target	1	555	723	89515	11.765	11.753	11.775
ProbeTrack12	9	ProbeTrack	11.3	WolfelabSpurzheim	20101105.110617	20101105.111646	8	0.011767	60	0	60-180	60	128	GapExp	0	102	2	1	1	target	1	567	717	90232	11.765	11.747	11.783
ProbeTrack12	9	ProbeTrack	11.3	WolfelabSpurzheim	20101105.110617	20101105.111652	8	0.011767	60	10	60-180	60	89	GapExp	0	103	2	45	1	target	1	461	770	91002	11.765	11.755	11.777
ProbeTrack12	9	ProbeTrack	11.3	WolfelabSpurzheim	20101105.110617	20101105.111658	8	0.011767	60	0	60-180	60	151	GapExp	0	104	2	45	1	target	1	426	787	91789	11.765	11.752	11.776
ProbeTrack12	9	ProbeTrack	11.3	WolfelabSpurzheim	20101105.110617	20101105.111705	8	0.011767	60	0	60-180	60	154	GapExp	0	105	2	45	1	target	1	402	799	92588	11.765	11.751	11.777
ProbeTrack12	9	ProbeTrack	11.3	WolfelabSpurzheim	20101105.110617	20101105.111711	8	0.011767	60	0	60-180	60	157	GapExp	0	106	2	1	0	distractor	1	544	728	93316	11.765	11.755	11.776
ProbeTrack12	9	ProbeTrack	11.3	WolfelabSpurzheim	20101105.110617	20101105.111717	8	0.011767	60	10	60-180	60	175	GapExp	0	107	2	45	0	distractor	1	814	593	93909	11.765	11.754	11.776
ProbeTrack12	9	ProbeTrack	11.3	WolfelabSpurzheim	20101105.110617	20101105.111724	8	0.011767	60	0	60-180	60	74	GapExp	0	108	2	45	1	target	1	532	734	94643	11.765	11.754	11.778
ProbeTrack12	9	ProbeTrack	11.3	WolfelabSpurzheim	20101105.110617	20101105.111730	8	0.011767	60	0	60-180	60	108	GapExp	0	109	2	1	1	target	1	532	734	95377	11.765	11.753	11.777
ProbeTrack12	9	ProbeTrack	11.3	WolfelabSpurzheim	20101105.110617	20101105.111736	8	0.011767	60	10	60-180	60	151	GapExp	0	110	2	1	0	distractor	1	532	734	96111	11.765	11.752	11.776
ProbeTrack12	9	ProbeTrack	11.3	WolfelabSpurzheim	20101105.110617	20101105.111742	8	0.011767	60	0	60-180	60	83	GapExp	0	111	2	0	1	target	1	461	770	96881	11.765	11.733	11.804
ProbeTrack12	9	ProbeTrack	11.3	WolfelabSpurzheim	20101105.110617	20101105.111747	8	0.011767	60	0	60-180	60	107	GapExp	0	112	2	1	0	distractor	1	485	758	97639	11.765	11.748	11.777
ProbeTrack12	9	ProbeTrack	11.3	WolfelabSpurzheim	20101105.110617	20101105.111752	8	0.011767	60	0	60-180	60	110	GapExp	0	113	2	1	0	distractor	1	626	687	98326	11.765	11.740	11.791
ProbeTrack12	9	ProbeTrack	11.3	WolfelabSpurzheim	20101105.110617	20101105.111757	8	0.011767	60	0	60-180	60	73	GapExp	0	114	2	45	0	distractor	1	579	711	99037	11.765	11.754	11.776
ProbeTrack12	9	ProbeTrack	11.3	WolfelabSpurzheim	20101105.110617	20101105.111803	8	0.011767	60	0	60-180	60	121	GapExp	0	115	2	0	1	target	1	661	670	99707	11.765	11.739	11.790
ProbeTrack12	9	ProbeTrack	11.3	WolfelabSpurzheim	20101105.110617	20101105.111809	8	0.011767	60	0	60-180	60	160	GapExp	0	116	2	45	0	distractor	1	603	699	100406	11.765	11.753	11.777
ProbeTrack12	9	ProbeTrack	11.3	WolfelabSpurzheim	20101105.110617	20101105.111816	8	0.011767	60	0	60-180	60	126	GapExp	0	117	2	3	0	distractor	1	555	723	101129	11.765	11.713	11.809
ProbeTrack12	9	ProbeTrack	11.3	WolfelabSpurzheim	20101105.110617	20101105.111821	8	0.011767	60	10	60-180	60	87	GapExp	0	118	2	3	0	distractor	1	567	717	101846	11.765	11.754	11.776
ProbeTrack12	9	ProbeTrack	11.3	WolfelabSpurzheim	20101105.110617	20101105.111827	8	0.011767	60	0	60-180	60	96	GapExp	0	119	2	1	0	distractor	1	766	617	102463	11.765	11.726	11.803
ProbeTrack12	9	ProbeTrack	11.3	WolfelabSpurzheim	20101105.110617	20101105.111832	8	0.011767	60	0	60-180	60	172	GapExp	0	120	2	0	1	target	1	437	782	103245	11.765	11.754	11.777
ProbeTrack12	9	ProbeTrack	11.3	WolfelabSpurzheim	20101105.110617	20101105.111838	8	0.011767	60	10	60-180	60	103	GapExp	0	121	2	3	1	target	1	438	781	104026	11.765	11.754	11.776
ProbeTrack12	9	ProbeTrack	11.3	WolfelabSpurzheim	20101105.110617	20101105.111844	8	0.011767	60	10	60-180	60	77	GapExp	0	122	2	45	0	distractor	1	614	693	104719	11.765	11.753	11.777
ProbeTrack12	9	ProbeTrack	11.3	WolfelabSpurzheim	20101105.110617	20101105.111850	8	0.011767	60	10	60-180	60	155	GapExp	0	123	2	45	1	target	1	661	670	105389	11.765	11.753	11.777
ProbeTrack12	9	ProbeTrack	11.3	WolfelabSpurzheim	20101105.110617	20101105.111857	8	0.011767	60	0	60-180	60	84	GapExp	0	124	2	45	0	distractor	1	650	675	106064	11.765	11.755	11.775
ProbeTrack12	9	ProbeTrack	11.3	WolfelabSpurzheim	20101105.110617	20101105.111903	8	0.011767	60	10	60-180	60	107	GapExp	0	125	2	0	0	distractor	1	638	681	106745	11.765	11.755	11.777
ProbeTrack12	9	ProbeTrack	11.3	WolfelabSpurzheim	20101105.110617	20101105.111909	8	0.011767	60	10	60-180	60	90	GapExp	0	126	2	3	1	target	1	508	746	107491	11.765	11.754	11.777
ProbeTrack12	9	ProbeTrack	11.3	WolfelabSpurzheim	20101105.110617	20101105.111915	8	0.011767	60	10	60-180	60	112	GapExp	0	127	2	45	0	distractor	1	556	722	108213	11.765	11.753	11.776
ProbeTrack12	9	ProbeTrack	11.3	WolfelabSpurzheim	20101105.110617	20101105.111921	8	0.011767	60	10	60-180	60	144	GapExp	0	128	2	1	0	distractor	1	544	728	108941	11.765	11.754	11.777
ProbeTrack12	9	ProbeTrack	11.3	WolfelabSpurzheim	20101105.110617	20101105.111927	8	0.011767	60	10	60-180	60	85	GapExp	0	129	2	0	0	distractor	1	567	717	109658	11.765	11.753	11.776
ProbeTrack12	9	ProbeTrack	11.3	WolfelabSpurzheim	20101105.110617	20101105.111933	8	0.011767	60	10	60-180	60	119	GapExp	0	130	2	3	0	distractor	1	661	670	110328	11.765	11.754	11.775
ProbeTrack12	9	ProbeTrack	11.3	WolfelabSpurzheim	20101105.110617	20101105.111939	8	0.011767	60	0	60-180	60	66	GapExp	0	131	2	3	1	target	1	673	664	110992	11.765	11.754	11.778
ProbeTrack12	9	ProbeTrack	11.3	WolfelabSpurzheim	20101105.110617	20101105.111944	8	0.011767	60	10	60-180	60	112	GapExp	0	132	2	0	1	target	1	484	758	111750	11.765	11.753	11.775
ProbeTrack12	9	ProbeTrack	11.3	WolfelabSpurzheim	20101105.110617	20101105.111950	8	0.011767	60	0	60-180	60	105	GapExp	0	133	2	45	1	target	1	485	758	112508	11.765	11.754	11.775
ProbeTrack12	9	ProbeTrack	11.3	WolfelabSpurzheim	20101105.110617	20101105.111956	8	0.011767	60	0	60-180	60	89	GapExp	0	134	2	3	0	distractor	1	661	670	113178	11.765	11.752	11.778
ProbeTrack12	9	ProbeTrack	11.3	WolfelabSpurzheim	20101105.110617	20101105.112001	8	0.011767	60	0	60-180	60	102	GapExp	0	135	2	1	0	distractor	1	614	693	113871	11.765	11.738	11.799
ProbeTrack12	9	ProbeTrack	11.3	WolfelabSpurzheim	20101105.110617	20101105.112007	8	0.011767	60	10	60-180	60	145	GapExp	0	136	2	45	1	target	1	544	728	114599	11.765	11.751	11.776
ProbeTrack12	9	ProbeTrack	11.3	WolfelabSpurzheim	20101105.110617	20101105.112013	8	0.011767	60	10	60-180	60	122	GapExp	0	137	2	0	1	distractor	0	861	-1000	113599	11.765	11.742	11.778
ProbeTrack12	9	ProbeTrack	11.3	WolfelabSpurzheim	20101105.110617	20101105.112020	8	0.011767	60	10	60-180	60	114	GapExp	0	138	2	0	0	distractor	1	731	635	114234	11.765	11.754	11.775
ProbeTrack12	9	ProbeTrack	11.3	WolfelabSpurzheim	20101105.110617	20101105.112026	8	0.011767	60	0	60-180	60	168	GapExp	0	139	2	45	1	target	1	531	735	114969	11.765	11.753	11.776
ProbeTrack12	9	ProbeTrack	11.3	WolfelabSpurzheim	20101105.110617	20101105.112033	8	0.011767	60	10	60-180	60	134	GapExp	0	140	2	1	1	target	1	449	776	115745	11.765	11.745	11.786
ProbeTrack12	9	ProbeTrack	11.3	WolfelabSpurzheim	20101105.110617	20101105.112039	8	0.011767	60	10	60-180	60	80	GapExp	0	141	2	1	0	distractor	1	778	611	116356	11.765	11.754	11.777
ProbeTrack12	9	ProbeTrack	11.3	WolfelabSpurzheim	20101105.110617	20101105.112044	8	0.011767	60	0	60-180	60	82	GapExp	0	142	2	1	1	target	1	450	775	117131	11.765	11.754	11.777
ProbeTrack12	9	ProbeTrack	11.3	WolfelabSpurzheim	20101105.110617	20101105.112049	8	0.011767	60	10	60-180	60	159	GapExp	0	143	2	1	0	distractor	1	579	711	117842	11.765	11.753	11.776
ProbeTrack12	9	ProbeTrack	11.3	WolfelabSpurzheim	20101105.110617	20101105.112055	8	0.011767	60	0	60-180	60	154	GapExp	0	144	2	45	0	distractor	1	579	711	118553	11.765	11.754	11.776
ProbeTrack12	9	ProbeTrack	11.3	WolfelabSpurzheim	20101105.110617	20101105.112102	8	0.011767	60	0	60-180	60	123	GapExp	0	145	2	1	0	distractor	1	520	740	119293	11.765	11.755	11.780
ProbeTrack12	9	ProbeTrack	11.3	WolfelabSpurzheim	20101105.110617	20101105.112108	8	0.011767	60	0	60-180	60	113	GapExp	0	146	2	0	0	distractor	1	543	729	120022	11.765	11.753	11.776
ProbeTrack12	9	ProbeTrack	11.3	WolfelabSpurzheim	20101105.110617	20101105.112113	8	0.011767	60	0	60-180	60	176	GapExp	0	147	2	0	0	distractor	1	555	723	120745	11.765	11.752	11.776
ProbeTrack12	9	ProbeTrack	11.3	WolfelabSpurzheim	20101105.110617	20101105.112119	8	0.011767	60	0	60-180	60	119	GapExp	0	148	2	45	0	distractor	1	508	746	121491	11.765	11.738	11.797
ProbeTrack12	9	ProbeTrack	11.3	WolfelabSpurzheim	20101105.110617	20101105.112126	8	0.011767	60	0	60-180	60	102	GapExp	0	149	2	0	1	target	1	614	693	122184	11.765	11.755	11.776
ProbeTrack12	9	ProbeTrack	11.3	WolfelabSpurzheim	20101105.110617	20101105.112131	8	0.011767	60	0	60-180	60	159	GapExp	0	150	2	45	0	distractor	1	602	699	122883	11.765	11.754	11.776
ProbeTrack12	9	ProbeTrack	11.3	WolfelabSpurzheim	20101105.110617	20101105.112138	8	0.011767	60	10	60-180	60	136	GapExp	0	151	2	45	1	target	1	719	641	123524	11.765	11.734	11.791
ProbeTrack12	9	ProbeTrack	11.3	WolfelabSpurzheim	20101105.110617	20101105.112145	8	0.011767	60	0	60-180	60	153	GapExp	0	152	2	3	1	distractor	0	602	-1000	122524	11.765	11.754	11.777
ProbeTrack12	9	ProbeTrack	11.3	WolfelabSpurzheim	20101105.110617	20101105.112151	8	0.011767	60	0	60-180	60	142	GapExp	0	153	2	1	1	target	1	497	752	123276	11.765	11.754	11.776
ProbeTrack12	9	ProbeTrack	11.3	WolfelabSpurzheim	20101105.110617	20101105.112157	8	0.011767	60	0	60-180	60	72	GapExp	0	154	2	0	0	distractor	1	743	629	123905	11.765	11.752	11.776
ProbeTrack12	9	ProbeTrack	11.3	WolfelabSpurzheim	20101105.110617	20101105.112202	8	0.011767	60	0	60-180	60	134	GapExp	0	155	2	45	1	target	1	591	705	124610	11.765	11.753	11.776
ProbeTrack12	9	ProbeTrack	11.3	WolfelabSpurzheim	20101105.110617	20101105.112209	8	0.011767	60	0	60-180	60	167	GapExp	0	156	2	1	0	distractor	1	591	705	125315	11.765	11.755	11.778
ProbeTrack12	9	ProbeTrack	11.3	WolfelabSpurzheim	20101105.110617	20101105.112215	8	0.011767	60	10	60-180	60	63	GapExp	0	157	2	1	1	target	1	485	758	126073	11.765	11.735	11.794
ProbeTrack12	9	ProbeTrack	11.3	WolfelabSpurzheim	20101105.110617	20101105.112220	8	0.011767	60	10	60-180	60	105	GapExp	0	158	2	0	0	distractor	1	579	711	126784	11.765	11.750	11.779
ProbeTrack12	9	ProbeTrack	11.3	WolfelabSpurzheim	20101105.110617	20101105.112226	8	0.011767	60	10	60-180	60	149	GapExp	0	159	2	0	1	target	1	614	693	127477	11.765	11.754	11.777
ProbeTrack12	9	ProbeTrack	11.3	WolfelabSpurzheim	20101105.110617	20101105.112232	8	0.011767	60	0	60-180	60	114	GapExp	0	160	2	0	1	target	1	508	746	128223	11.765	11.753	11.776
ProbeTrack12	9	ProbeTrack	11.3	WolfelabSpurzheim	20101105.110617	20101105.112238	8	0.011767	60	10	60-180	60	84	GapExp	0	161	2	3	1	target	1	661	670	128893	11.765	11.754	11.775
ProbeTrack12	9	ProbeTrack	11.3	WolfelabSpurzheim	20101105.110617	20101105.112243	8	0.011767	60	0	60-180	60	147	GapExp	0	162	2	0	0	distractor	1	661	670	129563	11.765	11.754	11.778
ProbeTrack12	9	ProbeTrack	11.3	WolfelabSpurzheim	20101105.110617	20101105.112249	8	0.011767	60	0	60-180	60	104	GapExp	0	163	2	45	1	target	1	367	817	130380	11.765	11.732	11.797
ProbeTrack12	9	ProbeTrack	11.3	WolfelabSpurzheim	20101105.110617	20101105.112255	8	0.011767	60	0	60-180	60	97	GapExp	0	164	2	1	0	distractor	1	578	711	131091	11.765	11.755	11.776
ProbeTrack12	9	ProbeTrack	11.3	WolfelabSpurzheim	20101105.110617	20101105.112301	8	0.011767	60	10	60-180	60	166	GapExp	0	165	2	0	1	target	1	521	740	131831	11.765	11.753	11.777
ProbeTrack12	9	ProbeTrack	11.3	WolfelabSpurzheim	20101105.110617	20101105.112308	8	0.011767	60	10	60-180	60	93	GapExp	0	166	2	0	1	target	1	484	758	132589	11.765	11.754	11.776
ProbeTrack12	9	ProbeTrack	11.3	WolfelabSpurzheim	20101105.110617	20101105.112313	8	0.011767	60	0	60-180	60	83	GapExp	0	167	2	45	1	target	1	438	781	133370	11.765	11.754	11.776
ProbeTrack12	9	ProbeTrack	11.3	WolfelabSpurzheim	20101105.110617	20101105.112319	8	0.011767	60	0	60-180	60	150	GapExp	0	168	2	1	1	target	1	461	770	134140	11.765	11.755	11.777
ProbeTrack12	9	ProbeTrack	11.3	WolfelabSpurzheim	20101105.110617	20101105.112325	8	0.011767	60	0	60-180	60	178	GapExp	0	169	2	45	0	distractor	1	543	729	134869	11.765	11.753	11.778
ProbeTrack12	9	ProbeTrack	11.3	WolfelabSpurzheim	20101105.110617	20101105.112332	8	0.011767	60	0	60-180	60	179	GapExp	0	170	2	1	1	target	1	461	770	135639	11.765	11.753	11.776
ProbeTrack12	9	ProbeTrack	11.3	WolfelabSpurzheim	20101105.110617	20101105.112338	8	0.011767	60	0	60-180	60	78	GapExp	0	171	2	3	1	target	1	556	722	136361	11.765	11.754	11.776
ProbeTrack12	9	ProbeTrack	11.3	WolfelabSpurzheim	20101105.110617	20101105.112343	8	0.011767	60	10	60-180	60	178	GapExp	0	172	2	1	0	distractor	1	638	681	137042	11.765	11.754	11.776
ProbeTrack12	9	ProbeTrack	11.3	WolfelabSpurzheim	20101105.110617	20101105.112350	8	0.011767	60	10	60-180	60	80	GapExp	0	173	2	45	0	distractor	1	508	746	137788	11.765	11.718	11.807
ProbeTrack12	9	ProbeTrack	11.3	WolfelabSpurzheim	20101105.110617	20101105.112356	8	0.011767	60	10	60-180	60	115	GapExp	0	174	2	0	1	target	1	508	746	138534	11.765	11.721	11.805
ProbeTrack12	9	ProbeTrack	11.3	WolfelabSpurzheim	20101105.110617	20101105.112401	8	0.011767	60	10	60-180	60	129	GapExp	0	175	2	3	0	distractor	1	731	635	139169	11.765	11.754	11.777
ProbeTrack12	9	ProbeTrack	11.3	WolfelabSpurzheim	20101105.110617	20101105.112407	8	0.011767	60	0	60-180	60	165	GapExp	0	176	2	45	1	target	1	544	728	139897	11.765	11.754	11.775
ProbeTrack12	9	ProbeTrack	11.3	WolfelabSpurzheim	20101105.110617	20101105.112414	8	0.011767	60	10	60-180	60	170	GapExp	0	177	2	3	1	target	1	426	787	140684	11.765	11.739	11.789
ProbeTrack12	9	ProbeTrack	11.3	WolfelabSpurzheim	20101105.110617	20101105.112421	8	0.011767	60	10	60-180	60	66	GapExp	0	178	2	45	1	target	1	520	740	141424	11.765	11.754	11.776
ProbeTrack12	9	ProbeTrack	11.3	WolfelabSpurzheim	20101105.110617	20101105.112427	8	0.011767	60	0	60-180	60	142	GapExp	0	179	2	3	1	target	1	473	764	142188	11.765	11.753	11.776
ProbeTrack12	9	ProbeTrack	11.3	WolfelabSpurzheim	20101105.110617	20101105.112432	8	0.011767	60	10	60-180	60	169	GapExp	0	180	2	3	0	distractor	1	579	711	142899	11.765	11.754	11.778
ProbeTrack12	9	ProbeTrack	11.3	WolfelabSpurzheim	20101105.110617	20101105.112439	8	0.011767	60	0	60-180	60	62	GapExp	0	181	2	0	0	distractor	1	743	629	143528	11.765	11.754	11.777
ProbeTrack12	9	ProbeTrack	11.3	WolfelabSpurzheim	20101105.110617	20101105.112444	8	0.011767	60	0	60-180	60	108	GapExp	0	182	2	0	0	distractor	1	579	711	144239	11.765	11.754	11.776
ProbeTrack12	9	ProbeTrack	11.3	WolfelabSpurzheim	20101105.110617	20101105.112450	8	0.011767	60	10	60-180	60	119	GapExp	0	183	2	3	0	distractor	1	614	693	144932	11.765	11.754	11.776
ProbeTrack12	9	ProbeTrack	11.3	WolfelabSpurzheim	20101105.110617	20101105.112455	8	0.011767	60	0	60-180	60	76	GapExp	0	184	2	3	0	distractor	1	684	658	145590	11.765	11.753	11.775
ProbeTrack12	9	ProbeTrack	11.3	WolfelabSpurzheim	20101105.110617	20101105.112501	8	0.011767	60	10	60-180	60	75	GapExp	0	185	2	1	1	target	1	438	781	146371	11.765	11.727	11.809
ProbeTrack12	9	ProbeTrack	11.3	WolfelabSpurzheim	20101105.110617	20101105.112506	8	0.011767	60	10	60-180	60	90	GapExp	0	186	2	45	1	target	1	496	752	147123	11.765	11.752	11.780
ProbeTrack12	9	ProbeTrack	11.3	WolfelabSpurzheim	20101105.110617	20101105.112512	8	0.011767	60	10	60-180	60	175	GapExp	0	187	2	3	1	target	1	532	734	147857	11.765	11.735	11.789
ProbeTrack12	9	ProbeTrack	11.3	WolfelabSpurzheim	20101105.110617	20101105.112518	8	0.011767	60	10	60-180	60	166	GapExp	0	188	2	1	0	distractor	1	579	711	148568	11.765	11.753	11.776
ProbeTrack12	9	ProbeTrack	11.3	WolfelabSpurzheim	20101105.110617	20101105.112525	8	0.011767	60	0	60-180	60	167	GapExp	0	189	2	1	1	target	1	590	705	149273	11.765	11.753	11.777
ProbeTrack12	9	ProbeTrack	11.3	WolfelabSpurzheim	20101105.110617	20101105.112531	8	0.011767	60	0	60-180	60	76	GapExp	0	190	2	0	1	target	1	637	682	149955	11.765	11.755	11.775
ProbeTrack12	9	ProbeTrack	11.3	WolfelabSpurzheim	20101105.110617	20101105.112536	8	0.011767	60	10	60-180	60	152	GapExp	0	191	2	1	1	target	1	520	740	150695	11.765	11.753	11.775
ProbeTrack12	9	ProbeTrack	11.3	WolfelabSpurzheim	20101105.110617	20101105.112542	8	0.011767	60	10	60-180	60	117	GapExp	0	192	2	0	0	target	0	649	-1000	149695	11.765	11.754	11.777
ProbeTrack12	9	ProbeTrack	11.3	WolfelabSpurzheim	20101105.110617	20101105.112548	8	0.011767	60	10	60-180	60	76	GapExp	0	193	2	0	0	distractor	1	708	646	150341	11.765	11.752	11.775
ProbeTrack12	9	ProbeTrack	11.3	WolfelabSpurzheim	20101105.110617	20101105.112553	8	0.011767	60	10	60-180	60	127	GapExp	0	194	2	1	1	target	1	731	635	150976	11.765	11.754	11.777
ProbeTrack12	9	ProbeTrack	11.3	WolfelabSpurzheim	20101105.110617	20101105.112600	8	0.011767	60	0	60-180	60	146	GapExp	0	195	2	3	1	target	1	567	717	151693	11.765	11.753	11.775
ProbeTrack12	9	ProbeTrack	11.3	WolfelabSpurzheim	20101105.110617	20101105.112606	8	0.011767	60	10	60-180	60	78	GapExp	0	196	2	0	0	distractor	1	661	670	152363	11.765	11.754	11.775
ProbeTrack12	9	ProbeTrack	11.3	WolfelabSpurzheim	20101105.110617	20101105.112611	8	0.011767	60	10	60-180	60	127	GapExp	0	197	2	3	0	distractor	1	590	705	153068	11.765	11.754	11.775
ProbeTrack12	9	ProbeTrack	11.3	WolfelabSpurzheim	20101105.110617	20101105.112617	8	0.011767	60	10	60-180	60	153	GapExp	0	198	2	3	1	target	1	450	775	153843	11.765	11.754	11.776
ProbeTrack12	9	ProbeTrack	11.3	WolfelabSpurzheim	20101105.110617	20101105.112624	8	0.011767	60	0	60-180	60	115	GapExp	0	199	2	0	1	target	1	473	764	154607	11.765	11.748	11.783
ProbeTrack12	9	ProbeTrack	11.3	WolfelabSpurzheim	20101105.110617	20101105.112629	8	0.011767	60	0	60-180	60	119	GapExp	0	200	2	3	1	target	1	402	799	155406	11.765	11.721	11.809
ProbeTrack12	9	ProbeTrack	11.3	WolfelabSpurzheim	20101105.110617	20101105.112634	8	0.011767	60	10	60-180	60	157	GapExp	0	201	2	3	1	target	1	391	805	156211	11.765	11.753	11.777
ProbeTrack12	9	ProbeTrack	11.3	WolfelabSpurzheim	20101105.110617	20101105.112640	8	0.011767	60	0	60-180	60	135	GapExp	0	202	2	0	1	target	1	473	764	156975	11.765	11.732	11.801
ProbeTrack12	9	ProbeTrack	11.3	WolfelabSpurzheim	20101105.110617	20101105.112646	8	0.011767	60	10	60-180	60	134	GapExp	0	203	2	45	1	target	1	473	764	157739	11.765	11.754	11.777
ProbeTrack12	9	ProbeTrack	11.3	WolfelabSpurzheim	20101105.110617	20101105.112652	8	0.011767	60	10	60-180	60	103	GapExp	0	204	2	0	1	target	1	461	770	158509	11.765	11.754	11.777
ProbeTrack12	9	ProbeTrack	11.3	WolfelabSpurzheim	20101105.110617	20101105.112658	8	0.011767	60	0	60-180	60	103	GapExp	0	205	2	45	1	target	1	485	758	159267	11.765	11.754	11.775
ProbeTrack12	9	ProbeTrack	11.3	WolfelabSpurzheim	20101105.110617	20101105.112704	8	0.011767	60	0	60-180	60	161	GapExp	0	206	2	1	0	distractor	1	590	705	159972	11.765	11.730	11.802
ProbeTrack12	9	ProbeTrack	11.3	WolfelabSpurzheim	20101105.110617	20101105.112713	8	0.011767	60	10	60-180	60	160	GapExp	0	207	2	1	1	target	1	496	752	160724	11.765	11.754	11.776
ProbeTrack12	9	ProbeTrack	11.3	WolfelabSpurzheim	20101105.110617	20101105.112719	8	0.011767	60	10	60-180	60	119	GapExp	0	208	2	45	0	distractor	1	496	752	161476	11.765	11.754	11.777
ProbeTrack12	9	ProbeTrack	11.3	WolfelabSpurzheim	20101105.110617	20101105.112725	8	0.011767	60	10	60-180	60	82	GapExp	0	209	2	0	0	distractor	1	520	740	162216	11.765	11.753	11.777
ProbeTrack12	9	ProbeTrack	11.3	WolfelabSpurzheim	20101105.110617	20101105.112731	8	0.011767	60	0	60-180	60	86	GapExp	0	210	2	3	0	distractor	1	591	705	162921	11.765	11.754	11.776
ProbeTrack12	9	ProbeTrack	11.3	WolfelabSpurzheim	20101105.110617	20101105.112736	8	0.011767	60	10	60-180	60	102	GapExp	0	211	2	45	1	distractor	0	579	-1000	161921	11.765	11.754	11.777
ProbeTrack12	9	ProbeTrack	11.3	WolfelabSpurzheim	20101105.110617	20101105.112742	8	0.011767	60	0	60-180	60	153	GapExp	0	212	2	1	0	distractor	1	567	717	162638	11.765	11.755	11.776
ProbeTrack12	9	ProbeTrack	11.3	WolfelabSpurzheim	20101105.110617	20101105.112749	8	0.011767	60	10	60-180	60	112	GapExp	0	213	2	1	0	distractor	1	544	728	163366	11.765	11.753	11.778
ProbeTrack12	9	ProbeTrack	11.3	WolfelabSpurzheim	20101105.110617	20101105.112755	8	0.011767	60	10	60-180	60	132	GapExp	0	214	2	3	1	target	1	449	776	164142	11.765	11.754	11.776
ProbeTrack12	9	ProbeTrack	11.3	WolfelabSpurzheim	20101105.110617	20101105.112801	8	0.011767	60	0	60-180	60	106	GapExp	0	215	2	45	0	distractor	1	567	717	164859	11.765	11.752	11.777
ProbeTrack12	9	ProbeTrack	11.3	WolfelabSpurzheim	20101105.110617	20101105.112808	8	0.011767	60	0	60-180	60	156	GapExp	0	216	2	1	0	distractor	1	544	728	165587	11.765	11.755	11.776
ProbeTrack12	9	ProbeTrack	11.3	WolfelabSpurzheim	20101105.110617	20101105.112814	8	0.011767	60	0	60-180	60	88	GapExp	0	217	2	3	0	distractor	1	579	711	166298	11.765	11.754	11.776
ProbeTrack12	9	ProbeTrack	11.3	WolfelabSpurzheim	20101105.110617	20101105.112819	8	0.011767	60	10	60-180	60	92	GapExp	0	218	2	0	1	target	1	766	617	166915	11.765	11.754	11.777
ProbeTrack12	9	ProbeTrack	11.3	WolfelabSpurzheim	20101105.110617	20101105.112824	8	0.011767	60	10	60-180	60	65	GapExp	0	219	2	45	0	distractor	1	532	734	167649	11.765	11.753	11.777
ProbeTrack12	9	ProbeTrack	11.3	WolfelabSpurzheim	20101105.110617	20101105.112831	8	0.011767	60	10	60-180	60	160	GapExp	0	220	2	45	0	distractor	1	696	652	168301	11.765	11.753	11.776
ProbeTrack12	9	ProbeTrack	11.3	WolfelabSpurzheim	20101105.110617	20101105.112838	8	0.011767	60	0	60-180	60	129	GapExp	0	221	2	3	1	target	1	520	740	169041	11.765	11.753	11.780
ProbeTrack12	9	ProbeTrack	11.3	WolfelabSpurzheim	20101105.110617	20101105.112844	8	0.011767	60	0	60-180	60	155	GapExp	0	222	2	0	1	target	1	520	740	169781	11.765	11.728	11.800
ProbeTrack12	9	ProbeTrack	11.3	WolfelabSpurzheim	20101105.110617	20101105.112850	8	0.011767	60	10	60-180	60	82	GapExp	0	223	2	0	0	distractor	1	579	711	170492	11.765	11.754	11.775
ProbeTrack12	9	ProbeTrack	11.3	WolfelabSpurzheim	20101105.110617	20101105.112856	8	0.011767	60	0	60-180	60	106	GapExp	0	224	2	0	0	distractor	1	555	723	171215	11.765	11.720	11.805
ProbeTrack12	9	ProbeTrack	11.3	WolfelabSpurzheim	20101105.110617	20101105.112902	8	0.011767	60	10	60-180	60	155	GapExp	0	225	2	0	1	target	1	579	711	171926	11.765	11.753	11.777
ProbeTrack12	9	ProbeTrack	11.3	WolfelabSpurzheim	20101105.110617	20101105.112908	8	0.011767	60	10	60-180	60	130	GapExp	0	226	2	3	1	target	1	426	787	172713	11.765	11.752	11.778
ProbeTrack12	9	ProbeTrack	11.3	WolfelabSpurzheim	20101105.110617	20101105.112914	8	0.011767	60	0	60-180	60	164	GapExp	0	227	2	1	0	distractor	1	520	740	173453	11.765	11.754	11.776
ProbeTrack12	9	ProbeTrack	11.3	WolfelabSpurzheim	20101105.110617	20101105.112920	8	0.011767	60	10	60-180	60	160	GapExp	0	228	2	45	1	target	1	473	764	174217	11.765	11.753	11.778
ProbeTrack12	9	ProbeTrack	11.3	WolfelabSpurzheim	20101105.110617	20101105.112926	8	0.011767	60	10	60-180	60	67	GapExp	0	229	2	45	0	distractor	1	626	687	174904	11.765	11.754	11.782
ProbeTrack12	9	ProbeTrack	11.3	WolfelabSpurzheim	20101105.110617	20101105.112932	8	0.011767	60	0	60-180	60	67	GapExp	0	230	2	3	0	distractor	1	626	687	175591	11.765	11.738	11.789
ProbeTrack12	9	ProbeTrack	11.3	WolfelabSpurzheim	20101105.110617	20101105.112937	8	0.011767	60	0	60-180	60	66	GapExp	0	231	2	3	0	distractor	1	555	723	176314	11.765	11.736	11.791
ProbeTrack12	9	ProbeTrack	11.3	WolfelabSpurzheim	20101105.110617	20101105.112942	8	0.011767	60	10	60-180	60	176	GapExp	0	232	2	45	1	distractor	0	555	-1000	175314	11.765	11.732	11.802
ProbeTrack12	9	ProbeTrack	11.3	WolfelabSpurzheim	20101105.110617	20101105.112951	8	0.011767	60	10	60-180	60	158	GapExp	0	233	2	1	0	distractor	1	908	546	175860	11.765	11.753	11.777
ProbeTrack12	9	ProbeTrack	11.3	WolfelabSpurzheim	20101105.110617	20101105.112958	8	0.011767	60	0	60-180	60	78	GapExp	0	234	2	45	0	distractor	1	567	717	176577	11.765	11.754	11.776
ProbeTrack12	9	ProbeTrack	11.3	WolfelabSpurzheim	20101105.110617	20101105.113004	8	0.011767	60	0	60-180	60	139	GapExp	0	235	2	1	1	target	1	719	641	177218	11.765	11.753	11.778
ProbeTrack12	9	ProbeTrack	11.3	WolfelabSpurzheim	20101105.110617	20101105.113010	8	0.011767	60	0	60-180	60	144	GapExp	0	236	2	1	1	target	1	626	687	177905	11.765	11.754	11.776
ProbeTrack12	9	ProbeTrack	11.3	WolfelabSpurzheim	20101105.110617	20101105.113015	8	0.011767	60	0	60-180	60	125	GapExp	0	237	2	3	1	target	1	473	764	178669	11.765	11.747	11.783
ProbeTrack12	9	ProbeTrack	11.3	WolfelabSpurzheim	20101105.110617	20101105.113021	8	0.011767	60	0	60-180	60	143	GapExp	0	238	2	1	0	distractor	1	567	717	179386	11.765	11.753	11.776
ProbeTrack12	9	ProbeTrack	11.3	WolfelabSpurzheim	20101105.110617	20101105.113027	8	0.011767	60	10	60-180	60	63	GapExp	0	239	2	3	0	distractor	1	555	723	180109	11.765	11.754	11.775
ProbeTrack12	9	ProbeTrack	11.3	WolfelabSpurzheim	20101105.110617	20101105.113032	8	0.011767	60	0	60-180	60	87	GapExp	0	240	2	3	0	distractor	1	626	687	180796	11.765	11.753	11.777
ProbeTrack12	9	ProbeTrack	11.3	WolfelabSpurzheim	20101105.110617	20101105.113038	8	0.011767	60	0	60-180	60	70	GapExp	0	241	2	3	1	target	1	626	687	181483	11.765	11.754	11.776
ProbeTrack12	9	ProbeTrack	11.3	WolfelabSpurzheim	20101105.110617	20101105.113046	8	0.011767	60	0	60-180	60	101	GapExp	0	242	2	3	0	distractor	1	520	740	182223	11.765	11.753	11.776
ProbeTrack12	9	ProbeTrack	11.3	WolfelabSpurzheim	20101105.110617	20101105.113051	8	0.011767	60	0	60-180	60	151	GapExp	0	243	2	1	1	target	1	508	746	182969	11.765	11.754	11.776
ProbeTrack12	9	ProbeTrack	11.3	WolfelabSpurzheim	20101105.110617	20101105.113057	8	0.011767	60	0	60-180	60	93	GapExp	0	244	2	3	1	distractor	0	449	-1000	181969	11.765	11.753	11.777
ProbeTrack12	9	ProbeTrack	11.3	WolfelabSpurzheim	20101105.110617	20101105.113103	8	0.011767	60	10	60-180	60	176	GapExp	0	245	2	0	0	distractor	1	684	658	182627	11.765	11.753	11.776
ProbeTrack12	9	ProbeTrack	11.3	WolfelabSpurzheim	20101105.110617	20101105.113110	8	0.011767	60	10	60-180	60	143	GapExp	0	246	2	1	1	target	1	355	823	183450	11.765	11.726	11.805
ProbeTrack12	9	ProbeTrack	11.3	WolfelabSpurzheim	20101105.110617	20101105.113116	8	0.011767	60	0	60-180	60	172	GapExp	0	247	2	3	0	distractor	1	555	723	184173	11.765	11.737	11.792
ProbeTrack12	9	ProbeTrack	11.3	WolfelabSpurzheim	20101105.110617	20101105.113123	8	0.011767	60	10	60-180	60	61	GapExp	0	248	2	0	1	target	1	1013	494	184667	11.765	11.736	11.790
ProbeTrack12	9	ProbeTrack	11.3	WolfelabSpurzheim	20101105.110617	20101105.113128	8	0.011767	60	10	60-180	60	155	GapExp	0	249	2	45	0	distractor	1	591	705	185372	11.765	11.751	11.778
ProbeTrack12	9	ProbeTrack	11.3	WolfelabSpurzheim	20101105.110617	20101105.113135	8	0.011767	60	10	60-180	60	74	GapExp	0	250	2	3	0	distractor	1	567	717	186089	11.765	11.754	11.775
ProbeTrack12	9	ProbeTrack	11.3	WolfelabSpurzheim	20101105.113230	20101105.113236	8	0.011765	60	0	60-180	60	131	GapExp	1	1	2	3	1	target	1	555	723	186812	11.947	11.737	35.294
ProbeTrack12	9	ProbeTrack	11.3	WolfelabSpurzheim	20101105.113230	20101105.113243	8	0.011765	60	0	60-180	60	110	GapExp	1	2	2	0	0	distractor	1	614	693	187505	11.765	11.754	11.775
ProbeTrack12	9	ProbeTrack	11.3	WolfelabSpurzheim	20101105.113230	20101105.113249	8	0.011765	60	0	60-180	60	81	GapExp	1	3	2	45	0	distractor	1	508	746	188251	11.813	11.753	23.534
ProbeTrack12	9	ProbeTrack	11.3	WolfelabSpurzheim	20101105.113230	20101105.113255	8	0.011765	60	10	60-180	60	78	GapExp	1	4	2	3	1	target	1	532	734	188985	11.765	11.753	11.776
ProbeTrack12	9	ProbeTrack	11.3	WolfelabSpurzheim	20101105.113230	20101105.113300	8	0.011765	60	0	60-180	60	158	GapExp	1	5	2	1	1	target	1	390	805	189790	11.853	11.754	11.777
ProbeTrack12	9	ProbeTrack	11.3	WolfelabSpurzheim	20101105.113230	20101105.113306	8	0.011765	60	0	60-180	60	131	GapExp	1	6	2	45	1	target	1	520	740	190530	11.765	11.754	11.777
ProbeTrack12	9	ProbeTrack	11.3	WolfelabSpurzheim	20101105.113230	20101105.113312	8	0.011765	60	10	60-180	60	80	GapExp	1	7	2	3	0	distractor	1	602	699	191229	11.765	11.753	11.777
ProbeTrack12	9	ProbeTrack	11.3	WolfelabSpurzheim	20101105.113230	20101105.113318	8	0.011765	60	10	60-180	60	165	GapExp	1	8	2	0	0	distractor	1	532	734	191963	11.765	11.753	11.777
ProbeTrack12	9	ProbeTrack	11.3	WolfelabSpurzheim	20101105.113230	20101105.113324	8	0.011765	60	10	60-180	60	155	GapExp	1	9	2	0	1	target	1	449	776	192739	11.765	11.754	11.775
ProbeTrack12	9	ProbeTrack	11.3	WolfelabSpurzheim	20101105.113230	20101105.113330	8	0.011765	60	10	60-180	60	133	GapExp	1	10	2	1	0	distractor	1	602	699	193438	11.765	11.749	11.779
ProbeTrack12	9	ProbeTrack	11.3	WolfelabSpurzheim	20101105.113230	20101105.113336	8	0.011765	60	0	60-180	60	154	GapExp	0	11	2	45	1	target	1	438	781	194219	11.765	11.732	11.789
ProbeTrack12	9	ProbeTrack	11.3	WolfelabSpurzheim	20101105.113230	20101105.113342	8	0.011765	60	10	60-180	60	62	GapExp	0	12	2	3	0	distractor	1	544	728	194947	11.765	11.725	11.804
ProbeTrack12	9	ProbeTrack	11.3	WolfelabSpurzheim	20101105.113230	20101105.113347	8	0.011765	60	0	60-180	60	177	GapExp	0	13	2	1	1	target	1	485	758	195705	11.765	11.754	11.775
ProbeTrack12	9	ProbeTrack	11.3	WolfelabSpurzheim	20101105.113230	20101105.113353	8	0.011765	60	10	60-180	60	170	GapExp	0	14	2	3	1	target	1	637	682	196387	11.765	11.754	11.778
ProbeTrack12	9	ProbeTrack	11.3	WolfelabSpurzheim	20101105.113230	20101105.113400	8	0.011765	60	0	60-180	60	86	GapExp	0	15	2	3	0	distractor	1	590	705	197092	11.765	11.754	11.777
ProbeTrack12	9	ProbeTrack	11.3	WolfelabSpurzheim	20101105.113230	20101105.113405	8	0.011765	60	0	60-180	60	137	GapExp	0	16	2	0	1	target	1	508	746	197838	11.765	11.751	11.777
ProbeTrack12	9	ProbeTrack	11.3	WolfelabSpurzheim	20101105.113230	20101105.113411	8	0.011765	60	10	60-180	60	136	GapExp	0	17	2	1	0	distractor	1	661	670	198508	11.765	11.742	11.786
ProbeTrack12	9	ProbeTrack	11.3	WolfelabSpurzheim	20101105.113230	20101105.113417	8	0.011765	60	10	60-180	60	166	GapExp	0	18	2	3	1	target	1	438	781	199289	11.765	11.754	11.776
ProbeTrack12	9	ProbeTrack	11.3	WolfelabSpurzheim	20101105.113230	20101105.113423	8	0.011765	60	10	60-180	60	168	GapExp	0	19	2	0	1	target	1	403	799	200088	11.765	11.753	11.775
ProbeTrack12	9	ProbeTrack	11.3	WolfelabSpurzheim	20101105.113230	20101105.113430	8	0.011765	60	0	60-180	60	119	GapExp	0	20	2	0	0	distractor	1	543	729	200817	11.765	11.753	11.777
ProbeTrack12	9	ProbeTrack	11.3	WolfelabSpurzheim	20101105.113230	20101105.113435	8	0.011765	60	10	60-180	60	151	GapExp	0	21	2	3	0	target	0	778	-1000	199817	11.765	11.754	11.777
ProbeTrack12	9	ProbeTrack	11.3	WolfelabSpurzheim	20101105.113230	20101105.113441	8	0.011765	60	0	60-180	60	126	GapExp	0	22	2	0	0	distractor	1	614	693	200510	11.765	11.752	11.775
ProbeTrack12	9	ProbeTrack	11.3	WolfelabSpurzheim	20101105.113230	20101105.113447	8	0.011765	60	0	60-180	60	75	GapExp	0	23	2	45	0	distractor	1	520	740	201250	11.765	11.755	11.775
ProbeTrack12	9	ProbeTrack	11.3	WolfelabSpurzheim	20101105.113230	20101105.113453	8	0.011765	60	0	60-180	60	108	GapExp	0	24	2	3	0	distractor	1	520	740	201990	11.765	11.753	11.776
ProbeTrack12	9	ProbeTrack	11.3	WolfelabSpurzheim	20101105.113230	20101105.113458	8	0.011765	60	0	60-180	60	74	GapExp	0	25	2	3	1	target	1	579	711	202701	11.765	11.755	11.777
ProbeTrack12	9	ProbeTrack	11.3	WolfelabSpurzheim	20101105.113230	20101105.113503	8	0.011765	60	10	60-180	60	125	GapExp	0	26	2	0	1	target	1	473	764	203465	11.765	11.754	11.777
ProbeTrack12	9	ProbeTrack	11.3	WolfelabSpurzheim	20101105.113230	20101105.113509	8	0.011765	60	0	60-180	60	68	GapExp	0	27	2	3	0	distractor	1	602	699	204164	11.765	11.753	11.775
ProbeTrack12	9	ProbeTrack	11.3	WolfelabSpurzheim	20101105.113230	20101105.113514	8	0.011765	60	10	60-180	60	146	GapExp	0	28	2	3	0	target	0	449	-1000	203164	11.765	11.748	11.786
ProbeTrack12	9	ProbeTrack	11.3	WolfelabSpurzheim	20101105.113230	20101105.113520	8	0.011765	60	10	60-180	60	88	GapExp	0	29	2	0	0	distractor	1	520	740	203904	11.765	11.754	11.776
ProbeTrack12	9	ProbeTrack	11.3	WolfelabSpurzheim	20101105.113230	20101105.113526	8	0.011765	60	10	60-180	60	102	GapExp	0	30	2	3	0	distractor	1	567	717	204621	11.765	11.753	11.776
ProbeTrack12	9	ProbeTrack	11.3	WolfelabSpurzheim	20101105.113230	20101105.113533	8	0.011765	60	10	60-180	60	98	GapExp	0	31	2	1	1	target	1	485	758	205379	11.765	11.755	11.776
ProbeTrack12	9	ProbeTrack	11.3	WolfelabSpurzheim	20101105.113230	20101105.113538	8	0.011765	60	0	60-180	60	110	GapExp	0	32	2	0	1	target	1	520	740	206119	11.765	11.755	11.777
ProbeTrack12	9	ProbeTrack	11.3	WolfelabSpurzheim	20101105.113230	20101105.113544	8	0.011765	60	0	60-180	60	157	GapExp	0	33	2	3	0	distractor	1	567	717	206836	11.765	11.754	11.776
ProbeTrack12	9	ProbeTrack	11.3	WolfelabSpurzheim	20101105.113230	20101105.113550	8	0.011765	60	0	60-180	60	132	GapExp	0	34	2	3	0	distractor	1	497	752	207588	11.765	11.752	11.775
ProbeTrack12	9	ProbeTrack	11.3	WolfelabSpurzheim	20101105.113230	20101105.113555	8	0.011765	60	0	60-180	60	120	GapExp	0	35	2	1	1	target	1	414	793	208381	11.765	11.754	11.777
ProbeTrack12	9	ProbeTrack	11.3	WolfelabSpurzheim	20101105.113230	20101105.113601	8	0.011765	60	10	60-180	60	81	GapExp	0	36	2	1	1	distractor	0	449	-1000	207381	11.765	11.753	11.776
ProbeTrack12	9	ProbeTrack	11.3	WolfelabSpurzheim	20101105.113230	20101105.113606	8	0.011765	60	10	60-180	60	75	GapExp	0	37	2	0	0	target	0	555	-1000	206381	11.765	11.754	11.777
ProbeTrack12	9	ProbeTrack	11.3	WolfelabSpurzheim	20101105.113230	20101105.113611	8	0.011765	60	10	60-180	60	102	GapExp	0	38	2	45	1	target	1	496	752	207133	11.765	11.753	11.775
ProbeTrack12	9	ProbeTrack	11.3	WolfelabSpurzheim	20101105.113230	20101105.113617	8	0.011765	60	0	60-180	60	104	GapExp	0	39	2	0	1	target	1	532	734	207867	11.765	11.755	11.777
ProbeTrack12	9	ProbeTrack	11.3	WolfelabSpurzheim	20101105.113230	20101105.113623	8	0.011765	60	10	60-180	60	124	GapExp	0	40	2	3	0	distractor	1	509	746	208613	11.765	11.755	11.775
ProbeTrack12	9	ProbeTrack	11.3	WolfelabSpurzheim	20101105.113230	20101105.113629	8	0.011765	60	0	60-180	60	78	GapExp	0	41	2	45	1	target	1	473	764	209377	11.765	11.754	11.780
ProbeTrack12	9	ProbeTrack	11.3	WolfelabSpurzheim	20101105.113230	20101105.113634	8	0.011765	60	0	60-180	60	168	GapExp	0	42	2	1	1	target	1	414	793	210170	11.765	11.751	11.778
ProbeTrack12	9	ProbeTrack	11.3	WolfelabSpurzheim	20101105.113230	20101105.113640	8	0.011765	60	10	60-180	60	93	GapExp	0	43	2	3	0	distractor	1	567	717	210887	11.765	11.755	11.776
ProbeTrack12	9	ProbeTrack	11.3	WolfelabSpurzheim	20101105.113230	20101105.113646	8	0.011765	60	10	60-180	60	133	GapExp	0	44	2	45	1	target	1	520	740	211627	11.765	11.753	11.776
ProbeTrack12	9	ProbeTrack	11.3	WolfelabSpurzheim	20101105.113230	20101105.113653	8	0.011765	60	0	60-180	60	115	GapExp	0	45	2	45	1	target	1	426	787	212414	11.765	11.733	11.791
ProbeTrack12	9	ProbeTrack	11.3	WolfelabSpurzheim	20101105.113230	20101105.113659	8	0.011765	60	10	60-180	60	99	GapExp	0	46	2	45	0	distractor	1	567	717	213131	11.765	11.753	11.775
ProbeTrack12	9	ProbeTrack	11.3	WolfelabSpurzheim	20101105.113230	20101105.113705	8	0.011765	60	10	60-180	60	162	GapExp	0	47	2	45	0	distractor	1	567	717	213848	11.765	11.742	11.798
ProbeTrack12	9	ProbeTrack	11.3	WolfelabSpurzheim	20101105.113230	20101105.113712	8	0.011765	60	0	60-180	60	117	GapExp	0	48	2	45	1	target	1	579	711	214559	11.765	11.753	11.777
ProbeTrack12	9	ProbeTrack	11.3	WolfelabSpurzheim	20101105.113230	20101105.113718	8	0.011765	60	0	60-180	60	98	GapExp	0	49	2	3	1	target	1	661	670	215229	11.765	11.753	11.775
ProbeTrack12	9	ProbeTrack	11.3	WolfelabSpurzheim	20101105.113230	20101105.113723	8	0.011765	60	0	60-180	60	81	GapExp	0	50	2	45	1	target	1	449	776	216005	11.765	11.753	11.776
ProbeTrack12	9	ProbeTrack	11.3	WolfelabSpurzheim	20101105.113230	20101105.113729	8	0.011765	60	10	60-180	60	103	GapExp	0	51	2	1	1	target	1	543	729	216734	11.765	11.754	11.777
ProbeTrack12	9	ProbeTrack	11.3	WolfelabSpurzheim	20101105.113230	20101105.113734	8	0.011765	60	10	60-180	60	173	GapExp	0	52	2	45	1	target	1	414	793	217527	11.765	11.754	11.777
ProbeTrack12	9	ProbeTrack	11.3	WolfelabSpurzheim	20101105.113230	20101105.113741	8	0.011765	60	10	60-180	60	175	GapExp	0	53	2	1	0	distractor	1	544	728	218255	11.765	11.753	11.776
ProbeTrack12	9	ProbeTrack	11.3	WolfelabSpurzheim	20101105.113230	20101105.113747	8	0.011765	60	10	60-180	60	87	GapExp	0	54	2	1	0	distractor	1	579	711	218966	11.765	11.753	11.777
ProbeTrack12	9	ProbeTrack	11.3	WolfelabSpurzheim	20101105.113230	20101105.113753	8	0.011765	60	0	60-180	60	127	GapExp	0	55	2	1	0	distractor	1	497	752	219718	11.765	11.754	11.776
ProbeTrack12	9	ProbeTrack	11.3	WolfelabSpurzheim	20101105.113230	20101105.113759	8	0.011765	60	0	60-180	60	180	GapExp	0	56	2	45	1	target	1	402	799	220517	11.765	11.755	11.777
ProbeTrack12	9	ProbeTrack	11.3	WolfelabSpurzheim	20101105.113230	20101105.113805	8	0.011765	60	0	60-180	60	148	GapExp	0	57	2	1	0	distractor	1	520	740	221257	11.765	11.753	11.776
ProbeTrack12	9	ProbeTrack	11.3	WolfelabSpurzheim	20101105.113230	20101105.113811	8	0.011765	60	0	60-180	60	121	GapExp	0	58	2	0	0	target	0	685	-1000	220257	11.765	11.752	11.776
ProbeTrack12	9	ProbeTrack	11.3	WolfelabSpurzheim	20101105.113230	20101105.113817	8	0.011765	60	10	60-180	60	127	GapExp	0	59	2	0	1	target	1	543	729	220986	11.765	11.753	11.777
ProbeTrack12	9	ProbeTrack	11.3	WolfelabSpurzheim	20101105.113230	20101105.113823	8	0.011765	60	10	60-180	60	65	GapExp	0	60	2	1	0	distractor	1	649	676	221662	11.765	11.753	11.776
ProbeTrack12	9	ProbeTrack	11.3	WolfelabSpurzheim	20101105.113230	20101105.113828	8	0.011765	60	10	60-180	60	162	GapExp	0	61	2	1	1	target	1	802	599	222261	11.765	11.753	11.777
ProbeTrack12	9	ProbeTrack	11.3	WolfelabSpurzheim	20101105.113230	20101105.113834	8	0.011765	60	0	60-180	60	70	GapExp	0	62	2	0	0	distractor	1	602	699	222960	11.765	11.755	11.777
ProbeTrack12	9	ProbeTrack	11.3	WolfelabSpurzheim	20101105.113230	20101105.113840	8	0.011765	60	10	60-180	60	142	GapExp	0	63	2	0	0	distractor	1	543	729	223689	11.765	11.753	11.776
ProbeTrack12	9	ProbeTrack	11.3	WolfelabSpurzheim	20101105.113230	20101105.113845	8	0.011765	60	0	60-180	60	62	GapExp	0	64	2	3	1	target	1	567	717	224406	11.765	11.740	11.791
ProbeTrack12	9	ProbeTrack	11.3	WolfelabSpurzheim	20101105.113230	20101105.113850	8	0.011765	60	10	60-180	60	161	GapExp	0	65	2	45	0	distractor	1	497	752	225158	11.765	11.753	11.777
ProbeTrack12	9	ProbeTrack	11.3	WolfelabSpurzheim	20101105.113230	20101105.113857	8	0.011765	60	0	60-180	60	124	GapExp	0	66	2	45	0	distractor	1	496	752	225910	11.765	11.754	11.776
ProbeTrack12	9	ProbeTrack	11.3	WolfelabSpurzheim	20101105.113230	20101105.113904	8	0.011765	60	0	60-180	60	143	GapExp	0	67	2	3	1	target	1	450	775	226685	11.765	11.739	11.785
ProbeTrack12	9	ProbeTrack	11.3	WolfelabSpurzheim	20101105.113230	20101105.113911	8	0.011765	60	0	60-180	60	136	GapExp	0	68	2	45	1	target	1	344	828	227513	11.765	11.753	11.786
ProbeTrack12	9	ProbeTrack	11.3	WolfelabSpurzheim	20101105.113230	20101105.113917	8	0.011765	60	10	60-180	60	175	GapExp	0	69	2	1	0	44	-3	-9	-1000	226513	11.765	11.754	11.778
ProbeTrack12	9	ProbeTrack	11.3	WolfelabSpurzheim	20101105.113230	20101105.113924	8	0.011765	60	0	60-180	60	137	GapExp	0	70	2	0	0	distractor	1	614	693	227206	11.765	11.755	11.777
ProbeTrack12	9	ProbeTrack	11.3	WolfelabSpurzheim	20101105.113230	20101105.113930	8	0.011765	60	10	60-180	60	170	GapExp	0	71	2	45	1	target	1	508	746	227952	11.765	11.748	11.784
ProbeTrack12	9	ProbeTrack	11.3	WolfelabSpurzheim	20101105.113230	20101105.113937	8	0.011765	60	0	60-180	60	117	GapExp	0	72	2	1	1	target	1	508	746	228698	11.765	11.752	11.789
ProbeTrack12	9	ProbeTrack	11.3	WolfelabSpurzheim	20101105.113230	20101105.113942	8	0.011765	60	0	60-180	60	140	GapExp	0	73	2	45	0	distractor	1	685	658	229356	11.765	11.754	11.776
ProbeTrack12	9	ProbeTrack	11.3	WolfelabSpurzheim	20101105.113230	20101105.113949	8	0.011765	60	10	60-180	60	128	GapExp	0	74	2	0	0	distractor	1	590	705	230061	11.765	11.755	11.776
ProbeTrack12	9	ProbeTrack	11.3	WolfelabSpurzheim	20101105.113230	20101105.113955	8	0.011765	60	10	60-180	60	136	GapExp	0	75	2	1	0	distractor	1	496	752	230813	11.765	11.753	11.778
ProbeTrack12	9	ProbeTrack	11.3	WolfelabSpurzheim	20101105.113230	20101105.114000	8	0.011765	60	0	60-180	60	78	GapExp	0	76	2	0	1	target	1	743	629	231442	11.765	11.754	11.776
ProbeTrack12	9	ProbeTrack	11.3	WolfelabSpurzheim	20101105.113230	20101105.114006	8	0.011765	60	0	60-180	60	146	GapExp	0	77	2	45	0	distractor	1	520	740	232182	11.765	11.754	11.777
ProbeTrack12	9	ProbeTrack	11.3	WolfelabSpurzheim	20101105.113230	20101105.114012	8	0.011765	60	0	60-180	60	78	GapExp	0	78	2	1	0	distractor	1	567	717	232899	11.765	11.735	11.792
ProbeTrack12	9	ProbeTrack	11.3	WolfelabSpurzheim	20101105.113230	20101105.114017	8	0.011765	60	10	60-180	60	157	GapExp	0	79	2	0	1	target	1	461	770	233669	11.765	11.732	11.797
ProbeTrack12	9	ProbeTrack	11.3	WolfelabSpurzheim	20101105.113230	20101105.114023	8	0.011765	60	0	60-180	60	74	GapExp	0	80	2	45	0	distractor	1	438	781	234450	11.765	11.754	11.777
ProbeTrack12	9	ProbeTrack	11.3	WolfelabSpurzheim	20101105.113230	20101105.114029	8	0.011765	60	0	60-180	60	79	GapExp	0	81	2	1	1	target	1	614	693	235143	11.765	11.754	11.776
ProbeTrack12	9	ProbeTrack	11.3	WolfelabSpurzheim	20101105.113230	20101105.114034	8	0.011765	60	10	60-180	60	104	GapExp	0	82	2	45	0	distractor	1	543	729	235872	11.765	11.731	11.797
ProbeTrack12	9	ProbeTrack	11.3	WolfelabSpurzheim	20101105.113230	20101105.114040	8	0.011765	60	0	60-180	60	93	GapExp	0	83	2	0	1	target	1	520	740	236612	11.765	11.755	11.777
ProbeTrack12	9	ProbeTrack	11.3	WolfelabSpurzheim	20101105.113230	20101105.114045	8	0.011765	60	0	60-180	60	68	GapExp	0	84	2	3	1	target	1	473	764	237376	11.765	11.753	11.776
ProbeTrack12	9	ProbeTrack	11.3	WolfelabSpurzheim	20101105.113230	20101105.114050	8	0.011765	60	0	60-180	60	144	GapExp	0	85	2	1	1	target	1	437	782	238158	11.765	11.748	11.785
ProbeTrack12	9	ProbeTrack	11.3	WolfelabSpurzheim	20101105.113230	20101105.114056	8	0.011765	60	10	60-180	60	123	GapExp	0	86	2	0	0	distractor	1	496	752	238910	11.765	11.730	11.802
ProbeTrack12	9	ProbeTrack	11.3	WolfelabSpurzheim	20101105.113230	20101105.114102	8	0.011765	60	10	60-180	60	146	GapExp	0	87	2	45	1	target	1	496	752	239662	11.765	11.754	11.776
ProbeTrack12	9	ProbeTrack	11.3	WolfelabSpurzheim	20101105.113230	20101105.114108	8	0.011765	60	10	60-180	60	91	GapExp	0	88	2	0	0	distractor	1	555	723	240385	11.765	11.753	11.776
ProbeTrack12	9	ProbeTrack	11.3	WolfelabSpurzheim	20101105.113230	20101105.114114	8	0.011765	60	0	60-180	60	132	GapExp	0	89	2	1	1	target	1	532	734	241119	11.765	11.752	11.777
ProbeTrack12	9	ProbeTrack	11.3	WolfelabSpurzheim	20101105.113230	20101105.114120	8	0.011765	60	10	60-180	60	149	GapExp	0	90	2	0	0	distractor	1	743	629	241748	11.765	11.754	11.776
ProbeTrack12	9	ProbeTrack	11.3	WolfelabSpurzheim	20101105.113230	20101105.114128	8	0.011765	60	10	60-180	60	175	GapExp	0	91	2	1	1	target	1	426	787	242535	11.765	11.754	11.780
ProbeTrack12	9	ProbeTrack	11.3	WolfelabSpurzheim	20101105.113230	20101105.114134	8	0.011765	60	0	60-180	60	111	GapExp	0	92	2	1	0	distractor	1	637	682	243217	11.765	11.752	11.777
ProbeTrack12	9	ProbeTrack	11.3	WolfelabSpurzheim	20101105.113230	20101105.114140	8	0.011765	60	0	60-180	60	127	GapExp	0	93	2	0	0	distractor	1	579	711	243928	11.765	11.754	11.776
ProbeTrack12	9	ProbeTrack	11.3	WolfelabSpurzheim	20101105.113230	20101105.114146	8	0.011765	60	0	60-180	60	76	GapExp	0	94	2	3	1	target	1	508	746	244674	11.765	11.753	11.779
ProbeTrack12	9	ProbeTrack	11.3	WolfelabSpurzheim	20101105.113230	20101105.114151	8	0.011765	60	0	60-180	60	179	GapExp	0	95	2	0	1	target	1	543	729	245403	11.765	11.753	11.777
ProbeTrack12	9	ProbeTrack	11.3	WolfelabSpurzheim	20101105.113230	20101105.114157	8	0.011765	60	0	60-180	60	94	GapExp	0	96	2	3	1	target	1	485	758	246161	11.765	11.754	11.777
ProbeTrack12	9	ProbeTrack	11.3	WolfelabSpurzheim	20101105.113230	20101105.114202	8	0.011765	60	0	60-180	60	124	GapExp	0	97	2	0	0	distractor	1	555	723	246884	11.765	11.716	11.818
ProbeTrack12	9	ProbeTrack	11.3	WolfelabSpurzheim	20101105.113230	20101105.114208	8	0.011765	60	0	60-180	60	163	GapExp	0	98	2	1	1	target	1	461	770	247654	11.765	11.754	11.775
ProbeTrack12	9	ProbeTrack	11.3	WolfelabSpurzheim	20101105.113230	20101105.114214	8	0.011765	60	10	60-180	60	153	GapExp	0	99	2	1	0	distractor	1	508	746	248400	11.765	11.754	11.777
ProbeTrack12	9	ProbeTrack	11.3	WolfelabSpurzheim	20101105.113230	20101105.114220	8	0.011765	60	10	60-180	60	146	GapExp	0	100	2	0	0	distractor	1	520	740	249140	11.765	11.753	11.776
ProbeTrack12	9	ProbeTrack	11.3	WolfelabSpurzheim	20101105.113230	20101105.114226	8	0.011765	60	10	60-180	60	159	GapExp	0	101	2	3	0	distractor	1	508	746	249886	11.765	11.754	11.776
ProbeTrack12	9	ProbeTrack	11.3	WolfelabSpurzheim	20101105.113230	20101105.114232	8	0.011765	60	0	60-180	60	176	GapExp	0	102	2	45	1	target	1	390	805	250691	11.765	11.754	11.777
ProbeTrack12	9	ProbeTrack	11.3	WolfelabSpurzheim	20101105.113230	20101105.114239	8	0.011765	60	0	60-180	60	173	GapExp	0	103	2	45	1	target	1	473	764	251455	11.765	11.752	11.777
ProbeTrack12	9	ProbeTrack	11.3	WolfelabSpurzheim	20101105.113230	20101105.114245	8	0.011765	60	10	60-180	60	81	GapExp	0	104	2	3	1	target	1	390	805	252260	11.765	11.755	11.776
ProbeTrack12	9	ProbeTrack	11.3	WolfelabSpurzheim	20101105.113230	20101105.114251	8	0.011765	60	0	60-180	60	88	GapExp	0	105	2	45	0	distractor	1	590	705	252965	11.765	11.753	11.776
ProbeTrack12	9	ProbeTrack	11.3	WolfelabSpurzheim	20101105.113230	20101105.114256	8	0.011765	60	0	60-180	60	78	GapExp	0	106	2	1	0	distractor	1	661	670	253635	11.765	11.742	11.786
ProbeTrack12	9	ProbeTrack	11.3	WolfelabSpurzheim	20101105.113230	20101105.114302	8	0.011765	60	10	60-180	60	178	GapExp	0	107	2	1	0	distractor	1	508	746	254381	11.765	11.753	11.776
ProbeTrack12	9	ProbeTrack	11.3	WolfelabSpurzheim	20101105.113230	20101105.114308	8	0.011765	60	10	60-180	60	166	GapExp	0	108	2	3	1	target	1	461	770	255151	11.765	11.752	11.777
ProbeTrack12	9	ProbeTrack	11.3	WolfelabSpurzheim	20101105.113230	20101105.114315	8	0.011765	60	0	60-180	60	67	GapExp	0	109	2	1	0	distractor	1	614	693	255844	11.765	11.753	11.776
ProbeTrack12	9	ProbeTrack	11.3	WolfelabSpurzheim	20101105.113230	20101105.114320	8	0.011765	60	10	60-180	60	127	GapExp	0	110	2	1	1	target	1	508	746	256590	11.765	11.756	11.776
ProbeTrack12	9	ProbeTrack	11.3	WolfelabSpurzheim	20101105.113230	20101105.114326	8	0.011765	60	0	60-180	60	118	GapExp	0	111	2	45	1	distractor	0	496	-1000	255590	11.765	11.754	11.777
ProbeTrack12	9	ProbeTrack	11.3	WolfelabSpurzheim	20101105.113230	20101105.114332	8	0.011765	60	10	60-180	60	91	GapExp	0	112	2	1	1	target	1	356	822	256412	11.765	11.753	11.775
ProbeTrack12	9	ProbeTrack	11.3	WolfelabSpurzheim	20101105.113230	20101105.114337	8	0.011765	60	0	60-180	60	112	GapExp	0	113	2	45	0	distractor	1	766	617	257029	11.765	11.752	11.778
ProbeTrack12	9	ProbeTrack	11.3	WolfelabSpurzheim	20101105.113230	20101105.114344	8	0.011765	60	0	60-180	60	179	GapExp	0	114	2	1	1	target	1	520	740	257769	11.765	11.732	11.790
ProbeTrack12	9	ProbeTrack	11.3	WolfelabSpurzheim	20101105.113230	20101105.114351	8	0.011765	60	10	60-180	60	78	GapExp	0	115	2	0	0	distractor	1	696	652	258421	11.765	11.755	11.778
ProbeTrack12	9	ProbeTrack	11.3	WolfelabSpurzheim	20101105.113230	20101105.114356	8	0.011765	60	10	60-180	60	125	GapExp	0	116	2	1	1	target	1	496	752	259173	11.765	11.754	11.776
ProbeTrack12	9	ProbeTrack	11.3	WolfelabSpurzheim	20101105.113230	20101105.114402	8	0.011765	60	0	60-180	60	130	GapExp	0	117	2	3	1	target	1	461	770	259943	11.765	11.752	11.777
ProbeTrack12	9	ProbeTrack	11.3	WolfelabSpurzheim	20101105.113230	20101105.114407	8	0.011765	60	0	60-180	60	122	GapExp	0	118	2	45	1	target	1	461	770	260713	11.765	11.754	11.775
ProbeTrack12	9	ProbeTrack	11.3	WolfelabSpurzheim	20101105.113230	20101105.114413	8	0.011765	60	10	60-180	60	111	GapExp	0	119	2	3	0	distractor	1	508	746	261459	11.765	11.732	11.794
ProbeTrack12	9	ProbeTrack	11.3	WolfelabSpurzheim	20101105.113230	20101105.114419	8	0.011765	60	0	60-180	60	126	GapExp	0	120	2	0	1	target	1	390	805	262264	11.765	11.711	11.826
ProbeTrack12	9	ProbeTrack	11.3	WolfelabSpurzheim	20101105.113230	20101105.114424	8	0.011765	60	10	60-180	60	69	GapExp	0	121	2	1	0	distractor	1	508	746	263010	11.765	11.754	11.776
ProbeTrack12	9	ProbeTrack	11.3	WolfelabSpurzheim	20101105.113230	20101105.114430	8	0.011765	60	10	60-180	60	105	GapExp	0	122	2	45	0	target	0	673	-1000	262010	11.765	11.755	11.776
ProbeTrack12	9	ProbeTrack	11.3	WolfelabSpurzheim	20101105.113230	20101105.114436	8	0.011765	60	10	60-180	60	82	GapExp	0	123	2	45	1	target	1	626	687	262697	11.765	11.741	11.793
ProbeTrack12	9	ProbeTrack	11.3	WolfelabSpurzheim	20101105.113230	20101105.114442	8	0.011765	60	10	60-180	60	133	GapExp	0	124	2	45	0	distractor	1	532	734	263431	11.765	11.753	11.776
ProbeTrack12	9	ProbeTrack	11.3	WolfelabSpurzheim	20101105.113230	20101105.114448	8	0.011765	60	0	60-180	60	116	GapExp	0	125	2	1	0	distractor	1	520	740	264171	11.765	11.754	11.775
ProbeTrack12	9	ProbeTrack	11.3	WolfelabSpurzheim	20101105.113230	20101105.114454	8	0.011765	60	0	60-180	60	141	GapExp	0	126	2	0	1	target	1	543	729	264900	11.765	11.753	11.776
ProbeTrack12	9	ProbeTrack	11.3	WolfelabSpurzheim	20101105.113230	20101105.114500	8	0.011765	60	0	60-180	60	140	GapExp	0	127	2	3	0	distractor	1	508	746	265646	11.765	11.739	11.788
ProbeTrack12	9	ProbeTrack	11.3	WolfelabSpurzheim	20101105.113230	20101105.114506	8	0.011765	60	10	60-180	60	72	GapExp	0	128	2	0	1	target	1	543	729	266375	11.765	11.755	11.776
ProbeTrack12	9	ProbeTrack	11.3	WolfelabSpurzheim	20101105.113230	20101105.114511	8	0.011765	60	0	60-180	60	125	GapExp	0	129	2	1	0	distractor	1	450	775	267150	11.765	11.754	11.776
ProbeTrack12	9	ProbeTrack	11.3	WolfelabSpurzheim	20101105.113230	20101105.114516	8	0.011765	60	0	60-180	60	157	GapExp	0	130	2	1	0	distractor	1	461	770	267920	11.765	11.714	11.810
ProbeTrack12	9	ProbeTrack	11.3	WolfelabSpurzheim	20101105.113230	20101105.114522	8	0.011765	60	10	60-180	60	147	GapExp	0	131	2	3	0	distractor	1	461	770	268690	11.765	11.754	11.777
ProbeTrack12	9	ProbeTrack	11.3	WolfelabSpurzheim	20101105.113230	20101105.114528	8	0.011765	60	10	60-180	60	66	GapExp	0	132	2	0	1	distractor	0	473	-1000	267690	11.765	11.753	11.776
ProbeTrack12	9	ProbeTrack	11.3	WolfelabSpurzheim	20101105.113230	20101105.114533	8	0.011765	60	10	60-180	60	119	GapExp	0	133	2	1	1	distractor	0	708	-1000	266690	11.765	11.753	11.777
ProbeTrack12	9	ProbeTrack	11.3	WolfelabSpurzheim	20101105.113230	20101105.114539	8	0.011765	60	10	60-180	60	84	GapExp	0	134	2	45	1	target	1	461	770	267460	11.765	11.754	11.776
ProbeTrack12	9	ProbeTrack	11.3	WolfelabSpurzheim	20101105.113230	20101105.114545	8	0.011765	60	0	60-180	60	113	GapExp	0	135	2	45	1	target	1	414	793	268253	11.765	11.752	11.778
ProbeTrack12	9	ProbeTrack	11.3	WolfelabSpurzheim	20101105.113230	20101105.114551	8	0.011765	60	10	60-180	60	173	GapExp	0	136	2	3	1	target	1	521	740	268993	11.765	11.754	11.776
ProbeTrack12	9	ProbeTrack	11.3	WolfelabSpurzheim	20101105.113230	20101105.114557	8	0.011765	60	0	60-180	60	81	GapExp	0	137	2	1	0	distractor	1	731	635	269628	11.765	11.754	11.776
ProbeTrack12	9	ProbeTrack	11.3	WolfelabSpurzheim	20101105.113230	20101105.114602	8	0.011765	60	0	60-180	60	109	GapExp	0	138	2	0	0	distractor	1	590	705	270333	11.765	11.753	11.777
ProbeTrack12	9	ProbeTrack	11.3	WolfelabSpurzheim	20101105.113230	20101105.114608	8	0.011765	60	10	60-180	60	148	GapExp	0	139	2	3	0	distractor	1	661	670	271003	11.765	11.753	11.776
ProbeTrack12	9	ProbeTrack	11.3	WolfelabSpurzheim	20101105.113230	20101105.114614	8	0.011765	60	0	60-180	60	75	GapExp	0	140	2	1	1	target	1	649	676	271679	11.765	11.754	11.777
ProbeTrack12	9	ProbeTrack	11.3	WolfelabSpurzheim	20101105.113230	20101105.114619	8	0.011765	60	10	60-180	60	162	GapExp	0	141	2	0	0	distractor	1	684	658	272337	11.765	11.754	11.776
ProbeTrack12	9	ProbeTrack	11.3	WolfelabSpurzheim	20101105.113230	20101105.114625	8	0.011765	60	10	60-180	60	127	GapExp	0	142	2	45	0	distractor	1	567	717	273054	11.765	11.754	11.777
ProbeTrack12	9	ProbeTrack	11.3	WolfelabSpurzheim	20101105.113230	20101105.114632	8	0.011765	60	0	60-180	60	81	GapExp	0	143	2	45	0	distractor	1	520	740	273794	11.765	11.753	11.776
ProbeTrack12	9	ProbeTrack	11.3	WolfelabSpurzheim	20101105.113230	20101105.114637	8	0.011765	60	0	60-180	60	96	GapExp	0	144	2	3	0	distractor	1	437	782	274576	11.765	11.733	11.798
ProbeTrack12	9	ProbeTrack	11.3	WolfelabSpurzheim	20101105.113230	20101105.114642	8	0.011765	60	10	60-180	60	68	GapExp	0	145	2	3	1	target	1	638	681	275257	11.765	11.754	11.778
ProbeTrack12	9	ProbeTrack	11.3	WolfelabSpurzheim	20101105.113230	20101105.114647	8	0.011765	60	0	60-180	60	160	GapExp	0	146	2	0	0	distractor	1	473	764	276021	11.765	11.755	11.775
ProbeTrack12	9	ProbeTrack	11.3	WolfelabSpurzheim	20101105.113230	20101105.114653	8	0.011765	60	10	60-180	60	90	GapExp	0	147	2	45	0	distractor	1	473	764	276785	11.765	11.753	11.775
ProbeTrack12	9	ProbeTrack	11.3	WolfelabSpurzheim	20101105.113230	20101105.114659	8	0.011765	60	0	60-180	60	176	GapExp	0	148	2	3	0	distractor	1	532	734	277519	11.765	11.754	11.776
ProbeTrack12	9	ProbeTrack	11.3	WolfelabSpurzheim	20101105.113230	20101105.114705	8	0.011765	60	10	60-180	60	129	GapExp	0	149	2	1	1	target	1	567	717	278236	11.765	11.753	11.775
ProbeTrack12	9	ProbeTrack	11.3	WolfelabSpurzheim	20101105.113230	20101105.114711	8	0.011765	60	10	60-180	60	73	GapExp	0	150	2	1	0	distractor	1	532	734	278970	11.765	11.735	11.787
ProbeTrack12	9	ProbeTrack	11.3	WolfelabSpurzheim	20101105.113230	20101105.114717	8	0.011765	60	10	60-180	60	157	GapExp	0	151	2	0	0	distractor	1	485	758	279728	11.765	11.755	11.776
ProbeTrack12	9	ProbeTrack	11.3	WolfelabSpurzheim	20101105.113230	20101105.114723	8	0.011765	60	0	60-180	60	81	GapExp	0	152	2	45	0	distractor	1	461	770	280498	11.765	11.754	11.777
ProbeTrack12	9	ProbeTrack	11.3	WolfelabSpurzheim	20101105.113230	20101105.114728	8	0.011765	60	10	60-180	60	77	GapExp	0	153	2	1	0	distractor	1	438	781	281279	11.765	11.754	11.776
ProbeTrack12	9	ProbeTrack	11.3	WolfelabSpurzheim	20101105.113230	20101105.114734	8	0.011765	60	10	60-180	60	73	GapExp	0	154	2	45	0	distractor	1	473	764	282043	11.765	11.753	11.775
ProbeTrack12	9	ProbeTrack	11.3	WolfelabSpurzheim	20101105.113230	20101105.114740	8	0.011765	60	0	60-180	60	93	GapExp	0	155	2	45	0	distractor	1	473	764	282807	11.765	11.753	11.776
ProbeTrack12	9	ProbeTrack	11.3	WolfelabSpurzheim	20101105.113230	20101105.114745	8	0.011765	60	10	60-180	60	170	GapExp	0	156	2	3	0	distractor	1	473	764	283571	11.765	11.754	11.777
ProbeTrack12	9	ProbeTrack	11.3	WolfelabSpurzheim	20101105.113230	20101105.114752	8	0.011765	60	10	60-180	60	142	GapExp	0	157	2	3	1	target	1	603	699	284270	11.765	11.753	11.776
ProbeTrack12	9	ProbeTrack	11.3	WolfelabSpurzheim	20101105.113230	20101105.114758	8	0.011765	60	10	60-180	60	150	GapExp	0	158	2	0	1	target	1	578	711	284981	11.765	11.753	11.777
ProbeTrack12	9	ProbeTrack	11.3	WolfelabSpurzheim	20101105.113230	20101105.114804	8	0.011765	60	0	60-180	60	119	GapExp	0	159	2	1	0	distractor	1	485	758	285739	11.765	11.755	11.775
ProbeTrack12	9	ProbeTrack	11.3	WolfelabSpurzheim	20101105.113230	20101105.114810	8	0.011765	60	0	60-180	60	66	GapExp	0	160	2	0	1	target	1	449	776	286515	11.765	11.753	11.774
ProbeTrack12	9	ProbeTrack	11.3	WolfelabSpurzheim	20101105.113230	20101105.114815	8	0.011765	60	0	60-180	60	91	GapExp	0	161	2	0	0	distractor	1	473	764	287279	11.765	11.754	11.777
ProbeTrack12	9	ProbeTrack	11.3	WolfelabSpurzheim	20101105.113230	20101105.114820	8	0.011765	60	0	60-180	60	81	GapExp	0	162	2	3	0	distractor	1	438	781	288060	11.765	11.753	11.775
ProbeTrack12	9	ProbeTrack	11.3	WolfelabSpurzheim	20101105.113230	20101105.114825	8	0.011765	60	0	60-180	60	140	GapExp	0	163	2	3	1	target	1	331	835	288895	11.765	11.754	11.777
ProbeTrack12	9	ProbeTrack	11.3	WolfelabSpurzheim	20101105.113230	20101105.114831	8	0.011765	60	10	60-180	60	145	GapExp	0	164	2	45	1	target	1	414	793	289688	11.765	11.708	11.823
ProbeTrack12	9	ProbeTrack	11.3	WolfelabSpurzheim	20101105.113230	20101105.114838	8	0.011765	60	0	60-180	60	96	GapExp	0	165	2	45	0	distractor	1	496	752	290440	11.765	11.752	11.776
ProbeTrack12	9	ProbeTrack	11.3	WolfelabSpurzheim	20101105.113230	20101105.114844	8	0.011765	60	10	60-180	60	116	GapExp	0	166	2	45	0	distractor	1	508	746	291186	11.765	11.753	11.776
ProbeTrack12	9	ProbeTrack	11.3	WolfelabSpurzheim	20101105.113230	20101105.114850	8	0.011765	60	10	60-180	60	84	GapExp	0	167	2	3	1	target	1	590	705	291891	11.765	11.754	11.776
ProbeTrack12	9	ProbeTrack	11.3	WolfelabSpurzheim	20101105.113230	20101105.114855	8	0.011765	60	0	60-180	60	144	GapExp	0	168	2	0	1	target	1	414	793	292684	11.765	11.750	11.776
ProbeTrack12	9	ProbeTrack	11.3	WolfelabSpurzheim	20101105.113230	20101105.114901	8	0.011765	60	0	60-180	60	126	GapExp	0	169	2	0	0	distractor	1	485	758	293442	11.765	11.753	11.777
ProbeTrack12	9	ProbeTrack	11.3	WolfelabSpurzheim	20101105.113230	20101105.114907	8	0.011765	60	10	60-180	60	94	GapExp	0	170	2	45	1	target	1	626	687	294129	11.765	11.755	11.776
ProbeTrack12	9	ProbeTrack	11.3	WolfelabSpurzheim	20101105.113230	20101105.114913	8	0.011765	60	10	60-180	60	79	GapExp	0	171	2	1	1	target	1	484	758	294887	11.765	11.754	11.777
ProbeTrack12	9	ProbeTrack	11.3	WolfelabSpurzheim	20101105.113230	20101105.114918	8	0.011765	60	10	60-180	60	98	GapExp	0	172	2	45	1	target	1	391	805	295692	11.765	11.755	11.777
ProbeTrack12	9	ProbeTrack	11.3	WolfelabSpurzheim	20101105.113230	20101105.114924	8	0.011765	60	10	60-180	60	143	GapExp	0	173	2	3	1	target	1	462	769	296461	11.765	11.754	11.776
ProbeTrack12	9	ProbeTrack	11.3	WolfelabSpurzheim	20101105.113230	20101105.114930	8	0.011765	60	0	60-180	60	69	GapExp	0	174	2	3	0	distractor	1	555	723	297184	11.765	11.756	11.775
ProbeTrack12	9	ProbeTrack	11.3	WolfelabSpurzheim	20101105.113230	20101105.114935	8	0.011765	60	0	60-180	60	142	GapExp	0	175	2	3	1	target	1	426	787	297971	11.765	11.754	11.776
ProbeTrack12	9	ProbeTrack	11.3	WolfelabSpurzheim	20101105.113230	20101105.114940	8	0.011765	60	0	60-180	60	97	GapExp	0	176	2	1	1	target	1	473	764	298735	11.765	11.742	11.785
ProbeTrack12	9	ProbeTrack	11.3	WolfelabSpurzheim	20101105.113230	20101105.114946	8	0.011765	60	10	60-180	60	143	GapExp	0	177	2	3	1	target	1	567	717	299452	11.765	11.753	11.778
ProbeTrack12	9	ProbeTrack	11.3	WolfelabSpurzheim	20101105.113230	20101105.114952	8	0.011765	60	0	60-180	60	127	GapExp	0	178	2	1	1	target	1	614	693	300145	11.765	11.754	11.778
ProbeTrack12	9	ProbeTrack	11.3	WolfelabSpurzheim	20101105.113230	20101105.114958	8	0.011765	60	0	60-180	60	80	GapExp	0	179	2	3	1	target	1	625	688	300833	11.765	11.754	11.776
ProbeTrack12	9	ProbeTrack	11.3	WolfelabSpurzheim	20101105.113230	20101105.115004	8	0.011765	60	0	60-180	60	99	GapExp	0	180	2	45	0	distractor	1	579	711	301544	11.765	11.755	11.776
ProbeTrack12	9	ProbeTrack	11.3	WolfelabSpurzheim	20101105.113230	20101105.115010	8	0.011765	60	0	60-180	60	166	GapExp	0	181	2	45	1	target	1	414	793	302337	11.765	11.754	11.777
ProbeTrack12	9	ProbeTrack	11.3	WolfelabSpurzheim	20101105.113230	20101105.115016	8	0.011765	60	0	60-180	60	61	GapExp	0	182	2	3	0	distractor	1	591	705	303042	11.765	11.756	11.775
ProbeTrack12	9	ProbeTrack	11.3	WolfelabSpurzheim	20101105.113230	20101105.115021	8	0.011765	60	10	60-180	60	127	GapExp	0	183	2	45	0	distractor	1	508	746	303788	11.765	11.754	11.778
ProbeTrack12	9	ProbeTrack	11.3	WolfelabSpurzheim	20101105.113230	20101105.115028	8	0.011765	60	10	60-180	60	76	GapExp	0	184	2	3	0	distractor	1	521	740	304528	11.765	11.755	11.776
ProbeTrack12	9	ProbeTrack	11.3	WolfelabSpurzheim	20101105.113230	20101105.115033	8	0.011765	60	10	60-180	60	127	GapExp	0	185	2	45	0	distractor	1	473	764	305292	11.765	11.747	11.778
ProbeTrack12	9	ProbeTrack	11.3	WolfelabSpurzheim	20101105.113230	20101105.115039	8	0.011765	60	0	60-180	60	115	GapExp	0	186	2	1	1	target	1	591	705	305997	11.765	11.732	11.793
ProbeTrack12	9	ProbeTrack	11.3	WolfelabSpurzheim	20101105.113230	20101105.115045	8	0.011765	60	10	60-180	60	161	GapExp	0	187	2	1	1	target	1	438	781	306778	11.765	11.751	11.780
ProbeTrack12	9	ProbeTrack	11.3	WolfelabSpurzheim	20101105.113230	20101105.115051	8	0.011765	60	0	60-180	60	179	GapExp	0	188	2	0	1	target	1	438	781	307559	11.765	11.755	11.776
ProbeTrack12	9	ProbeTrack	11.3	WolfelabSpurzheim	20101105.113230	20101105.115057	8	0.011765	60	10	60-180	60	107	GapExp	0	189	2	0	0	distractor	1	520	740	308299	11.765	11.754	11.775
ProbeTrack12	9	ProbeTrack	11.3	WolfelabSpurzheim	20101105.113230	20101105.115103	8	0.011765	60	10	60-180	60	139	GapExp	0	190	2	0	1	target	1	402	799	309098	11.765	11.754	11.777
ProbeTrack12	9	ProbeTrack	11.3	WolfelabSpurzheim	20101105.113230	20101105.115109	8	0.011765	60	10	60-180	60	176	GapExp	0	191	2	45	0	distractor	1	555	723	309821	11.765	11.754	11.776
ProbeTrack12	9	ProbeTrack	11.3	WolfelabSpurzheim	20101105.113230	20101105.115115	8	0.011765	60	0	60-180	60	80	GapExp	0	192	2	1	1	target	1	567	717	310538	11.765	11.755	11.775
ProbeTrack12	9	ProbeTrack	11.3	WolfelabSpurzheim	20101105.113230	20101105.115121	8	0.011765	60	0	60-180	60	122	GapExp	0	193	2	0	0	distractor	1	567	717	311255	11.765	11.704	11.827
ProbeTrack12	9	ProbeTrack	11.3	WolfelabSpurzheim	20101105.113230	20101105.115126	8	0.011765	60	0	60-180	60	154	GapExp	0	194	2	3	0	distractor	1	473	764	312019	11.765	11.754	11.776
ProbeTrack12	9	ProbeTrack	11.3	WolfelabSpurzheim	20101105.113230	20101105.115132	8	0.011765	60	10	60-180	60	70	GapExp	0	195	2	1	0	distractor	1	473	764	312783	11.765	11.727	11.801
ProbeTrack12	9	ProbeTrack	11.3	WolfelabSpurzheim	20101105.113230	20101105.115137	8	0.011765	60	10	60-180	60	174	GapExp	0	196	2	0	1	target	1	461	770	313553	11.765	11.755	11.776
ProbeTrack12	9	ProbeTrack	11.3	WolfelabSpurzheim	20101105.113230	20101105.115144	8	0.011765	60	0	60-180	60	106	GapExp	0	197	2	3	1	target	1	755	623	314176	11.765	11.753	11.777
ProbeTrack12	9	ProbeTrack	11.3	WolfelabSpurzheim	20101105.113230	20101105.115149	8	0.011765	60	0	60-180	60	64	GapExp	0	198	2	3	1	target	1	449	776	314952	11.765	11.742	11.796
ProbeTrack12	9	ProbeTrack	11.3	WolfelabSpurzheim	20101105.113230	20101105.115154	8	0.011765	60	0	60-180	60	136	GapExp	0	199	2	3	0	distractor	1	567	717	315669	11.765	11.752	11.776
ProbeTrack12	9	ProbeTrack	11.3	WolfelabSpurzheim	20101105.113230	20101105.115200	8	0.011765	60	0	60-180	60	167	GapExp	0	200	2	3	0	distractor	1	650	675	316344	11.765	11.752	11.777
ProbeTrack12	9	ProbeTrack	11.3	WolfelabSpurzheim	20101105.113230	20101105.115206	8	0.011765	60	10	60-180	60	84	GapExp	0	201	2	45	1	distractor	0	567	-1000	315344	11.765	11.754	11.776
ProbeTrack12	9	ProbeTrack	11.3	WolfelabSpurzheim	20101105.113230	20101105.115212	8	0.011765	60	10	60-180	60	72	GapExp	0	202	2	45	1	target	1	461	770	316114	11.765	11.754	11.776
ProbeTrack12	9	ProbeTrack	11.3	WolfelabSpurzheim	20101105.113230	20101105.115218	8	0.011765	60	10	60-180	60	171	GapExp	0	203	2	0	1	target	1	543	729	316843	11.765	11.754	11.777
ProbeTrack12	9	ProbeTrack	11.3	WolfelabSpurzheim	20101105.113230	20101105.115224	8	0.011765	60	10	60-180	60	123	GapExp	0	204	2	0	1	target	1	449	776	317619	11.765	11.754	11.776
ProbeTrack12	9	ProbeTrack	11.3	WolfelabSpurzheim	20101105.113230	20101105.115230	8	0.011765	60	10	60-180	60	93	GapExp	0	205	2	0	0	distractor	1	649	676	318295	11.765	11.724	11.805
ProbeTrack12	9	ProbeTrack	11.3	WolfelabSpurzheim	20101105.113230	20101105.115235	8	0.011765	60	0	60-180	60	129	GapExp	0	206	2	0	0	distractor	1	531	735	319030	11.765	11.753	11.779
ProbeTrack12	9	ProbeTrack	11.3	WolfelabSpurzheim	20101105.113230	20101105.115241	8	0.011765	60	10	60-180	60	129	GapExp	0	207	2	3	1	target	1	473	764	319794	11.765	11.753	11.777
ProbeTrack12	9	ProbeTrack	11.3	WolfelabSpurzheim	20101105.113230	20101105.115247	8	0.011765	60	0	60-180	60	160	GapExp	0	208	2	0	1	distractor	0	602	-1000	318794	11.765	11.753	11.776
ProbeTrack12	9	ProbeTrack	11.3	WolfelabSpurzheim	20101105.113230	20101105.115253	8	0.011765	60	10	60-180	60	137	GapExp	0	209	2	1	1	target	1	508	746	319540	11.765	11.750	11.780
ProbeTrack12	9	ProbeTrack	11.3	WolfelabSpurzheim	20101105.113230	20101105.115259	8	0.011765	60	10	60-180	60	167	GapExp	0	210	2	0	0	distractor	1	532	734	320274	11.765	11.750	11.780
ProbeTrack12	9	ProbeTrack	11.3	WolfelabSpurzheim	20101105.113230	20101105.115307	8	0.011765	60	10	60-180	60	69	GapExp	0	211	2	3	1	target	1	544	728	321002	11.765	11.754	11.776
ProbeTrack12	9	ProbeTrack	11.3	WolfelabSpurzheim	20101105.113230	20101105.115312	8	0.011765	60	10	60-180	60	96	GapExp	0	212	2	45	1	target	1	544	728	321730	11.765	11.754	11.775
ProbeTrack12	9	ProbeTrack	11.3	WolfelabSpurzheim	20101105.113230	20101105.115318	8	0.011765	60	10	60-180	60	139	GapExp	0	213	2	0	1	target	1	473	764	322494	11.765	11.753	11.776
ProbeTrack12	9	ProbeTrack	11.3	WolfelabSpurzheim	20101105.113230	20101105.115324	8	0.011765	60	0	60-180	60	149	GapExp	0	214	2	0	0	distractor	1	637	682	323176	11.765	11.733	11.795
ProbeTrack12	9	ProbeTrack	11.3	WolfelabSpurzheim	20101105.113230	20101105.115330	8	0.011765	60	10	60-180	60	86	GapExp	0	215	2	3	0	distractor	1	520	740	323916	11.765	11.754	11.776
ProbeTrack12	9	ProbeTrack	11.3	WolfelabSpurzheim	20101105.113230	20101105.115335	8	0.011765	60	0	60-180	60	105	GapExp	0	216	2	1	0	distractor	1	543	729	324645	11.765	11.753	11.777
ProbeTrack12	9	ProbeTrack	11.3	WolfelabSpurzheim	20101105.113230	20101105.115341	8	0.011765	60	10	60-180	60	121	GapExp	0	217	2	45	1	target	1	626	687	325332	11.765	11.755	11.775
ProbeTrack12	9	ProbeTrack	11.3	WolfelabSpurzheim	20101105.113230	20101105.115347	8	0.011765	60	10	60-180	60	84	GapExp	0	218	2	0	1	target	1	520	740	326072	11.765	11.752	11.777
ProbeTrack12	9	ProbeTrack	11.3	WolfelabSpurzheim	20101105.113230	20101105.115352	8	0.011765	60	0	60-180	60	75	GapExp	0	219	2	45	1	target	1	497	752	326824	11.765	11.754	11.777
ProbeTrack12	9	ProbeTrack	11.3	WolfelabSpurzheim	20101105.113230	20101105.115359	8	0.011765	60	0	60-180	60	149	GapExp	0	220	2	45	0	distractor	1	532	734	327558	11.765	11.739	11.786
ProbeTrack12	9	ProbeTrack	11.3	WolfelabSpurzheim	20101105.113230	20101105.115405	8	0.011765	60	0	60-180	60	175	GapExp	0	221	2	3	1	target	1	426	787	328345	11.765	11.754	11.777
ProbeTrack12	9	ProbeTrack	11.3	WolfelabSpurzheim	20101105.113230	20101105.115412	8	0.011765	60	10	60-180	60	62	GapExp	0	222	2	1	0	distractor	1	496	752	329097	11.765	11.755	11.775
ProbeTrack12	9	ProbeTrack	11.3	WolfelabSpurzheim	20101105.113230	20101105.115417	8	0.011765	60	0	60-180	60	165	GapExp	0	223	2	0	0	distractor	1	508	746	329843	11.765	11.754	11.776
ProbeTrack12	9	ProbeTrack	11.3	WolfelabSpurzheim	20101105.113230	20101105.115423	8	0.011765	60	0	60-180	60	141	GapExp	0	224	2	0	1	target	1	567	717	330560	11.765	11.754	11.777
ProbeTrack12	9	ProbeTrack	11.3	WolfelabSpurzheim	20101105.113230	20101105.115429	8	0.011765	60	0	60-180	60	157	GapExp	0	225	2	45	1	target	1	390	805	331365	11.765	11.753	11.777
ProbeTrack12	9	ProbeTrack	11.3	WolfelabSpurzheim	20101105.113230	20101105.115437	8	0.011765	60	10	60-180	60	126	GapExp	0	226	2	45	0	distractor	1	556	722	332087	11.765	11.743	11.788
ProbeTrack12	9	ProbeTrack	11.3	WolfelabSpurzheim	20101105.113230	20101105.115444	8	0.011765	60	0	60-180	60	80	GapExp	0	227	2	0	1	target	1	449	776	332863	11.765	11.749	11.781
ProbeTrack12	9	ProbeTrack	11.3	WolfelabSpurzheim	20101105.113230	20101105.115449	8	0.011765	60	0	60-180	60	162	GapExp	0	228	2	0	1	target	1	390	805	333668	11.765	11.754	11.777
ProbeTrack12	9	ProbeTrack	11.3	WolfelabSpurzheim	20101105.113230	20101105.115455	8	0.011765	60	0	60-180	60	71	GapExp	0	229	2	1	0	distractor	1	649	676	334344	11.765	11.753	11.776
ProbeTrack12	9	ProbeTrack	11.3	WolfelabSpurzheim	20101105.113230	20101105.115500	8	0.011765	60	0	60-180	60	136	GapExp	0	230	2	45	0	distractor	1	461	770	335114	11.765	11.753	11.776
ProbeTrack12	9	ProbeTrack	11.3	WolfelabSpurzheim	20101105.113230	20101105.115507	8	0.011765	60	10	60-180	60	142	GapExp	0	231	2	0	1	target	1	766	617	335731	11.765	11.755	11.776
ProbeTrack12	9	ProbeTrack	11.3	WolfelabSpurzheim	20101105.113230	20101105.115513	8	0.011765	60	0	60-180	60	88	GapExp	0	232	2	45	0	distractor	1	497	752	336483	11.765	11.754	11.775
ProbeTrack12	9	ProbeTrack	11.3	WolfelabSpurzheim	20101105.113230	20101105.115518	8	0.011765	60	10	60-180	60	139	GapExp	0	233	2	45	1	target	1	496	752	337235	11.765	11.753	11.777
ProbeTrack12	9	ProbeTrack	11.3	WolfelabSpurzheim	20101105.113230	20101105.115525	8	0.011765	60	10	60-180	60	168	GapExp	0	234	2	0	0	target	0	755	-1000	336235	11.765	11.755	11.776
ProbeTrack12	9	ProbeTrack	11.3	WolfelabSpurzheim	20101105.113230	20101105.115531	8	0.011765	60	10	60-180	60	160	GapExp	0	235	2	0	1	target	1	508	746	336981	11.765	11.753	11.776
ProbeTrack12	9	ProbeTrack	11.3	WolfelabSpurzheim	20101105.113230	20101105.115538	8	0.011765	60	10	60-180	60	179	GapExp	0	236	2	1	1	target	1	473	764	337745	11.765	11.753	11.780
ProbeTrack12	9	ProbeTrack	11.3	WolfelabSpurzheim	20101105.113230	20101105.115544	8	0.011765	60	10	60-180	60	171	GapExp	0	237	2	3	1	target	1	414	793	338538	11.765	11.754	11.776
ProbeTrack12	9	ProbeTrack	11.3	WolfelabSpurzheim	20101105.113230	20101105.115550	8	0.011765	60	10	60-180	60	169	GapExp	0	238	2	1	0	distractor	1	520	740	339278	11.765	11.737	11.801
ProbeTrack12	9	ProbeTrack	11.3	WolfelabSpurzheim	20101105.113230	20101105.115557	8	0.011765	60	0	60-180	60	170	GapExp	0	239	2	3	0	distractor	1	544	728	340006	11.765	11.753	11.780
ProbeTrack12	9	ProbeTrack	11.3	WolfelabSpurzheim	20101105.113230	20101105.115603	8	0.011765	60	10	60-180	60	157	GapExp	0	240	2	1	1	target	1	567	717	340723	11.765	11.755	11.776
ProbeTrack12	9	ProbeTrack	11.3	WolfelabSpurzheim	20101105.113230	20101105.115609	8	0.011765	60	0	60-180	60	67	GapExp	0	241	2	1	0	distractor	1	625	688	341411	11.765	11.754	11.776
ProbeTrack12	9	ProbeTrack	11.3	WolfelabSpurzheim	20101105.113230	20101105.115614	8	0.011765	60	0	60-180	60	151	GapExp	0	242	2	3	1	target	1	485	758	342169	11.765	11.733	11.799
ProbeTrack12	9	ProbeTrack	11.3	WolfelabSpurzheim	20101105.113230	20101105.115620	8	0.011765	60	10	60-180	60	130	GapExp	0	243	2	3	1	target	1	449	776	342945	11.765	11.752	11.777
ProbeTrack12	9	ProbeTrack	11.3	WolfelabSpurzheim	20101105.113230	20101105.115626	8	0.011765	60	0	60-180	60	167	GapExp	0	244	2	1	1	target	1	426	787	343732	11.765	11.753	11.776
ProbeTrack12	9	ProbeTrack	11.3	WolfelabSpurzheim	20101105.113230	20101105.115632	8	0.011765	60	10	60-180	60	170	GapExp	0	245	2	3	1	target	1	367	817	344549	11.765	11.753	11.776
ProbeTrack12	9	ProbeTrack	11.3	WolfelabSpurzheim	20101105.113230	20101105.115639	8	0.011765	60	10	60-180	60	107	GapExp	0	246	2	3	0	distractor	1	555	723	345272	11.765	11.753	11.776
ProbeTrack12	9	ProbeTrack	11.3	WolfelabSpurzheim	20101105.113230	20101105.115644	8	0.011765	60	0	60-180	60	173	GapExp	0	247	2	1	0	distractor	1	543	729	346001	11.765	11.754	11.778
ProbeTrack12	9	ProbeTrack	11.3	WolfelabSpurzheim	20101105.113230	20101105.115650	8	0.011765	60	10	60-180	60	108	GapExp	0	248	2	3	0	distractor	1	462	769	346770	11.765	11.747	11.783
ProbeTrack12	9	ProbeTrack	11.3	WolfelabSpurzheim	20101105.113230	20101105.115656	8	0.011765	60	10	60-180	60	151	GapExp	0	249	2	45	0	distractor	1	555	723	347493	11.765	11.754	11.777
ProbeTrack12	9	ProbeTrack	11.3	WolfelabSpurzheim	20101105.113230	20101105.115702	8	0.011765	60	10	60-180	60	83	GapExp	0	250	2	1	0	distractor	1	485	758	348251	11.765	11.754	11.778
