exp	sub	code	rev	comp	runtime	trialtime	nstim	refreshdur	cuedur	gapdur	gapOnsetRange	durPostProbe	gapOnsetTime	blocktype	prac	trial	ntargets	soa	probeTarget	resp	acc	rt	pts	tpts	meanFrameDur	minFrameDur	maxFrameDur
ProbeTrack12	10	ProbeTrack	11.3	WolfelabSpurzheim	20101109.111816	20101109.111950	8	0.011765	60	0	60-180	60	123	NoGap	1	1	2	0	0	distractor	1	1108	446	446	11.902	11.753	23.532
ProbeTrack12	10	ProbeTrack	11.3	WolfelabSpurzheim	20101109.111816	20101109.112000	8	0.011765	60	0	60-180	60	138	NoGap	1	2	2	45	0	distractor	1	438	781	1227	11.805	11.754	23.533
ProbeTrack12	10	ProbeTrack	11.3	WolfelabSpurzheim	20101109.111816	20101109.112014	8	0.011765	60	0	60-180	60	92	NoGap	1	3	2	1	0	distractor	1	438	781	2008	11.765	11.753	11.777
ProbeTrack12	10	ProbeTrack	11.3	WolfelabSpurzheim	20101109.111816	20101109.112023	8	0.011765	60	0	60-180	60	80	NoGap	1	4	2	45	0	distractor	1	438	781	2789	11.765	11.753	11.776
ProbeTrack12	10	ProbeTrack	11.3	WolfelabSpurzheim	20101109.111816	20101109.112033	8	0.011765	60	0	60-180	60	145	NoGap	1	5	2	1	0	target	0	402	-1000	1789	11.765	11.748	11.787
ProbeTrack12	10	ProbeTrack	11.3	WolfelabSpurzheim	20101109.111816	20101109.112039	8	0.011765	60	0	60-180	60	100	NoGap	1	6	2	0	0	distractor	1	426	787	2576	11.765	11.735	11.794
ProbeTrack12	10	ProbeTrack	11.3	WolfelabSpurzheim	20101109.111816	20101109.112046	8	0.011765	60	0	60-180	60	157	NoGap	1	7	2	45	0	distractor	1	449	776	3352	11.765	11.753	11.777
ProbeTrack12	10	ProbeTrack	11.3	WolfelabSpurzheim	20101109.111816	20101109.112053	8	0.011765	60	0	60-180	60	85	NoGap	1	8	2	3	1	target	1	508	746	4098	11.765	11.754	11.777
ProbeTrack12	10	ProbeTrack	11.3	WolfelabSpurzheim	20101109.111816	20101109.112059	8	0.011765	60	0	60-180	60	134	NoGap	1	9	2	0	1	target	1	602	699	4797	11.765	11.754	11.776
ProbeTrack12	10	ProbeTrack	11.3	WolfelabSpurzheim	20101109.111816	20101109.112105	8	0.011765	60	0	60-180	60	164	NoGap	1	10	2	1	0	distractor	1	461	770	5567	11.765	11.753	11.777
ProbeTrack12	10	ProbeTrack	11.3	WolfelabSpurzheim	20101109.111816	20101109.112112	8	0.011765	60	0	60-180	60	144	NoGap	1	11	2	3	1	target	1	390	805	6372	11.765	11.754	11.776
ProbeTrack12	10	ProbeTrack	11.3	WolfelabSpurzheim	20101109.111816	20101109.112118	8	0.011765	60	0	60-180	60	103	NoGap	1	12	2	3	0	distractor	1	496	752	7124	11.765	11.754	11.776
ProbeTrack12	10	ProbeTrack	11.3	WolfelabSpurzheim	20101109.111816	20101109.112123	8	0.011765	60	0	60-180	60	98	NoGap	1	13	2	0	1	target	1	284	858	7982	11.765	11.724	11.805
ProbeTrack12	10	ProbeTrack	11.3	WolfelabSpurzheim	20101109.111816	20101109.112129	8	0.011765	60	0	60-180	60	118	NoGap	1	14	2	1	1	target	1	437	782	8764	11.765	11.755	11.776
ProbeTrack12	10	ProbeTrack	11.3	WolfelabSpurzheim	20101109.111816	20101109.112134	8	0.011765	60	0	60-180	60	169	NoGap	1	15	2	1	1	target	1	520	740	9504	11.765	11.751	11.777
ProbeTrack12	10	ProbeTrack	11.3	WolfelabSpurzheim	20101109.111816	20101109.112141	8	0.011765	60	0	60-180	60	92	NoGap	1	16	2	1	0	distractor	1	496	752	10256	11.765	11.755	11.776
ProbeTrack12	10	ProbeTrack	11.3	WolfelabSpurzheim	20101109.111816	20101109.112146	8	0.011765	60	0	60-180	60	129	NoGap	1	17	2	0	1	target	1	355	823	11079	11.765	11.755	11.776
ProbeTrack12	10	ProbeTrack	11.3	WolfelabSpurzheim	20101109.111816	20101109.112152	8	0.011765	60	0	60-180	60	91	NoGap	1	18	2	1	1	target	1	708	646	11725	11.765	11.730	11.794
ProbeTrack12	10	ProbeTrack	11.3	WolfelabSpurzheim	20101109.111816	20101109.112158	8	0.011765	60	0	60-180	60	85	NoGap	1	19	2	3	0	distractor	1	603	699	12424	11.765	11.754	11.775
ProbeTrack12	10	ProbeTrack	11.3	WolfelabSpurzheim	20101109.111816	20101109.112203	8	0.011765	60	0	60-180	60	137	NoGap	1	20	2	45	1	target	1	379	811	13235	11.765	11.753	11.776
ProbeTrack12	10	ProbeTrack	11.3	WolfelabSpurzheim	20101109.111816	20101109.112210	8	0.011765	60	0	60-180	60	180	NoGap	1	21	2	3	1	target	1	379	811	14046	11.765	11.752	11.778
ProbeTrack12	10	ProbeTrack	11.3	WolfelabSpurzheim	20101109.111816	20101109.112216	8	0.011765	60	0	60-180	60	90	NoGap	1	22	2	3	0	distractor	1	532	734	14780	11.765	11.754	11.776
ProbeTrack12	10	ProbeTrack	11.3	WolfelabSpurzheim	20101109.111816	20101109.112222	8	0.011765	60	0	60-180	60	91	NoGap	1	23	2	0	1	target	1	355	823	15603	11.765	11.754	11.776
ProbeTrack12	10	ProbeTrack	11.3	WolfelabSpurzheim	20101109.111816	20101109.112228	8	0.011765	60	0	60-180	60	82	NoGap	1	24	2	3	0	distractor	1	473	764	16367	11.765	11.754	11.776
ProbeTrack12	10	ProbeTrack	11.3	WolfelabSpurzheim	20101109.111816	20101109.112234	8	0.011765	60	0	60-180	60	102	NoGap	1	25	2	0	0	distractor	1	484	758	17125	11.765	11.755	11.777
ProbeTrack12	10	ProbeTrack	11.3	WolfelabSpurzheim	20101109.111816	20101109.112240	8	0.011765	60	0	60-180	60	177	NoGap	1	26	2	45	1	target	1	438	781	17906	11.765	11.753	11.777
ProbeTrack12	10	ProbeTrack	11.3	WolfelabSpurzheim	20101109.111816	20101109.112247	8	0.011765	60	0	60-180	60	177	NoGap	1	27	2	45	1	target	1	402	799	18705	11.765	11.753	11.776
ProbeTrack12	10	ProbeTrack	11.3	WolfelabSpurzheim	20101109.111816	20101109.112255	8	0.011765	60	0	60-180	60	77	NoGap	1	28	2	0	0	distractor	1	543	729	19434	11.765	11.755	11.775
ProbeTrack12	10	ProbeTrack	11.3	WolfelabSpurzheim	20101109.111816	20101109.112300	8	0.011765	60	0	60-180	60	66	NoGap	1	29	2	3	1	target	1	673	664	20098	11.765	11.753	11.776
ProbeTrack12	10	ProbeTrack	11.3	WolfelabSpurzheim	20101109.111816	20101109.112306	8	0.011765	60	0	60-180	60	138	NoGap	1	30	2	45	1	target	1	390	805	20903	11.765	11.735	11.794
ProbeTrack12	10	ProbeTrack	11.3	WolfelabSpurzheim	20101109.111816	20101109.112312	8	0.011765	60	0	60-180	60	69	NoGap	1	31	2	0	0	distractor	1	496	752	21655	11.765	11.743	11.791
ProbeTrack12	10	ProbeTrack	11.3	WolfelabSpurzheim	20101109.111816	20101109.112318	8	0.011765	60	0	60-180	60	75	NoGap	1	32	2	3	0	distractor	1	461	770	22425	11.765	11.754	11.779
ProbeTrack12	10	ProbeTrack	11.3	WolfelabSpurzheim	20101109.111816	20101109.112323	8	0.011765	60	0	60-180	60	93	NoGap	1	33	2	0	1	target	1	379	811	23236	11.765	11.752	11.777
ProbeTrack12	10	ProbeTrack	11.3	WolfelabSpurzheim	20101109.111816	20101109.112329	8	0.011765	60	0	60-180	60	78	NoGap	1	34	2	45	1	distractor	0	437	-1000	22236	11.765	11.745	11.786
ProbeTrack12	10	ProbeTrack	11.3	WolfelabSpurzheim	20101109.111816	20101109.112334	8	0.011765	60	0	60-180	60	77	NoGap	1	35	2	3	1	target	1	508	746	22982	11.765	11.730	11.789
ProbeTrack12	10	ProbeTrack	11.3	WolfelabSpurzheim	20101109.111816	20101109.112340	8	0.011765	60	0	60-180	60	118	NoGap	1	36	2	1	1	target	1	708	646	23628	11.765	11.754	11.776
ProbeTrack12	10	ProbeTrack	11.3	WolfelabSpurzheim	20101109.111816	20101109.112346	8	0.011765	60	0	60-180	60	84	NoGap	1	37	2	45	0	distractor	1	637	682	24310	11.765	11.754	11.777
ProbeTrack12	10	ProbeTrack	11.3	WolfelabSpurzheim	20101109.111816	20101109.112352	8	0.011765	60	0	60-180	60	87	NoGap	1	38	2	45	0	distractor	1	532	734	25044	11.765	11.732	11.795
ProbeTrack12	10	ProbeTrack	11.3	WolfelabSpurzheim	20101109.111816	20101109.112358	8	0.011765	60	0	60-180	60	179	NoGap	1	39	2	1	0	distractor	1	626	687	25731	11.765	11.748	11.783
ProbeTrack12	10	ProbeTrack	11.3	WolfelabSpurzheim	20101109.111816	20101109.112405	8	0.011765	60	0	60-180	60	130	NoGap	1	40	2	1	1	target	1	590	705	26436	11.765	11.753	11.779
ProbeTrack12	10	ProbeTrack	11.3	WolfelabSpurzheim	20101109.112453	20101109.112507	8	0.011766	60	10	60-180	60	114	GapPrac	1	1	2	45	0	44	-3	7037	-1000	25436	11.881	11.737	23.533
ProbeTrack12	10	ProbeTrack	11.3	WolfelabSpurzheim	20101109.112453	20101109.112521	8	0.011766	60	10	60-180	60	169	GapPrac	1	2	2	1	1	target	1	755	623	26059	11.840	11.742	11.787
ProbeTrack12	10	ProbeTrack	11.3	WolfelabSpurzheim	20101109.112453	20101109.112528	8	0.011766	60	10	60-180	60	128	GapPrac	1	3	2	45	1	target	1	496	752	26811	11.804	11.754	23.536
ProbeTrack12	10	ProbeTrack	11.3	WolfelabSpurzheim	20101109.112453	20101109.112538	8	0.011766	60	10	60-180	60	135	GapPrac	1	4	2	1	0	distractor	1	637	682	27493	11.765	11.754	11.777
ProbeTrack12	10	ProbeTrack	11.3	WolfelabSpurzheim	20101109.112453	20101109.112544	8	0.011766	60	10	60-180	60	74	GapPrac	1	5	2	1	0	distractor	1	544	728	28221	11.765	11.755	11.777
ProbeTrack12	10	ProbeTrack	11.3	WolfelabSpurzheim	20101109.112453	20101109.112549	8	0.011766	60	10	60-180	60	140	GapPrac	1	6	2	45	1	target	1	802	599	28820	11.765	11.754	11.777
ProbeTrack12	10	ProbeTrack	11.3	WolfelabSpurzheim	20101109.112453	20101109.112557	8	0.011766	60	0	60-180	60	81	GapPrac	1	7	2	3	0	distractor	1	766	617	29437	11.819	11.754	23.527
ProbeTrack12	10	ProbeTrack	11.3	WolfelabSpurzheim	20101109.112453	20101109.112603	8	0.011766	60	10	60-180	60	65	GapPrac	1	8	2	45	0	distractor	1	555	723	30160	11.765	11.755	11.776
ProbeTrack12	10	ProbeTrack	11.3	WolfelabSpurzheim	20101109.112453	20101109.112609	8	0.011766	60	10	60-180	60	164	GapPrac	1	9	2	1	1	target	1	708	646	30806	11.765	11.730	11.804
ProbeTrack12	10	ProbeTrack	11.3	WolfelabSpurzheim	20101109.112453	20101109.112616	8	0.011766	60	10	60-180	60	77	GapPrac	1	10	2	3	1	target	1	473	764	31570	11.765	11.754	11.775
ProbeTrack12	10	ProbeTrack	11.3	WolfelabSpurzheim	20101109.112453	20101109.112622	8	0.011766	60	0	60-180	60	144	GapPrac	1	11	2	0	0	distractor	1	861	570	32140	11.765	11.753	11.776
ProbeTrack12	10	ProbeTrack	11.3	WolfelabSpurzheim	20101109.112453	20101109.112628	8	0.011766	60	10	60-180	60	135	GapPrac	1	12	2	0	0	distractor	1	591	705	32845	11.765	11.741	11.785
ProbeTrack12	10	ProbeTrack	11.3	WolfelabSpurzheim	20101109.112453	20101109.112635	8	0.011766	60	10	60-180	60	86	GapPrac	1	13	2	0	1	target	1	590	705	33550	11.765	11.754	11.777
ProbeTrack12	10	ProbeTrack	11.3	WolfelabSpurzheim	20101109.112453	20101109.112640	8	0.011766	60	0	60-180	60	144	GapPrac	1	14	2	1	0	distractor	1	579	711	34261	11.765	11.755	11.776
ProbeTrack12	10	ProbeTrack	11.3	WolfelabSpurzheim	20101109.112453	20101109.112647	8	0.011766	60	10	60-180	60	138	GapPrac	1	15	2	3	0	distractor	1	508	746	35007	11.765	11.742	11.797
ProbeTrack12	10	ProbeTrack	11.3	WolfelabSpurzheim	20101109.112453	20101109.112653	8	0.011766	60	0	60-180	60	118	GapPrac	1	16	2	45	1	target	1	614	693	35700	11.765	11.754	11.776
ProbeTrack12	10	ProbeTrack	11.3	WolfelabSpurzheim	20101109.112453	20101109.112659	8	0.011766	60	0	60-180	60	97	GapPrac	1	17	2	3	1	target	1	1084	458	36158	11.765	11.754	11.776
ProbeTrack12	10	ProbeTrack	11.3	WolfelabSpurzheim	20101109.112453	20101109.112705	8	0.011766	60	0	60-180	60	152	GapPrac	1	18	2	45	0	distractor	1	579	711	36869	11.765	11.737	11.791
ProbeTrack12	10	ProbeTrack	11.3	WolfelabSpurzheim	20101109.112453	20101109.112712	8	0.011766	60	0	60-180	60	131	GapPrac	1	19	2	0	1	target	1	426	787	37656	11.765	11.754	11.775
ProbeTrack12	10	ProbeTrack	11.3	WolfelabSpurzheim	20101109.112453	20101109.112718	8	0.011766	60	0	60-180	60	103	GapPrac	1	20	2	1	1	target	1	555	723	38379	11.765	11.754	11.776
ProbeTrack12	10	ProbeTrack	11.3	WolfelabSpurzheim	20101109.112814	20101109.112833	8	0.011766	60	10	60-180	60	102	GapExp	1	1	2	0	0	distractor	1	473	764	39143	11.919	11.754	23.533
ProbeTrack12	10	ProbeTrack	11.3	WolfelabSpurzheim	20101109.112814	20101109.112840	8	0.011766	60	0	60-180	60	124	GapExp	1	2	2	3	0	distractor	1	367	817	39960	11.815	11.754	23.530
ProbeTrack12	10	ProbeTrack	11.3	WolfelabSpurzheim	20101109.112814	20101109.112846	8	0.011766	60	0	60-180	60	132	GapExp	1	3	2	0	1	target	1	402	799	40759	11.765	11.755	11.776
ProbeTrack12	10	ProbeTrack	11.3	WolfelabSpurzheim	20101109.112814	20101109.112851	8	0.011766	60	10	60-180	60	162	GapExp	1	4	2	1	0	distractor	1	520	740	41499	11.765	11.753	11.776
ProbeTrack12	10	ProbeTrack	11.3	WolfelabSpurzheim	20101109.112814	20101109.112858	8	0.011766	60	0	60-180	60	77	GapExp	1	5	2	3	1	target	1	426	787	42286	11.887	11.735	11.795
ProbeTrack12	10	ProbeTrack	11.3	WolfelabSpurzheim	20101109.112814	20101109.112903	8	0.011766	60	0	60-180	60	91	GapExp	1	6	2	1	1	target	1	461	770	43056	11.822	11.754	23.543
ProbeTrack12	10	ProbeTrack	11.3	WolfelabSpurzheim	20101109.112814	20101109.112909	8	0.011766	60	0	60-180	60	86	GapExp	1	7	2	0	0	distractor	1	449	776	43832	11.765	11.754	11.776
ProbeTrack12	10	ProbeTrack	11.3	WolfelabSpurzheim	20101109.112814	20101109.112914	8	0.011766	60	10	60-180	60	125	GapExp	1	8	2	3	1	target	1	461	770	44602	11.765	11.721	11.812
ProbeTrack12	10	ProbeTrack	11.3	WolfelabSpurzheim	20101109.112814	20101109.112919	8	0.011766	60	10	60-180	60	67	GapExp	1	9	2	1	1	target	1	390	805	45407	11.765	11.754	11.776
ProbeTrack12	10	ProbeTrack	11.3	WolfelabSpurzheim	20101109.112814	20101109.112924	8	0.011766	60	10	60-180	60	176	GapExp	1	10	2	45	0	distractor	1	508	746	46153	11.765	11.740	11.787
ProbeTrack12	10	ProbeTrack	11.3	WolfelabSpurzheim	20101109.112814	20101109.112932	8	0.011766	60	10	60-180	60	119	GapExp	0	11	2	1	1	target	1	602	699	46852	11.765	11.755	11.778
ProbeTrack12	10	ProbeTrack	11.3	WolfelabSpurzheim	20101109.112814	20101109.112938	8	0.011766	60	10	60-180	60	174	GapExp	0	12	2	0	0	distractor	1	532	734	47586	11.765	11.754	11.776
ProbeTrack12	10	ProbeTrack	11.3	WolfelabSpurzheim	20101109.112814	20101109.112945	8	0.011766	60	0	60-180	60	130	GapExp	0	13	2	45	0	distractor	1	543	729	48315	11.765	11.753	11.776
ProbeTrack12	10	ProbeTrack	11.3	WolfelabSpurzheim	20101109.112814	20101109.112952	8	0.011766	60	10	60-180	60	84	GapExp	0	14	2	45	1	target	1	426	787	49102	11.765	11.753	11.775
ProbeTrack12	10	ProbeTrack	11.3	WolfelabSpurzheim	20101109.112814	20101109.112958	8	0.011766	60	10	60-180	60	175	GapExp	0	15	2	45	0	distractor	1	379	811	49913	11.765	11.755	11.777
ProbeTrack12	10	ProbeTrack	11.3	WolfelabSpurzheim	20101109.112814	20101109.113005	8	0.011766	60	10	60-180	60	161	GapExp	0	16	2	45	1	target	1	449	776	50689	11.765	11.743	11.790
ProbeTrack12	10	ProbeTrack	11.3	WolfelabSpurzheim	20101109.112814	20101109.113012	8	0.011766	60	10	60-180	60	129	GapExp	0	17	2	3	0	distractor	1	438	781	51470	11.765	11.753	11.776
ProbeTrack12	10	ProbeTrack	11.3	WolfelabSpurzheim	20101109.112814	20101109.113018	8	0.011766	60	0	60-180	60	89	GapExp	0	18	2	0	0	distractor	1	602	699	52169	11.765	11.754	11.776
ProbeTrack12	10	ProbeTrack	11.3	WolfelabSpurzheim	20101109.112814	20101109.113023	8	0.011766	60	0	60-180	60	137	GapExp	0	19	2	3	1	target	1	544	728	52897	11.765	11.754	11.776
ProbeTrack12	10	ProbeTrack	11.3	WolfelabSpurzheim	20101109.112814	20101109.113029	8	0.011766	60	10	60-180	60	155	GapExp	0	20	2	3	1	target	1	590	705	53602	11.765	11.754	11.777
ProbeTrack12	10	ProbeTrack	11.3	WolfelabSpurzheim	20101109.112814	20101109.113036	8	0.011766	60	0	60-180	60	88	GapExp	0	21	2	3	0	distractor	1	485	758	54360	11.765	11.753	11.776
ProbeTrack12	10	ProbeTrack	11.3	WolfelabSpurzheim	20101109.112814	20101109.113041	8	0.011766	60	0	60-180	60	134	GapExp	0	22	2	1	0	distractor	1	414	793	55153	11.765	11.727	11.802
ProbeTrack12	10	ProbeTrack	11.3	WolfelabSpurzheim	20101109.112814	20101109.113047	8	0.011766	60	10	60-180	60	127	GapExp	0	23	2	3	0	distractor	1	743	629	55782	11.765	11.755	11.776
ProbeTrack12	10	ProbeTrack	11.3	WolfelabSpurzheim	20101109.112814	20101109.113053	8	0.011766	60	0	60-180	60	78	GapExp	0	24	2	45	1	target	1	426	787	56569	11.765	11.754	11.775
ProbeTrack12	10	ProbeTrack	11.3	WolfelabSpurzheim	20101109.112814	20101109.113059	8	0.011766	60	0	60-180	60	161	GapExp	0	25	2	3	0	distractor	1	461	770	57339	11.765	11.754	11.776
ProbeTrack12	10	ProbeTrack	11.3	WolfelabSpurzheim	20101109.112814	20101109.113105	8	0.011766	60	10	60-180	60	146	GapExp	0	26	2	0	1	target	1	438	781	58120	11.765	11.754	11.775
ProbeTrack12	10	ProbeTrack	11.3	WolfelabSpurzheim	20101109.112814	20101109.113112	8	0.011766	60	10	60-180	60	125	GapExp	0	27	2	0	0	target	0	414	-1000	57120	11.765	11.753	11.778
ProbeTrack12	10	ProbeTrack	11.3	WolfelabSpurzheim	20101109.112814	20101109.113117	8	0.011766	60	10	60-180	60	165	GapExp	0	28	2	45	1	target	1	508	746	57866	11.765	11.753	11.776
ProbeTrack12	10	ProbeTrack	11.3	WolfelabSpurzheim	20101109.112814	20101109.113124	8	0.011766	60	10	60-180	60	66	GapExp	0	29	2	1	1	target	1	449	776	58642	11.765	11.754	11.776
ProbeTrack12	10	ProbeTrack	11.3	WolfelabSpurzheim	20101109.112814	20101109.113130	8	0.011766	60	0	60-180	60	88	GapExp	0	30	2	45	1	target	1	473	764	59406	11.765	11.755	11.777
ProbeTrack12	10	ProbeTrack	11.3	WolfelabSpurzheim	20101109.112814	20101109.113135	8	0.011766	60	10	60-180	60	95	GapExp	0	31	2	3	1	target	1	356	822	60228	11.765	11.745	11.778
ProbeTrack12	10	ProbeTrack	11.3	WolfelabSpurzheim	20101109.112814	20101109.113141	8	0.011766	60	10	60-180	60	70	GapExp	0	32	2	3	0	target	0	837	-1000	59228	11.765	11.755	11.776
ProbeTrack12	10	ProbeTrack	11.3	WolfelabSpurzheim	20101109.112814	20101109.113146	8	0.011766	60	10	60-180	60	62	GapExp	0	33	2	0	0	distractor	1	484	758	59986	11.765	11.753	11.775
ProbeTrack12	10	ProbeTrack	11.3	WolfelabSpurzheim	20101109.112814	20101109.113151	8	0.011766	60	0	60-180	60	73	GapExp	0	34	2	3	0	distractor	1	508	746	60732	11.765	11.754	11.776
ProbeTrack12	10	ProbeTrack	11.3	WolfelabSpurzheim	20101109.112814	20101109.113157	8	0.011766	60	0	60-180	60	91	GapExp	0	35	2	45	1	target	1	402	799	61531	11.765	11.754	11.776
ProbeTrack12	10	ProbeTrack	11.3	WolfelabSpurzheim	20101109.112814	20101109.113202	8	0.011766	60	10	60-180	60	70	GapExp	0	36	2	3	1	target	1	438	781	62312	11.765	11.754	11.777
ProbeTrack12	10	ProbeTrack	11.3	WolfelabSpurzheim	20101109.112814	20101109.113207	8	0.011766	60	10	60-180	60	70	GapExp	0	37	2	0	1	distractor	0	367	-1000	61312	11.765	11.755	11.775
ProbeTrack12	10	ProbeTrack	11.3	WolfelabSpurzheim	20101109.112814	20101109.113212	8	0.011766	60	10	60-180	60	126	GapExp	0	38	2	0	1	target	1	508	746	62058	11.765	11.753	11.776
ProbeTrack12	10	ProbeTrack	11.3	WolfelabSpurzheim	20101109.112814	20101109.113219	8	0.011766	60	10	60-180	60	128	GapExp	0	39	2	0	0	distractor	1	532	734	62792	11.765	11.754	11.776
ProbeTrack12	10	ProbeTrack	11.3	WolfelabSpurzheim	20101109.112814	20101109.113225	8	0.011766	60	0	60-180	60	144	GapExp	0	40	2	1	0	distractor	1	579	711	63503	11.765	11.754	11.776
ProbeTrack12	10	ProbeTrack	11.3	WolfelabSpurzheim	20101109.112814	20101109.113231	8	0.011766	60	10	60-180	60	96	GapExp	0	41	2	1	0	target	0	626	-1000	62503	11.765	11.753	11.776
ProbeTrack12	10	ProbeTrack	11.3	WolfelabSpurzheim	20101109.112814	20101109.113237	8	0.011766	60	10	60-180	60	77	GapExp	0	42	2	0	0	distractor	1	520	740	63243	11.765	11.754	11.775
ProbeTrack12	10	ProbeTrack	11.3	WolfelabSpurzheim	20101109.112814	20101109.113242	8	0.011766	60	0	60-180	60	83	GapExp	0	43	2	3	0	distractor	1	567	717	63960	11.765	11.754	11.775
ProbeTrack12	10	ProbeTrack	11.3	WolfelabSpurzheim	20101109.112814	20101109.113248	8	0.011766	60	0	60-180	60	118	GapExp	0	44	2	1	1	target	1	450	775	64735	11.765	11.754	11.777
ProbeTrack12	10	ProbeTrack	11.3	WolfelabSpurzheim	20101109.112814	20101109.113255	8	0.011766	60	0	60-180	60	172	GapExp	0	45	2	45	1	target	1	555	723	65458	11.765	11.755	11.777
ProbeTrack12	10	ProbeTrack	11.3	WolfelabSpurzheim	20101109.112814	20101109.113302	8	0.011766	60	10	60-180	60	84	GapExp	0	46	2	1	1	target	1	485	758	66216	11.765	11.753	11.774
ProbeTrack12	10	ProbeTrack	11.3	WolfelabSpurzheim	20101109.112814	20101109.113307	8	0.011766	60	10	60-180	60	85	GapExp	0	47	2	0	1	target	1	437	782	66998	11.765	11.754	11.778
ProbeTrack12	10	ProbeTrack	11.3	WolfelabSpurzheim	20101109.112814	20101109.113312	8	0.011766	60	0	60-180	60	108	GapExp	0	48	2	0	1	target	1	402	799	67797	11.765	11.721	11.812
ProbeTrack12	10	ProbeTrack	11.3	WolfelabSpurzheim	20101109.112814	20101109.113318	8	0.011766	60	0	60-180	60	89	GapExp	0	49	2	3	1	target	1	403	799	68596	11.765	11.754	11.777
ProbeTrack12	10	ProbeTrack	11.3	WolfelabSpurzheim	20101109.112814	20101109.113323	8	0.011766	60	10	60-180	60	119	GapExp	0	50	2	45	0	distractor	1	485	758	69354	11.765	11.753	11.779
ProbeTrack12	10	ProbeTrack	11.3	WolfelabSpurzheim	20101109.112814	20101109.113329	8	0.011766	60	10	60-180	60	83	GapExp	0	51	2	1	1	target	1	544	728	70082	11.765	11.754	11.777
ProbeTrack12	10	ProbeTrack	11.3	WolfelabSpurzheim	20101109.112814	20101109.113335	8	0.011766	60	0	60-180	60	138	GapExp	0	52	2	0	0	distractor	1	473	764	70846	11.765	11.755	11.777
ProbeTrack12	10	ProbeTrack	11.3	WolfelabSpurzheim	20101109.112814	20101109.113340	8	0.011766	60	10	60-180	60	176	GapExp	0	53	2	45	0	distractor	1	543	729	71575	11.765	11.754	11.776
ProbeTrack12	10	ProbeTrack	11.3	WolfelabSpurzheim	20101109.112814	20101109.113348	8	0.011766	60	0	60-180	60	73	GapExp	0	54	2	1	0	distractor	1	508	746	72321	11.765	11.754	11.777
ProbeTrack12	10	ProbeTrack	11.3	WolfelabSpurzheim	20101109.112814	20101109.113352	8	0.011766	60	0	60-180	60	173	GapExp	0	55	2	0	0	distractor	1	437	782	73103	11.765	11.755	11.776
ProbeTrack12	10	ProbeTrack	11.3	WolfelabSpurzheim	20101109.112814	20101109.113359	8	0.011766	60	10	60-180	60	73	GapExp	0	56	2	0	1	target	1	414	793	73896	11.765	11.754	11.775
ProbeTrack12	10	ProbeTrack	11.3	WolfelabSpurzheim	20101109.112814	20101109.113404	8	0.011766	60	10	60-180	60	109	GapExp	0	57	2	1	1	target	1	426	787	74683	11.816	11.752	23.544
ProbeTrack12	10	ProbeTrack	11.3	WolfelabSpurzheim	20101109.112814	20101109.113409	8	0.011766	60	10	60-180	60	64	GapExp	0	58	2	0	1	target	1	473	764	75447	11.765	11.754	11.775
ProbeTrack12	10	ProbeTrack	11.3	WolfelabSpurzheim	20101109.112814	20101109.113415	8	0.011766	60	0	60-180	60	171	GapExp	0	59	2	1	0	distractor	1	461	770	76217	11.765	11.753	11.777
ProbeTrack12	10	ProbeTrack	11.3	WolfelabSpurzheim	20101109.112814	20101109.113421	8	0.011766	60	10	60-180	60	148	GapExp	0	60	2	3	0	distractor	1	426	787	77004	11.765	11.754	11.777
ProbeTrack12	10	ProbeTrack	11.3	WolfelabSpurzheim	20101109.112814	20101109.113427	8	0.011766	60	0	60-180	60	109	GapExp	0	61	2	45	0	distractor	1	461	770	77774	11.765	11.754	11.776
ProbeTrack12	10	ProbeTrack	11.3	WolfelabSpurzheim	20101109.112814	20101109.113433	8	0.011766	60	10	60-180	60	173	GapExp	0	62	2	45	0	distractor	1	884	558	78332	11.765	11.752	11.783
ProbeTrack12	10	ProbeTrack	11.3	WolfelabSpurzheim	20101109.112814	20101109.113440	8	0.011766	60	0	60-180	60	111	GapExp	0	63	2	0	1	target	1	496	752	79084	11.765	11.755	11.776
ProbeTrack12	10	ProbeTrack	11.3	WolfelabSpurzheim	20101109.112814	20101109.113446	8	0.011766	60	0	60-180	60	69	GapExp	0	64	2	1	1	target	1	531	735	79819	11.765	11.748	11.787
ProbeTrack12	10	ProbeTrack	11.3	WolfelabSpurzheim	20101109.112814	20101109.113451	8	0.011766	60	0	60-180	60	148	GapExp	0	65	2	3	0	distractor	1	473	764	80583	11.765	11.754	11.777
ProbeTrack12	10	ProbeTrack	11.3	WolfelabSpurzheim	20101109.112814	20101109.113457	8	0.011766	60	0	60-180	60	87	GapExp	0	66	2	1	0	distractor	1	473	764	81347	11.765	11.754	11.777
ProbeTrack12	10	ProbeTrack	11.3	WolfelabSpurzheim	20101109.112814	20101109.113502	8	0.011766	60	10	60-180	60	160	GapExp	0	67	2	0	1	target	1	496	752	82099	11.765	11.755	11.775
ProbeTrack12	10	ProbeTrack	11.3	WolfelabSpurzheim	20101109.112814	20101109.113509	8	0.011766	60	10	60-180	60	174	GapExp	0	68	2	1	1	target	1	461	770	82869	11.765	11.752	11.776
ProbeTrack12	10	ProbeTrack	11.3	WolfelabSpurzheim	20101109.112814	20101109.113516	8	0.011766	60	0	60-180	60	143	GapExp	0	69	2	0	0	distractor	1	532	734	83603	11.765	11.753	11.776
ProbeTrack12	10	ProbeTrack	11.3	WolfelabSpurzheim	20101109.112814	20101109.113522	8	0.011766	60	10	60-180	60	81	GapExp	0	70	2	3	0	distractor	1	449	776	84379	11.765	11.753	11.776
ProbeTrack12	10	ProbeTrack	11.3	WolfelabSpurzheim	20101109.112814	20101109.113527	8	0.011766	60	10	60-180	60	86	GapExp	0	71	2	45	1	target	1	438	781	85160	11.765	11.743	11.789
ProbeTrack12	10	ProbeTrack	11.3	WolfelabSpurzheim	20101109.112814	20101109.113533	8	0.011766	60	0	60-180	60	145	GapExp	0	72	2	45	1	target	1	555	723	85883	11.765	11.753	11.776
ProbeTrack12	10	ProbeTrack	11.3	WolfelabSpurzheim	20101109.112814	20101109.113540	8	0.011766	60	0	60-180	60	116	GapExp	0	73	2	0	1	target	1	414	793	86676	11.765	11.754	11.776
ProbeTrack12	10	ProbeTrack	11.3	WolfelabSpurzheim	20101109.112814	20101109.113545	8	0.011766	60	0	60-180	60	126	GapExp	0	74	2	45	1	target	1	437	782	87458	11.765	11.754	11.776
ProbeTrack12	10	ProbeTrack	11.3	WolfelabSpurzheim	20101109.112814	20101109.113551	8	0.011766	60	10	60-180	60	120	GapExp	0	75	2	1	0	target	0	637	-1000	86458	11.765	11.755	11.776
ProbeTrack12	10	ProbeTrack	11.3	WolfelabSpurzheim	20101109.112814	20101109.113557	8	0.011766	60	0	60-180	60	127	GapExp	0	76	2	3	0	distractor	1	485	758	87216	11.765	11.742	11.783
ProbeTrack12	10	ProbeTrack	11.3	WolfelabSpurzheim	20101109.112814	20101109.113603	8	0.011766	60	0	60-180	60	76	GapExp	0	77	2	1	0	distractor	1	496	752	87968	11.765	11.746	11.793
ProbeTrack12	10	ProbeTrack	11.3	WolfelabSpurzheim	20101109.112814	20101109.113608	8	0.011766	60	0	60-180	60	156	GapExp	0	78	2	0	0	distractor	1	461	770	88738	11.765	11.739	11.785
ProbeTrack12	10	ProbeTrack	11.3	WolfelabSpurzheim	20101109.112814	20101109.113615	8	0.011766	60	10	60-180	60	157	GapExp	0	79	2	45	0	distractor	1	461	770	89508	11.765	11.753	11.776
ProbeTrack12	10	ProbeTrack	11.3	WolfelabSpurzheim	20101109.112814	20101109.113621	8	0.011766	60	0	60-180	60	75	GapExp	0	80	2	1	0	distractor	1	532	734	90242	11.765	11.731	11.804
ProbeTrack12	10	ProbeTrack	11.3	WolfelabSpurzheim	20101109.112814	20101109.113627	8	0.011766	60	0	60-180	60	75	GapExp	0	81	2	0	0	distractor	1	532	734	90976	11.765	11.721	11.802
ProbeTrack12	10	ProbeTrack	11.3	WolfelabSpurzheim	20101109.112814	20101109.113632	8	0.011766	60	10	60-180	60	82	GapExp	0	82	2	45	1	target	1	438	781	91757	11.765	11.754	11.776
ProbeTrack12	10	ProbeTrack	11.3	WolfelabSpurzheim	20101109.112814	20101109.113638	8	0.011766	60	0	60-180	60	126	GapExp	0	83	2	1	1	target	1	379	811	92568	11.765	11.742	11.784
ProbeTrack12	10	ProbeTrack	11.3	WolfelabSpurzheim	20101109.112814	20101109.113643	8	0.011766	60	10	60-180	60	95	GapExp	0	84	2	0	0	distractor	1	450	775	93343	11.765	11.754	11.775
ProbeTrack12	10	ProbeTrack	11.3	WolfelabSpurzheim	20101109.112814	20101109.113649	8	0.011766	60	0	60-180	60	77	GapExp	0	85	2	3	1	target	1	414	793	94136	11.765	11.754	11.776
ProbeTrack12	10	ProbeTrack	11.3	WolfelabSpurzheim	20101109.112814	20101109.113654	8	0.011766	60	0	60-180	60	83	GapExp	0	86	2	45	0	distractor	1	496	752	94888	11.765	11.753	11.776
ProbeTrack12	10	ProbeTrack	11.3	WolfelabSpurzheim	20101109.112814	20101109.113700	8	0.011766	60	0	60-180	60	146	GapExp	0	87	2	45	0	distractor	1	414	793	95681	11.765	11.746	11.791
ProbeTrack12	10	ProbeTrack	11.3	WolfelabSpurzheim	20101109.112814	20101109.113706	8	0.011766	60	0	60-180	60	177	GapExp	0	88	2	45	0	distractor	1	544	728	96409	11.765	11.754	11.777
ProbeTrack12	10	ProbeTrack	11.3	WolfelabSpurzheim	20101109.112814	20101109.113714	8	0.011766	60	10	60-180	60	112	GapExp	0	89	2	45	0	distractor	1	367	817	97226	11.765	11.753	11.776
ProbeTrack12	10	ProbeTrack	11.3	WolfelabSpurzheim	20101109.112814	20101109.113720	8	0.011766	60	10	60-180	60	116	GapExp	0	90	2	45	1	target	1	544	728	97954	11.765	11.755	11.776
ProbeTrack12	10	ProbeTrack	11.3	WolfelabSpurzheim	20101109.112814	20101109.113726	8	0.011766	60	0	60-180	60	158	GapExp	0	91	2	1	1	target	1	390	805	98759	11.765	11.754	11.776
ProbeTrack12	10	ProbeTrack	11.3	WolfelabSpurzheim	20101109.112814	20101109.113732	8	0.011766	60	0	60-180	60	143	GapExp	0	92	2	1	1	target	1	391	805	99564	11.765	11.754	11.777
ProbeTrack12	10	ProbeTrack	11.3	WolfelabSpurzheim	20101109.112814	20101109.113738	8	0.011766	60	0	60-180	60	122	GapExp	0	93	2	45	1	target	1	426	787	100351	11.765	11.754	11.777
ProbeTrack12	10	ProbeTrack	11.3	WolfelabSpurzheim	20101109.112814	20101109.113744	8	0.011766	60	0	60-180	60	96	GapExp	0	94	2	3	1	target	1	461	770	101121	11.765	11.718	11.815
ProbeTrack12	10	ProbeTrack	11.3	WolfelabSpurzheim	20101109.112814	20101109.113750	8	0.011766	60	0	60-180	60	135	GapExp	0	95	2	1	1	target	1	355	823	101944	11.765	11.754	11.775
ProbeTrack12	10	ProbeTrack	11.3	WolfelabSpurzheim	20101109.112814	20101109.113756	8	0.011766	60	0	60-180	60	170	GapExp	0	96	2	0	1	target	1	484	758	102702	11.765	11.755	11.775
ProbeTrack12	10	ProbeTrack	11.3	WolfelabSpurzheim	20101109.112814	20101109.113802	8	0.011766	60	10	60-180	60	124	GapExp	0	97	2	1	1	target	1	461	770	103472	11.765	11.755	11.777
ProbeTrack12	10	ProbeTrack	11.3	WolfelabSpurzheim	20101109.112814	20101109.113808	8	0.011766	60	10	60-180	60	161	GapExp	0	98	2	0	0	distractor	1	414	793	104265	11.765	11.754	11.779
ProbeTrack12	10	ProbeTrack	11.3	WolfelabSpurzheim	20101109.112814	20101109.113814	8	0.011766	60	0	60-180	60	110	GapExp	0	99	2	45	0	distractor	1	485	758	105023	11.765	11.753	11.777
ProbeTrack12	10	ProbeTrack	11.3	WolfelabSpurzheim	20101109.112814	20101109.113820	8	0.011766	60	10	60-180	60	108	GapExp	0	100	2	0	0	distractor	1	1496	252	105275	11.765	11.721	11.809
ProbeTrack12	10	ProbeTrack	11.3	WolfelabSpurzheim	20101109.112814	20101109.113827	8	0.011766	60	10	60-180	60	131	GapExp	0	101	2	0	1	target	1	473	764	106039	11.765	11.740	11.788
ProbeTrack12	10	ProbeTrack	11.3	WolfelabSpurzheim	20101109.112814	20101109.113836	8	0.011766	60	10	60-180	60	115	GapExp	0	102	2	3	0	distractor	1	414	793	106832	11.765	11.750	11.783
ProbeTrack12	10	ProbeTrack	11.3	WolfelabSpurzheim	20101109.112814	20101109.113842	8	0.011766	60	0	60-180	60	94	GapExp	0	103	2	0	1	target	1	508	746	107578	11.765	11.754	11.775
ProbeTrack12	10	ProbeTrack	11.3	WolfelabSpurzheim	20101109.112814	20101109.113847	8	0.011766	60	0	60-180	60	70	GapExp	0	104	2	0	0	target	0	508	-1000	106578	11.765	11.753	11.776
ProbeTrack12	10	ProbeTrack	11.3	WolfelabSpurzheim	20101109.112814	20101109.113852	8	0.011766	60	0	60-180	60	107	GapExp	0	105	2	45	0	distractor	1	437	782	107360	11.765	11.736	11.794
ProbeTrack12	10	ProbeTrack	11.3	WolfelabSpurzheim	20101109.112814	20101109.113858	8	0.011766	60	0	60-180	60	118	GapExp	0	106	2	0	1	target	1	367	817	108177	11.765	11.754	11.776
ProbeTrack12	10	ProbeTrack	11.3	WolfelabSpurzheim	20101109.112814	20101109.113904	8	0.011766	60	0	60-180	60	126	GapExp	0	107	2	45	0	distractor	1	462	769	108946	11.765	11.754	11.776
ProbeTrack12	10	ProbeTrack	11.3	WolfelabSpurzheim	20101109.112814	20101109.113911	8	0.011766	60	0	60-180	60	144	GapExp	0	108	2	1	0	distractor	1	473	764	109710	11.765	11.753	11.778
ProbeTrack12	10	ProbeTrack	11.3	WolfelabSpurzheim	20101109.112814	20101109.113917	8	0.011766	60	0	60-180	60	167	GapExp	0	109	2	3	0	distractor	1	472	764	110474	11.765	11.754	11.775
ProbeTrack12	10	ProbeTrack	11.3	WolfelabSpurzheim	20101109.112814	20101109.113923	8	0.011766	60	0	60-180	60	160	GapExp	0	110	2	0	1	target	1	449	776	111250	11.765	11.754	11.777
ProbeTrack12	10	ProbeTrack	11.3	WolfelabSpurzheim	20101109.112814	20101109.113930	8	0.011766	60	0	60-180	60	83	GapExp	0	111	2	45	0	distractor	1	496	752	112002	11.765	11.753	11.775
ProbeTrack12	10	ProbeTrack	11.3	WolfelabSpurzheim	20101109.112814	20101109.113935	8	0.011766	60	10	60-180	60	171	GapExp	0	112	2	45	1	distractor	0	637	-1000	111002	11.765	11.754	11.776
ProbeTrack12	10	ProbeTrack	11.3	WolfelabSpurzheim	20101109.112814	20101109.113943	8	0.011766	60	10	60-180	60	109	GapExp	0	113	2	1	1	target	1	402	799	111801	11.765	11.755	11.777
ProbeTrack12	10	ProbeTrack	11.3	WolfelabSpurzheim	20101109.112814	20101109.113948	8	0.011766	60	0	60-180	60	75	GapExp	0	114	2	1	1	target	1	414	793	112594	11.765	11.755	11.775
ProbeTrack12	10	ProbeTrack	11.3	WolfelabSpurzheim	20101109.112814	20101109.113953	8	0.011766	60	0	60-180	60	128	GapExp	0	115	2	3	0	distractor	1	461	770	113364	11.765	11.753	11.777
ProbeTrack12	10	ProbeTrack	11.3	WolfelabSpurzheim	20101109.112814	20101109.113959	8	0.011766	60	0	60-180	60	161	GapExp	0	116	2	3	1	target	1	414	793	114157	11.765	11.754	11.776
ProbeTrack12	10	ProbeTrack	11.3	WolfelabSpurzheim	20101109.112814	20101109.114005	8	0.011766	60	0	60-180	60	112	GapExp	0	117	2	0	1	target	1	496	752	114909	11.765	11.753	11.779
ProbeTrack12	10	ProbeTrack	11.3	WolfelabSpurzheim	20101109.112814	20101109.114011	8	0.011766	60	0	60-180	60	87	GapExp	0	118	2	3	1	target	1	390	805	115714	11.765	11.755	11.777
ProbeTrack12	10	ProbeTrack	11.3	WolfelabSpurzheim	20101109.112814	20101109.114016	8	0.011766	60	10	60-180	60	166	GapExp	0	119	2	45	1	target	1	367	817	116531	11.765	11.755	11.778
ProbeTrack12	10	ProbeTrack	11.3	WolfelabSpurzheim	20101109.112814	20101109.114023	8	0.011766	60	10	60-180	60	113	GapExp	0	120	2	3	0	distractor	1	426	787	117318	11.765	11.754	11.776
ProbeTrack12	10	ProbeTrack	11.3	WolfelabSpurzheim	20101109.112814	20101109.114029	8	0.011766	60	0	60-180	60	108	GapExp	0	121	2	45	1	target	1	496	752	118070	11.765	11.713	11.823
ProbeTrack12	10	ProbeTrack	11.3	WolfelabSpurzheim	20101109.112814	20101109.114034	8	0.011766	60	10	60-180	60	87	GapExp	0	122	2	3	1	target	1	461	770	118840	11.765	11.754	11.779
ProbeTrack12	10	ProbeTrack	11.3	WolfelabSpurzheim	20101109.112814	20101109.114040	8	0.011766	60	0	60-180	60	92	GapExp	0	123	2	45	1	target	1	355	823	119663	11.765	11.754	11.775
ProbeTrack12	10	ProbeTrack	11.3	WolfelabSpurzheim	20101109.112814	20101109.114046	8	0.011766	60	10	60-180	60	86	GapExp	0	124	2	0	1	target	1	437	782	120445	11.765	11.731	11.792
ProbeTrack12	10	ProbeTrack	11.3	WolfelabSpurzheim	20101109.112814	20101109.114051	8	0.011766	60	0	60-180	60	148	GapExp	0	125	2	1	1	target	1	402	799	121244	11.765	11.754	11.776
ProbeTrack12	10	ProbeTrack	11.3	WolfelabSpurzheim	20101109.112814	20101109.114057	8	0.011766	60	10	60-180	60	144	GapExp	0	126	2	1	1	target	1	391	805	122049	11.765	11.754	11.776
ProbeTrack12	10	ProbeTrack	11.3	WolfelabSpurzheim	20101109.112814	20101109.114103	8	0.011766	60	0	60-180	60	111	GapExp	0	127	2	1	0	distractor	1	521	740	122789	11.765	11.754	11.776
ProbeTrack12	10	ProbeTrack	11.3	WolfelabSpurzheim	20101109.112814	20101109.114108	8	0.011766	60	10	60-180	60	97	GapExp	0	128	2	45	1	target	1	355	823	123612	11.765	11.707	11.818
ProbeTrack12	10	ProbeTrack	11.3	WolfelabSpurzheim	20101109.112814	20101109.114114	8	0.011766	60	10	60-180	60	82	GapExp	0	129	2	45	1	target	1	426	787	124399	11.765	11.754	11.776
ProbeTrack12	10	ProbeTrack	11.3	WolfelabSpurzheim	20101109.112814	20101109.114120	8	0.011766	60	0	60-180	60	113	GapExp	0	130	2	1	1	target	1	426	787	125186	11.765	11.754	11.776
ProbeTrack12	10	ProbeTrack	11.3	WolfelabSpurzheim	20101109.112814	20101109.114125	8	0.011766	60	10	60-180	60	99	GapExp	0	131	2	0	0	target	0	449	-1000	124186	11.765	11.754	11.776
ProbeTrack12	10	ProbeTrack	11.3	WolfelabSpurzheim	20101109.112814	20101109.114131	8	0.011766	60	0	60-180	60	129	GapExp	0	132	2	3	1	target	1	379	811	124997	11.765	11.755	11.777
ProbeTrack12	10	ProbeTrack	11.3	WolfelabSpurzheim	20101109.112814	20101109.114137	8	0.011766	60	10	60-180	60	174	GapExp	0	133	2	3	0	distractor	1	579	711	125708	11.765	11.754	11.777
ProbeTrack12	10	ProbeTrack	11.3	WolfelabSpurzheim	20101109.112814	20101109.114143	8	0.011766	60	0	60-180	60	175	GapExp	0	134	2	0	0	distractor	1	461	770	126478	11.765	11.747	11.777
ProbeTrack12	10	ProbeTrack	11.3	WolfelabSpurzheim	20101109.112814	20101109.114149	8	0.011766	60	0	60-180	60	146	GapExp	0	135	2	1	0	distractor	1	508	746	127224	11.765	11.755	11.776
ProbeTrack12	10	ProbeTrack	11.3	WolfelabSpurzheim	20101109.112814	20101109.114155	8	0.011766	60	10	60-180	60	178	GapExp	0	136	2	1	0	distractor	1	543	729	127953	11.765	11.753	11.777
ProbeTrack12	10	ProbeTrack	11.3	WolfelabSpurzheim	20101109.112814	20101109.114202	8	0.011766	60	0	60-180	60	110	GapExp	0	137	2	3	0	distractor	1	484	758	128711	11.765	11.752	11.776
ProbeTrack12	10	ProbeTrack	11.3	WolfelabSpurzheim	20101109.112814	20101109.114207	8	0.011766	60	10	60-180	60	161	GapExp	0	138	2	0	1	distractor	0	544	-1000	127711	11.765	11.754	11.776
ProbeTrack12	10	ProbeTrack	11.3	WolfelabSpurzheim	20101109.112814	20101109.114214	8	0.011766	60	10	60-180	60	93	GapExp	0	139	2	3	0	target	0	849	-1000	126711	11.765	11.754	11.775
ProbeTrack12	10	ProbeTrack	11.3	WolfelabSpurzheim	20101109.112814	20101109.114219	8	0.011766	60	10	60-180	60	131	GapExp	0	140	2	45	0	distractor	1	508	746	127457	11.765	11.754	11.777
ProbeTrack12	10	ProbeTrack	11.3	WolfelabSpurzheim	20101109.112814	20101109.114226	8	0.011766	60	0	60-180	60	120	GapExp	0	141	2	1	1	target	1	379	811	128268	11.765	11.755	11.776
ProbeTrack12	10	ProbeTrack	11.3	WolfelabSpurzheim	20101109.112814	20101109.114232	8	0.011766	60	0	60-180	60	100	GapExp	0	142	2	0	1	target	1	555	723	128991	11.765	11.754	11.775
ProbeTrack12	10	ProbeTrack	11.3	WolfelabSpurzheim	20101109.112814	20101109.114237	8	0.011766	60	10	60-180	60	122	GapExp	0	143	2	3	1	target	1	391	805	129796	11.813	11.755	23.545
ProbeTrack12	10	ProbeTrack	11.3	WolfelabSpurzheim	20101109.112814	20101109.114243	8	0.011766	60	10	60-180	60	64	GapExp	0	144	2	3	1	target	1	391	805	130601	11.765	11.754	11.776
ProbeTrack12	10	ProbeTrack	11.3	WolfelabSpurzheim	20101109.112814	20101109.114250	8	0.011766	60	0	60-180	60	102	GapExp	0	145	2	0	1	target	1	320	840	131441	11.765	11.727	11.809
ProbeTrack12	10	ProbeTrack	11.3	WolfelabSpurzheim	20101109.112814	20101109.114255	8	0.011766	60	10	60-180	60	107	GapExp	0	146	2	45	1	distractor	0	508	-1000	130441	11.765	11.754	11.776
ProbeTrack12	10	ProbeTrack	11.3	WolfelabSpurzheim	20101109.112814	20101109.114302	8	0.011766	60	10	60-180	60	147	GapExp	0	147	2	3	0	distractor	1	590	705	131146	11.765	11.753	11.776
ProbeTrack12	10	ProbeTrack	11.3	WolfelabSpurzheim	20101109.112814	20101109.114308	8	0.011766	60	0	60-180	60	94	GapExp	0	148	2	0	0	distractor	1	637	682	131828	11.765	11.754	11.778
ProbeTrack12	10	ProbeTrack	11.3	WolfelabSpurzheim	20101109.112814	20101109.114313	8	0.011766	60	0	60-180	60	80	GapExp	0	149	2	45	0	distractor	1	473	764	132592	11.765	11.755	11.776
ProbeTrack12	10	ProbeTrack	11.3	WolfelabSpurzheim	20101109.112814	20101109.114320	8	0.011766	60	0	60-180	60	179	GapExp	0	150	2	3	1	target	1	379	811	133403	11.765	11.754	11.777
ProbeTrack12	10	ProbeTrack	11.3	WolfelabSpurzheim	20101109.112814	20101109.114326	8	0.011766	60	10	60-180	60	102	GapExp	0	151	2	1	0	44	-3	11261	-1000	132403	11.765	11.754	11.776
ProbeTrack12	10	ProbeTrack	11.3	WolfelabSpurzheim	20101109.112814	20101109.114342	8	0.011766	60	10	60-180	60	109	GapExp	0	152	2	1	1	target	1	437	782	133185	11.765	11.755	11.778
ProbeTrack12	10	ProbeTrack	11.3	WolfelabSpurzheim	20101109.112814	20101109.114350	8	0.011766	60	10	60-180	60	172	GapExp	0	153	2	3	1	target	1	390	805	133990	11.765	11.754	11.777
ProbeTrack12	10	ProbeTrack	11.3	WolfelabSpurzheim	20101109.112814	20101109.114356	8	0.011766	60	10	60-180	60	115	GapExp	0	154	2	1	0	distractor	1	461	770	134760	11.765	11.754	11.777
ProbeTrack12	10	ProbeTrack	11.3	WolfelabSpurzheim	20101109.112814	20101109.114402	8	0.011766	60	10	60-180	60	122	GapExp	0	155	2	1	0	distractor	1	508	746	135506	11.765	11.753	11.776
ProbeTrack12	10	ProbeTrack	11.3	WolfelabSpurzheim	20101109.112814	20101109.114408	8	0.011766	60	0	60-180	60	148	GapExp	0	156	2	1	1	target	1	426	787	136293	11.765	11.753	11.777
ProbeTrack12	10	ProbeTrack	11.3	WolfelabSpurzheim	20101109.112814	20101109.114414	8	0.011766	60	10	60-180	60	126	GapExp	0	157	2	0	1	target	1	449	776	137069	11.765	11.754	11.776
ProbeTrack12	10	ProbeTrack	11.3	WolfelabSpurzheim	20101109.112814	20101109.114420	8	0.011766	60	0	60-180	60	66	GapExp	0	158	2	1	1	target	1	485	758	137827	11.765	11.754	11.777
ProbeTrack12	10	ProbeTrack	11.3	WolfelabSpurzheim	20101109.112814	20101109.114425	8	0.011766	60	10	60-180	60	82	GapExp	0	159	2	45	1	target	1	391	805	138632	11.765	11.755	11.777
ProbeTrack12	10	ProbeTrack	11.3	WolfelabSpurzheim	20101109.112814	20101109.114431	8	0.011766	60	10	60-180	60	142	GapExp	0	160	2	1	1	target	1	391	805	139437	11.765	11.754	11.776
ProbeTrack12	10	ProbeTrack	11.3	WolfelabSpurzheim	20101109.112814	20101109.114437	8	0.011766	60	0	60-180	60	103	GapExp	0	161	2	0	0	distractor	1	485	758	140195	11.765	11.754	11.776
ProbeTrack12	10	ProbeTrack	11.3	WolfelabSpurzheim	20101109.112814	20101109.114442	8	0.011766	60	0	60-180	60	89	GapExp	0	162	2	0	0	distractor	1	590	705	140900	11.765	11.753	11.775
ProbeTrack12	10	ProbeTrack	11.3	WolfelabSpurzheim	20101109.112814	20101109.114447	8	0.011766	60	10	60-180	60	89	GapExp	0	163	2	1	0	distractor	1	402	799	141699	11.765	11.754	11.776
ProbeTrack12	10	ProbeTrack	11.3	WolfelabSpurzheim	20101109.112814	20101109.114452	8	0.011766	60	10	60-180	60	145	GapExp	0	164	2	3	1	target	1	391	805	142504	11.765	11.753	11.777
ProbeTrack12	10	ProbeTrack	11.3	WolfelabSpurzheim	20101109.112814	20101109.114458	8	0.011766	60	10	60-180	60	109	GapExp	0	165	2	45	1	target	1	402	799	143303	11.765	11.737	11.797
ProbeTrack12	10	ProbeTrack	11.3	WolfelabSpurzheim	20101109.112814	20101109.114504	8	0.011766	60	0	60-180	60	180	GapExp	0	166	2	3	0	distractor	1	496	752	144055	11.765	11.754	11.777
ProbeTrack12	10	ProbeTrack	11.3	WolfelabSpurzheim	20101109.112814	20101109.114511	8	0.011766	60	0	60-180	60	134	GapExp	0	167	2	3	1	target	1	426	787	144842	11.765	11.755	11.776
ProbeTrack12	10	ProbeTrack	11.3	WolfelabSpurzheim	20101109.112814	20101109.114517	8	0.011766	60	10	60-180	60	156	GapExp	0	168	2	1	1	target	1	367	817	145659	11.765	11.753	11.776
ProbeTrack12	10	ProbeTrack	11.3	WolfelabSpurzheim	20101109.112814	20101109.114523	8	0.011766	60	10	60-180	60	137	GapExp	0	169	2	45	0	distractor	1	438	781	146440	11.765	11.753	11.777
ProbeTrack12	10	ProbeTrack	11.3	WolfelabSpurzheim	20101109.112814	20101109.114529	8	0.011766	60	0	60-180	60	71	GapExp	0	170	2	1	0	distractor	1	509	746	147186	11.765	11.754	11.776
ProbeTrack12	10	ProbeTrack	11.3	WolfelabSpurzheim	20101109.112814	20101109.114535	8	0.011766	60	0	60-180	60	117	GapExp	0	171	2	3	0	distractor	1	450	775	147961	11.765	11.754	11.781
ProbeTrack12	10	ProbeTrack	11.3	WolfelabSpurzheim	20101109.112814	20101109.114540	8	0.011766	60	0	60-180	60	179	GapExp	0	172	2	3	1	target	1	450	775	148736	11.765	11.753	11.775
ProbeTrack12	10	ProbeTrack	11.3	WolfelabSpurzheim	20101109.112814	20101109.114546	8	0.011766	60	10	60-180	60	111	GapExp	0	173	2	0	0	distractor	1	461	770	149506	11.765	11.754	11.775
ProbeTrack12	10	ProbeTrack	11.3	WolfelabSpurzheim	20101109.112814	20101109.114552	8	0.011766	60	0	60-180	60	90	GapExp	0	174	2	3	0	44	-3	473	-1000	148506	11.765	11.753	11.776
ProbeTrack12	10	ProbeTrack	11.3	WolfelabSpurzheim	20101109.112814	20101109.114557	8	0.011766	60	0	60-180	60	101	GapExp	0	175	2	3	1	target	1	379	811	149317	11.765	11.738	11.792
ProbeTrack12	10	ProbeTrack	11.3	WolfelabSpurzheim	20101109.112814	20101109.114603	8	0.011766	60	10	60-180	60	129	GapExp	0	176	2	3	1	target	1	520	740	150057	11.765	11.753	11.776
ProbeTrack12	10	ProbeTrack	11.3	WolfelabSpurzheim	20101109.112814	20101109.114609	8	0.011766	60	0	60-180	60	133	GapExp	0	177	2	0	0	distractor	1	426	787	150844	11.765	11.754	11.776
ProbeTrack12	10	ProbeTrack	11.3	WolfelabSpurzheim	20101109.112814	20101109.114614	8	0.011766	60	10	60-180	60	89	GapExp	0	178	2	45	0	distractor	1	438	781	151625	11.765	11.738	11.786
ProbeTrack12	10	ProbeTrack	11.3	WolfelabSpurzheim	20101109.112814	20101109.114620	8	0.011766	60	10	60-180	60	118	GapExp	0	179	2	0	0	distractor	1	438	781	152406	11.765	11.755	11.777
ProbeTrack12	10	ProbeTrack	11.3	WolfelabSpurzheim	20101109.112814	20101109.114625	8	0.011766	60	10	60-180	60	101	GapExp	0	180	2	3	1	target	1	426	787	153193	11.765	11.754	11.776
ProbeTrack12	10	ProbeTrack	11.3	WolfelabSpurzheim	20101109.112814	20101109.114701	8	0.011766	60	10	60-180	60	123	GapExp	0	181	2	0	0	distractor	1	437	782	153975	11.765	11.753	11.776
ProbeTrack12	10	ProbeTrack	11.3	WolfelabSpurzheim	20101109.112814	20101109.114709	8	0.011766	60	10	60-180	60	80	GapExp	0	182	2	45	1	target	1	355	823	154798	11.765	11.738	11.785
ProbeTrack12	10	ProbeTrack	11.3	WolfelabSpurzheim	20101109.112814	20101109.114714	8	0.011766	60	10	60-180	60	138	GapExp	0	183	2	0	0	distractor	1	602	699	155497	11.765	11.756	11.775
ProbeTrack12	10	ProbeTrack	11.3	WolfelabSpurzheim	20101109.112814	20101109.114721	8	0.011766	60	10	60-180	60	88	GapExp	0	184	2	45	0	target	0	438	-1000	154497	11.765	11.755	11.776
ProbeTrack12	10	ProbeTrack	11.3	WolfelabSpurzheim	20101109.112814	20101109.114727	8	0.011766	60	0	60-180	60	159	GapExp	0	185	2	1	0	distractor	1	426	787	155284	11.765	11.753	11.777
ProbeTrack12	10	ProbeTrack	11.3	WolfelabSpurzheim	20101109.112814	20101109.114733	8	0.011766	60	0	60-180	60	130	GapExp	0	186	2	1	0	distractor	1	426	787	156071	11.765	11.756	11.776
ProbeTrack12	10	ProbeTrack	11.3	WolfelabSpurzheim	20101109.112814	20101109.114739	8	0.011766	60	10	60-180	60	178	GapExp	0	187	2	3	1	target	1	379	811	156882	11.765	11.736	11.797
ProbeTrack12	10	ProbeTrack	11.3	WolfelabSpurzheim	20101109.112814	20101109.114745	8	0.011766	60	0	60-180	60	136	GapExp	0	188	2	45	0	distractor	1	426	787	157669	11.765	11.733	11.790
ProbeTrack12	10	ProbeTrack	11.3	WolfelabSpurzheim	20101109.112814	20101109.114751	8	0.011766	60	0	60-180	60	141	GapExp	0	189	2	45	1	target	1	520	740	158409	11.765	11.754	11.776
ProbeTrack12	10	ProbeTrack	11.3	WolfelabSpurzheim	20101109.112814	20101109.114758	8	0.011766	60	0	60-180	60	157	GapExp	0	190	2	45	1	target	1	449	776	159185	11.765	11.754	11.776
ProbeTrack12	10	ProbeTrack	11.3	WolfelabSpurzheim	20101109.112814	20101109.114804	8	0.011766	60	10	60-180	60	97	GapExp	0	191	2	1	0	distractor	1	402	799	159984	11.765	11.753	11.779
ProbeTrack12	10	ProbeTrack	11.3	WolfelabSpurzheim	20101109.112814	20101109.114810	8	0.011766	60	0	60-180	60	128	GapExp	0	192	2	0	0	distractor	1	461	770	160754	11.765	11.754	11.776
ProbeTrack12	10	ProbeTrack	11.3	WolfelabSpurzheim	20101109.112814	20101109.114815	8	0.011766	60	10	60-180	60	166	GapExp	0	193	2	1	1	target	1	367	817	161571	11.765	11.753	11.777
ProbeTrack12	10	ProbeTrack	11.3	WolfelabSpurzheim	20101109.112814	20101109.114821	8	0.011766	60	10	60-180	60	90	GapExp	0	194	2	1	0	distractor	1	402	799	162370	11.765	11.754	11.776
ProbeTrack12	10	ProbeTrack	11.3	WolfelabSpurzheim	20101109.112814	20101109.114826	8	0.011766	60	10	60-180	60	91	GapExp	0	195	2	0	0	distractor	1	567	717	163087	11.765	11.755	11.776
ProbeTrack12	10	ProbeTrack	11.3	WolfelabSpurzheim	20101109.112814	20101109.114832	8	0.011766	60	10	60-180	60	145	GapExp	0	196	2	1	0	distractor	1	379	811	163898	11.765	11.754	11.776
ProbeTrack12	10	ProbeTrack	11.3	WolfelabSpurzheim	20101109.112814	20101109.114838	8	0.011766	60	10	60-180	60	101	GapExp	0	197	2	0	1	target	1	402	799	164697	11.765	11.754	11.777
ProbeTrack12	10	ProbeTrack	11.3	WolfelabSpurzheim	20101109.112814	20101109.114843	8	0.011766	60	0	60-180	60	102	GapExp	0	198	2	3	1	distractor	0	567	-1000	163697	11.765	11.752	11.779
ProbeTrack12	10	ProbeTrack	11.3	WolfelabSpurzheim	20101109.112814	20101109.114849	8	0.011766	60	0	60-180	60	172	GapExp	0	199	2	45	0	distractor	1	438	781	164478	11.765	11.754	11.776
ProbeTrack12	10	ProbeTrack	11.3	WolfelabSpurzheim	20101109.112814	20101109.114855	8	0.011766	60	0	60-180	60	165	GapExp	0	200	2	3	0	distractor	1	449	776	165254	11.765	11.753	11.776
ProbeTrack12	10	ProbeTrack	11.3	WolfelabSpurzheim	20101109.112814	20101109.114901	8	0.011766	60	10	60-180	60	70	GapExp	0	201	2	3	1	target	1	438	781	166035	11.765	11.756	11.775
ProbeTrack12	10	ProbeTrack	11.3	WolfelabSpurzheim	20101109.112814	20101109.114906	8	0.011766	60	10	60-180	60	154	GapExp	0	202	2	1	0	distractor	1	438	781	166816	11.765	11.755	11.778
ProbeTrack12	10	ProbeTrack	11.3	WolfelabSpurzheim	20101109.112814	20101109.114912	8	0.011766	60	0	60-180	60	143	GapExp	0	203	2	1	1	distractor	0	355	-1000	165816	11.765	11.754	11.775
ProbeTrack12	10	ProbeTrack	11.3	WolfelabSpurzheim	20101109.112814	20101109.114918	8	0.011766	60	0	60-180	60	84	GapExp	0	204	2	1	0	distractor	1	438	781	166597	11.765	11.755	11.776
ProbeTrack12	10	ProbeTrack	11.3	WolfelabSpurzheim	20101109.112814	20101109.114923	8	0.011766	60	0	60-180	60	67	GapExp	0	205	2	45	1	target	1	402	799	167396	11.765	11.754	11.777
ProbeTrack12	10	ProbeTrack	11.3	WolfelabSpurzheim	20101109.112814	20101109.114929	8	0.011766	60	10	60-180	60	137	GapExp	0	206	2	3	0	distractor	1	403	799	168195	11.765	11.754	11.776
ProbeTrack12	10	ProbeTrack	11.3	WolfelabSpurzheim	20101109.112814	20101109.114935	8	0.011766	60	10	60-180	60	69	GapExp	0	207	2	0	1	target	1	414	793	168988	11.765	11.741	11.791
ProbeTrack12	10	ProbeTrack	11.3	WolfelabSpurzheim	20101109.112814	20101109.114940	8	0.011766	60	10	60-180	60	120	GapExp	0	208	2	1	1	target	1	379	811	169799	11.765	11.753	11.777
ProbeTrack12	10	ProbeTrack	11.3	WolfelabSpurzheim	20101109.112814	20101109.114945	8	0.011766	60	10	60-180	60	154	GapExp	0	209	2	3	0	distractor	1	473	764	170563	11.765	11.753	11.776
ProbeTrack12	10	ProbeTrack	11.3	WolfelabSpurzheim	20101109.112814	20101109.114951	8	0.011766	60	10	60-180	60	165	GapExp	0	210	2	0	1	target	1	414	793	171356	11.765	11.755	11.776
ProbeTrack12	10	ProbeTrack	11.3	WolfelabSpurzheim	20101109.112814	20101109.114958	8	0.011766	60	10	60-180	60	163	GapExp	0	211	2	3	1	target	1	414	793	172149	11.765	11.753	11.775
ProbeTrack12	10	ProbeTrack	11.3	WolfelabSpurzheim	20101109.112814	20101109.115004	8	0.011766	60	10	60-180	60	149	GapExp	0	212	2	0	0	distractor	1	437	782	172931	11.765	11.754	11.776
ProbeTrack12	10	ProbeTrack	11.3	WolfelabSpurzheim	20101109.112814	20101109.115009	8	0.011766	60	10	60-180	60	153	GapExp	0	213	2	1	0	distractor	1	414	793	173724	11.765	11.751	11.777
ProbeTrack12	10	ProbeTrack	11.3	WolfelabSpurzheim	20101109.112814	20101109.115015	8	0.011766	60	10	60-180	60	77	GapExp	0	214	2	1	0	distractor	1	426	787	174511	11.765	11.754	11.778
ProbeTrack12	10	ProbeTrack	11.3	WolfelabSpurzheim	20101109.112814	20101109.115020	8	0.011766	60	0	60-180	60	179	GapExp	0	215	2	1	1	target	1	449	776	175287	11.765	11.755	11.776
ProbeTrack12	10	ProbeTrack	11.3	WolfelabSpurzheim	20101109.112814	20101109.115027	8	0.011766	60	0	60-180	60	100	GapExp	0	216	2	45	0	distractor	1	602	699	175986	11.765	11.754	11.776
ProbeTrack12	10	ProbeTrack	11.3	WolfelabSpurzheim	20101109.112814	20101109.115032	8	0.011766	60	10	60-180	60	177	GapExp	0	217	2	0	1	distractor	0	461	-1000	174986	11.765	11.698	11.829
ProbeTrack12	10	ProbeTrack	11.3	WolfelabSpurzheim	20101109.112814	20101109.115039	8	0.011766	60	0	60-180	60	160	GapExp	0	218	2	0	1	target	1	473	764	175750	11.765	11.754	11.775
ProbeTrack12	10	ProbeTrack	11.3	WolfelabSpurzheim	20101109.112814	20101109.115045	8	0.011766	60	0	60-180	60	86	GapExp	0	219	2	1	1	target	1	532	734	176484	11.765	11.752	11.778
ProbeTrack12	10	ProbeTrack	11.3	WolfelabSpurzheim	20101109.112814	20101109.115050	8	0.011766	60	10	60-180	60	91	GapExp	0	220	2	3	0	distractor	1	402	799	177283	11.765	11.754	11.775
ProbeTrack12	10	ProbeTrack	11.3	WolfelabSpurzheim	20101109.112814	20101109.115055	8	0.011766	60	10	60-180	60	108	GapExp	0	221	2	3	0	distractor	1	473	764	178047	11.765	11.754	11.779
ProbeTrack12	10	ProbeTrack	11.3	WolfelabSpurzheim	20101109.112814	20101109.115101	8	0.011766	60	0	60-180	60	108	GapExp	0	222	2	1	0	distractor	1	438	781	178828	11.765	11.739	11.785
ProbeTrack12	10	ProbeTrack	11.3	WolfelabSpurzheim	20101109.112814	20101109.115106	8	0.011766	60	0	60-180	60	136	GapExp	0	223	2	0	1	target	1	390	805	179633	11.765	11.752	11.781
ProbeTrack12	10	ProbeTrack	11.3	WolfelabSpurzheim	20101109.112814	20101109.115112	8	0.011766	60	0	60-180	60	143	GapExp	0	224	2	0	1	target	1	355	823	180456	11.765	11.753	11.776
ProbeTrack12	10	ProbeTrack	11.3	WolfelabSpurzheim	20101109.112814	20101109.115117	8	0.011766	60	10	60-180	60	71	GapExp	0	225	2	45	0	distractor	1	426	787	181243	11.765	11.754	11.776
ProbeTrack12	10	ProbeTrack	11.3	WolfelabSpurzheim	20101109.112814	20101109.115123	8	0.011766	60	0	60-180	60	93	GapExp	0	226	2	3	1	target	1	403	799	182042	11.765	11.754	11.776
ProbeTrack12	10	ProbeTrack	11.3	WolfelabSpurzheim	20101109.112814	20101109.115128	8	0.011766	60	10	60-180	60	180	GapExp	0	227	2	3	1	target	1	402	799	182841	11.765	11.747	11.786
ProbeTrack12	10	ProbeTrack	11.3	WolfelabSpurzheim	20101109.112814	20101109.115134	8	0.011766	60	10	60-180	60	165	GapExp	0	228	2	45	0	distractor	1	579	711	183552	11.765	11.753	11.776
ProbeTrack12	10	ProbeTrack	11.3	WolfelabSpurzheim	20101109.112814	20101109.115141	8	0.011766	60	0	60-180	60	94	GapExp	0	229	2	3	0	distractor	1	626	687	184239	11.765	11.754	11.774
ProbeTrack12	10	ProbeTrack	11.3	WolfelabSpurzheim	20101109.112814	20101109.115146	8	0.011766	60	10	60-180	60	151	GapExp	0	230	2	45	0	distractor	1	473	764	185003	11.765	11.754	11.776
ProbeTrack12	10	ProbeTrack	11.3	WolfelabSpurzheim	20101109.112814	20101109.115153	8	0.011766	60	0	60-180	60	169	GapExp	0	231	2	45	0	distractor	1	485	758	185761	11.765	11.754	11.775
ProbeTrack12	10	ProbeTrack	11.3	WolfelabSpurzheim	20101109.112814	20101109.115159	8	0.011766	60	0	60-180	60	166	GapExp	0	232	2	45	1	target	1	449	776	186537	11.765	11.755	11.778
ProbeTrack12	10	ProbeTrack	11.3	WolfelabSpurzheim	20101109.112814	20101109.115206	8	0.011766	60	10	60-180	60	105	GapExp	0	233	2	45	1	target	1	379	811	187348	11.765	11.754	11.778
ProbeTrack12	10	ProbeTrack	11.3	WolfelabSpurzheim	20101109.112814	20101109.115212	8	0.011766	60	0	60-180	60	77	GapExp	0	234	2	0	1	target	1	449	776	188124	11.765	11.754	11.777
ProbeTrack12	10	ProbeTrack	11.3	WolfelabSpurzheim	20101109.112814	20101109.115217	8	0.011766	60	0	60-180	60	75	GapExp	0	235	2	0	1	target	1	449	776	188900	11.765	11.754	11.776
ProbeTrack12	10	ProbeTrack	11.3	WolfelabSpurzheim	20101109.112814	20101109.115222	8	0.011766	60	0	60-180	60	117	GapExp	0	236	2	0	0	distractor	1	437	782	189682	11.765	11.753	11.776
ProbeTrack12	10	ProbeTrack	11.3	WolfelabSpurzheim	20101109.112814	20101109.115228	8	0.011766	60	10	60-180	60	147	GapExp	0	237	2	45	0	distractor	1	461	770	190452	11.765	11.754	11.776
ProbeTrack12	10	ProbeTrack	11.3	WolfelabSpurzheim	20101109.112814	20101109.115235	8	0.011766	60	0	60-180	60	96	GapExp	0	238	2	3	1	target	1	414	793	191245	11.765	11.755	11.776
ProbeTrack12	10	ProbeTrack	11.3	WolfelabSpurzheim	20101109.112814	20101109.115240	8	0.011766	60	0	60-180	60	86	GapExp	0	239	2	45	0	distractor	1	426	787	192032	11.765	11.754	11.776
ProbeTrack12	10	ProbeTrack	11.3	WolfelabSpurzheim	20101109.112814	20101109.115246	8	0.011766	60	0	60-180	60	130	GapExp	0	240	2	3	1	target	1	437	782	192814	11.765	11.753	11.777
ProbeTrack12	10	ProbeTrack	11.3	WolfelabSpurzheim	20101109.112814	20101109.115251	8	0.011766	60	10	60-180	60	153	GapExp	0	241	2	3	1	target	1	508	746	193560	11.765	11.754	11.776
ProbeTrack12	10	ProbeTrack	11.3	WolfelabSpurzheim	20101109.112814	20101109.115258	8	0.011766	60	10	60-180	60	78	GapExp	0	242	2	1	0	distractor	1	543	729	194289	11.765	11.753	11.776
ProbeTrack12	10	ProbeTrack	11.3	WolfelabSpurzheim	20101109.112814	20101109.115303	8	0.011766	60	10	60-180	60	137	GapExp	0	243	2	45	0	distractor	1	449	776	195065	11.765	11.695	11.826
ProbeTrack12	10	ProbeTrack	11.3	WolfelabSpurzheim	20101109.112814	20101109.115310	8	0.011766	60	10	60-180	60	123	GapExp	0	244	2	1	1	target	1	391	805	195870	11.765	11.754	11.775
ProbeTrack12	10	ProbeTrack	11.3	WolfelabSpurzheim	20101109.112814	20101109.115315	8	0.011766	60	10	60-180	60	100	GapExp	0	245	2	3	0	distractor	1	390	805	196675	11.765	11.750	11.776
ProbeTrack12	10	ProbeTrack	11.3	WolfelabSpurzheim	20101109.112814	20101109.115321	8	0.011766	60	0	60-180	60	96	GapExp	0	246	2	45	1	target	1	449	776	197451	11.765	11.756	11.777
ProbeTrack12	10	ProbeTrack	11.3	WolfelabSpurzheim	20101109.112814	20101109.115327	8	0.011766	60	0	60-180	60	158	GapExp	0	247	2	0	0	distractor	1	450	775	198226	11.765	11.754	11.776
ProbeTrack12	10	ProbeTrack	11.3	WolfelabSpurzheim	20101109.112814	20101109.115333	8	0.011766	60	0	60-180	60	157	GapExp	0	248	2	45	1	target	1	402	799	199025	11.765	11.754	11.777
ProbeTrack12	10	ProbeTrack	11.3	WolfelabSpurzheim	20101109.112814	20101109.115339	8	0.011766	60	0	60-180	60	146	GapExp	0	249	2	3	0	distractor	1	461	770	199795	11.765	11.754	11.776
ProbeTrack12	10	ProbeTrack	11.3	WolfelabSpurzheim	20101109.112814	20101109.115346	8	0.011766	60	10	60-180	60	142	GapExp	0	250	2	1	0	distractor	1	485	758	200553	11.765	11.754	11.777
ProbeTrack12	10	ProbeTrack	11.3	WolfelabSpurzheim	20101109.115437	20101109.115457	8	0.011764	60	0	60-180	60	107	GapExp	1	1	2	0	0	distractor	1	437	782	201335	11.925	11.753	23.527
ProbeTrack12	10	ProbeTrack	11.3	WolfelabSpurzheim	20101109.115437	20101109.115503	8	0.011764	60	10	60-180	60	178	GapExp	1	2	2	1	0	distractor	1	579	711	202046	11.765	11.754	11.777
ProbeTrack12	10	ProbeTrack	11.3	WolfelabSpurzheim	20101109.115437	20101109.115510	8	0.011764	60	10	60-180	60	104	GapExp	1	3	2	3	1	target	1	414	793	202839	11.868	11.753	11.776
ProbeTrack12	10	ProbeTrack	11.3	WolfelabSpurzheim	20101109.115437	20101109.115516	8	0.011764	60	0	60-180	60	149	GapExp	1	4	2	1	1	target	1	332	834	203673	11.811	11.741	23.532
ProbeTrack12	10	ProbeTrack	11.3	WolfelabSpurzheim	20101109.115437	20101109.115522	8	0.011764	60	0	60-180	60	77	GapExp	1	5	2	45	0	distractor	1	438	781	204454	11.765	11.754	11.776
ProbeTrack12	10	ProbeTrack	11.3	WolfelabSpurzheim	20101109.115437	20101109.115527	8	0.011764	60	10	60-180	60	103	GapExp	1	6	2	45	1	target	1	332	834	205288	11.765	11.754	11.776
ProbeTrack12	10	ProbeTrack	11.3	WolfelabSpurzheim	20101109.115437	20101109.115533	8	0.011764	60	10	60-180	60	119	GapExp	1	7	2	0	0	target	0	426	-1000	204288	11.765	11.753	11.776
ProbeTrack12	10	ProbeTrack	11.3	WolfelabSpurzheim	20101109.115437	20101109.115540	8	0.011764	60	0	60-180	60	130	GapExp	1	8	2	0	1	target	1	355	823	205111	11.765	11.754	11.776
ProbeTrack12	10	ProbeTrack	11.3	WolfelabSpurzheim	20101109.115437	20101109.115545	8	0.011764	60	10	60-180	60	159	GapExp	1	9	2	1	1	target	1	343	829	205940	11.765	11.741	11.787
ProbeTrack12	10	ProbeTrack	11.3	WolfelabSpurzheim	20101109.115437	20101109.115551	8	0.011764	60	0	60-180	60	144	GapExp	1	10	2	3	1	target	1	391	805	206745	11.765	11.754	11.776
ProbeTrack12	10	ProbeTrack	11.3	WolfelabSpurzheim	20101109.115437	20101109.115557	8	0.011764	60	0	60-180	60	101	GapExp	0	11	2	3	0	distractor	1	449	776	207521	11.765	11.753	11.775
ProbeTrack12	10	ProbeTrack	11.3	WolfelabSpurzheim	20101109.115437	20101109.115602	8	0.011764	60	0	60-180	60	105	GapExp	0	12	2	0	1	target	1	343	829	208350	11.765	11.754	11.775
ProbeTrack12	10	ProbeTrack	11.3	WolfelabSpurzheim	20101109.115437	20101109.115607	8	0.011764	60	10	60-180	60	136	GapExp	0	13	2	3	1	target	1	379	811	209161	11.765	11.736	11.793
ProbeTrack12	10	ProbeTrack	11.3	WolfelabSpurzheim	20101109.115437	20101109.115613	8	0.011764	60	10	60-180	60	85	GapExp	0	14	2	1	0	distractor	1	485	758	209919	11.765	11.754	11.776
ProbeTrack12	10	ProbeTrack	11.3	WolfelabSpurzheim	20101109.115437	20101109.115618	8	0.011764	60	10	60-180	60	123	GapExp	0	15	2	1	0	distractor	1	414	793	210712	11.765	11.754	11.777
ProbeTrack12	10	ProbeTrack	11.3	WolfelabSpurzheim	20101109.115437	20101109.115624	8	0.011764	60	10	60-180	60	146	GapExp	0	16	2	1	1	target	1	567	717	211429	11.765	11.754	11.777
ProbeTrack12	10	ProbeTrack	11.3	WolfelabSpurzheim	20101109.115437	20101109.115630	8	0.011764	60	10	60-180	60	148	GapExp	0	17	2	0	1	target	1	461	770	212199	11.765	11.753	11.776
ProbeTrack12	10	ProbeTrack	11.3	WolfelabSpurzheim	20101109.115437	20101109.115636	8	0.011764	60	0	60-180	60	134	GapExp	0	18	2	1	1	target	1	473	764	212963	11.765	11.755	11.775
ProbeTrack12	10	ProbeTrack	11.3	WolfelabSpurzheim	20101109.115437	20101109.115642	8	0.011764	60	0	60-180	60	175	GapExp	0	19	2	45	1	target	1	403	799	213762	11.765	11.754	11.776
ProbeTrack12	10	ProbeTrack	11.3	WolfelabSpurzheim	20101109.115437	20101109.115648	8	0.011764	60	0	60-180	60	65	GapExp	0	20	2	1	1	target	1	485	758	214520	11.765	11.754	11.775
ProbeTrack12	10	ProbeTrack	11.3	WolfelabSpurzheim	20101109.115437	20101109.115653	8	0.011764	60	10	60-180	60	146	GapExp	0	21	2	1	0	distractor	1	438	781	215301	11.765	11.753	11.777
ProbeTrack12	10	ProbeTrack	11.3	WolfelabSpurzheim	20101109.115437	20101109.115659	8	0.011764	60	0	60-180	60	95	GapExp	0	22	2	1	1	target	1	461	770	216071	11.765	11.751	11.777
ProbeTrack12	10	ProbeTrack	11.3	WolfelabSpurzheim	20101109.115437	20101109.115704	8	0.011764	60	0	60-180	60	108	GapExp	0	23	2	45	0	distractor	1	426	787	216858	11.765	11.753	11.776
ProbeTrack12	10	ProbeTrack	11.3	WolfelabSpurzheim	20101109.115437	20101109.115710	8	0.011764	60	10	60-180	60	113	GapExp	0	24	2	45	0	distractor	1	438	781	217639	11.765	11.754	11.777
ProbeTrack12	10	ProbeTrack	11.3	WolfelabSpurzheim	20101109.115437	20101109.115716	8	0.011764	60	0	60-180	60	95	GapExp	0	25	2	0	1	target	1	473	764	218403	11.765	11.755	11.776
ProbeTrack12	10	ProbeTrack	11.3	WolfelabSpurzheim	20101109.115437	20101109.115721	8	0.011764	60	10	60-180	60	76	GapExp	0	26	2	3	0	distractor	1	473	764	219167	11.765	11.756	11.776
ProbeTrack12	10	ProbeTrack	11.3	WolfelabSpurzheim	20101109.115437	20101109.115726	8	0.011764	60	10	60-180	60	151	GapExp	0	27	2	3	0	distractor	1	449	776	219943	11.765	11.739	11.791
ProbeTrack12	10	ProbeTrack	11.3	WolfelabSpurzheim	20101109.115437	20101109.115732	8	0.011764	60	0	60-180	60	138	GapExp	0	28	2	1	1	target	1	332	834	220777	11.765	11.729	11.795
ProbeTrack12	10	ProbeTrack	11.3	WolfelabSpurzheim	20101109.115437	20101109.115738	8	0.011764	60	10	60-180	60	145	GapExp	0	29	2	0	1	target	1	450	775	221552	11.765	11.707	11.824
ProbeTrack12	10	ProbeTrack	11.3	WolfelabSpurzheim	20101109.115437	20101109.115743	8	0.011764	60	0	60-180	60	157	GapExp	0	30	2	45	0	distractor	1	508	746	222298	11.765	11.755	11.776
ProbeTrack12	10	ProbeTrack	11.3	WolfelabSpurzheim	20101109.115437	20101109.115750	8	0.011764	60	0	60-180	60	174	GapExp	0	31	2	3	1	target	1	379	811	223109	11.765	11.737	11.794
ProbeTrack12	10	ProbeTrack	11.3	WolfelabSpurzheim	20101109.115437	20101109.115756	8	0.011764	60	10	60-180	60	109	GapExp	0	32	2	0	0	distractor	1	449	776	223885	11.765	11.754	11.776
ProbeTrack12	10	ProbeTrack	11.3	WolfelabSpurzheim	20101109.115437	20101109.115802	8	0.011764	60	10	60-180	60	66	GapExp	0	33	2	45	1	target	1	379	811	224696	11.765	11.754	11.780
ProbeTrack12	10	ProbeTrack	11.3	WolfelabSpurzheim	20101109.115437	20101109.115807	8	0.011764	60	10	60-180	60	109	GapExp	0	34	2	45	1	target	1	426	787	225483	11.765	11.754	11.775
ProbeTrack12	10	ProbeTrack	11.3	WolfelabSpurzheim	20101109.115437	20101109.115813	8	0.011764	60	0	60-180	60	110	GapExp	0	35	2	3	0	distractor	1	520	740	226223	11.765	11.754	11.776
ProbeTrack12	10	ProbeTrack	11.3	WolfelabSpurzheim	20101109.115437	20101109.115818	8	0.011764	60	0	60-180	60	138	GapExp	0	36	2	1	1	target	1	355	823	227046	11.765	11.754	11.776
ProbeTrack12	10	ProbeTrack	11.3	WolfelabSpurzheim	20101109.115437	20101109.115824	8	0.011764	60	0	60-180	60	113	GapExp	0	37	2	0	0	distractor	1	355	823	227869	11.765	11.754	11.775
ProbeTrack12	10	ProbeTrack	11.3	WolfelabSpurzheim	20101109.115437	20101109.115830	8	0.011764	60	0	60-180	60	149	GapExp	0	38	2	0	0	distractor	1	437	782	228651	11.765	11.751	11.780
ProbeTrack12	10	ProbeTrack	11.3	WolfelabSpurzheim	20101109.115437	20101109.115837	8	0.011764	60	10	60-180	60	99	GapExp	0	39	2	45	1	target	1	332	834	229485	11.765	11.754	11.777
ProbeTrack12	10	ProbeTrack	11.3	WolfelabSpurzheim	20101109.115437	20101109.115843	8	0.011764	60	0	60-180	60	67	GapExp	0	40	2	45	1	target	1	473	764	230249	11.765	11.754	11.776
ProbeTrack12	10	ProbeTrack	11.3	WolfelabSpurzheim	20101109.115437	20101109.115848	8	0.011764	60	0	60-180	60	100	GapExp	0	41	2	1	1	target	1	402	799	231048	11.765	11.755	11.777
ProbeTrack12	10	ProbeTrack	11.3	WolfelabSpurzheim	20101109.115437	20101109.115854	8	0.011764	60	10	60-180	60	172	GapExp	0	42	2	0	1	target	1	332	834	231882	11.765	11.753	11.777
ProbeTrack12	10	ProbeTrack	11.3	WolfelabSpurzheim	20101109.115437	20101109.115900	8	0.011764	60	10	60-180	60	119	GapExp	0	43	2	45	0	distractor	1	461	770	232652	11.765	11.747	11.780
ProbeTrack12	10	ProbeTrack	11.3	WolfelabSpurzheim	20101109.115437	20101109.115906	8	0.011764	60	0	60-180	60	147	GapExp	0	44	2	45	0	distractor	1	414	793	233445	11.765	11.754	11.778
ProbeTrack12	10	ProbeTrack	11.3	WolfelabSpurzheim	20101109.115437	20101109.115912	8	0.011764	60	10	60-180	60	133	GapExp	0	45	2	45	1	target	1	485	758	234203	11.765	11.754	11.777
ProbeTrack12	10	ProbeTrack	11.3	WolfelabSpurzheim	20101109.115437	20101109.115918	8	0.011764	60	10	60-180	60	105	GapExp	0	46	2	0	0	distractor	1	520	740	234943	11.765	11.754	11.776
ProbeTrack12	10	ProbeTrack	11.3	WolfelabSpurzheim	20101109.115437	20101109.115924	8	0.011764	60	0	60-180	60	148	GapExp	0	47	2	0	1	target	1	426	787	235730	11.765	11.754	11.777
ProbeTrack12	10	ProbeTrack	11.3	WolfelabSpurzheim	20101109.115437	20101109.115930	8	0.011764	60	0	60-180	60	128	GapExp	0	48	2	1	0	distractor	1	520	740	236470	11.765	11.755	11.777
ProbeTrack12	10	ProbeTrack	11.3	WolfelabSpurzheim	20101109.115437	20101109.115935	8	0.011764	60	10	60-180	60	90	GapExp	0	49	2	45	1	target	1	496	752	237222	11.765	11.753	11.777
ProbeTrack12	10	ProbeTrack	11.3	WolfelabSpurzheim	20101109.115437	20101109.115941	8	0.011764	60	0	60-180	60	125	GapExp	0	50	2	1	0	distractor	1	532	734	237956	11.765	11.754	11.777
ProbeTrack12	10	ProbeTrack	11.3	WolfelabSpurzheim	20101109.115437	20101109.115947	8	0.011764	60	0	60-180	60	82	GapExp	0	51	2	3	0	distractor	1	438	781	238737	11.765	11.753	11.775
ProbeTrack12	10	ProbeTrack	11.3	WolfelabSpurzheim	20101109.115437	20101109.115952	8	0.011764	60	10	60-180	60	111	GapExp	0	52	2	3	0	distractor	1	367	817	239554	11.765	11.754	11.775
ProbeTrack12	10	ProbeTrack	11.3	WolfelabSpurzheim	20101109.115437	20101109.115957	8	0.011764	60	0	60-180	60	63	GapExp	0	53	2	3	0	distractor	1	461	770	240324	11.765	11.753	11.776
ProbeTrack12	10	ProbeTrack	11.3	WolfelabSpurzheim	20101109.115437	20101109.120004	8	0.011764	60	0	60-180	60	105	GapExp	0	54	2	0	1	target	1	379	811	241135	11.765	11.754	11.779
ProbeTrack12	10	ProbeTrack	11.3	WolfelabSpurzheim	20101109.115437	20101109.120009	8	0.011764	60	0	60-180	60	120	GapExp	0	55	2	3	0	distractor	1	438	781	241916	11.765	11.743	11.787
ProbeTrack12	10	ProbeTrack	11.3	WolfelabSpurzheim	20101109.115437	20101109.120014	8	0.011764	60	0	60-180	60	75	GapExp	0	56	2	0	1	target	1	484	758	242674	11.765	11.752	11.776
ProbeTrack12	10	ProbeTrack	11.3	WolfelabSpurzheim	20101109.115437	20101109.120019	8	0.011764	60	0	60-180	60	154	GapExp	0	57	2	0	1	target	1	344	828	243502	11.765	11.753	11.776
ProbeTrack12	10	ProbeTrack	11.3	WolfelabSpurzheim	20101109.115437	20101109.120025	8	0.011764	60	0	60-180	60	97	GapExp	0	58	2	0	1	target	1	437	782	244284	11.765	11.754	11.776
ProbeTrack12	10	ProbeTrack	11.3	WolfelabSpurzheim	20101109.115437	20101109.120030	8	0.011764	60	0	60-180	60	109	GapExp	0	59	2	45	1	target	1	426	787	245071	11.765	11.755	11.776
ProbeTrack12	10	ProbeTrack	11.3	WolfelabSpurzheim	20101109.115437	20101109.120036	8	0.011764	60	0	60-180	60	89	GapExp	0	60	2	45	0	distractor	1	461	770	245841	11.765	11.754	11.777
ProbeTrack12	10	ProbeTrack	11.3	WolfelabSpurzheim	20101109.115437	20101109.120041	8	0.011764	60	0	60-180	60	68	GapExp	0	61	2	3	1	target	1	390	805	246646	11.765	11.728	11.794
ProbeTrack12	10	ProbeTrack	11.3	WolfelabSpurzheim	20101109.115437	20101109.120046	8	0.011764	60	10	60-180	60	103	GapExp	0	62	2	1	0	distractor	1	390	805	247451	11.765	11.754	11.777
ProbeTrack12	10	ProbeTrack	11.3	WolfelabSpurzheim	20101109.115437	20101109.120051	8	0.011764	60	10	60-180	60	136	GapExp	0	63	2	3	1	target	1	391	805	248256	11.765	11.753	11.777
ProbeTrack12	10	ProbeTrack	11.3	WolfelabSpurzheim	20101109.115437	20101109.120057	8	0.011764	60	10	60-180	60	74	GapExp	0	64	2	0	1	target	1	426	787	249043	11.765	11.753	11.777
ProbeTrack12	10	ProbeTrack	11.3	WolfelabSpurzheim	20101109.115437	20101109.120102	8	0.011764	60	10	60-180	60	101	GapExp	0	65	2	45	1	distractor	0	473	-1000	248043	11.765	11.754	11.776
ProbeTrack12	10	ProbeTrack	11.3	WolfelabSpurzheim	20101109.115437	20101109.120108	8	0.011764	60	0	60-180	60	157	GapExp	0	66	2	0	0	distractor	1	473	764	248807	11.765	11.753	11.776
ProbeTrack12	10	ProbeTrack	11.3	WolfelabSpurzheim	20101109.115437	20101109.120114	8	0.011764	60	10	60-180	60	68	GapExp	0	67	2	0	1	distractor	0	779	-1000	247807	11.765	11.754	11.777
ProbeTrack12	10	ProbeTrack	11.3	WolfelabSpurzheim	20101109.115437	20101109.120119	8	0.011764	60	0	60-180	60	99	GapExp	0	68	2	1	0	distractor	1	591	705	248512	11.765	11.754	11.776
ProbeTrack12	10	ProbeTrack	11.3	WolfelabSpurzheim	20101109.115437	20101109.120124	8	0.011764	60	10	60-180	60	102	GapExp	0	69	2	3	0	distractor	1	391	805	249317	11.765	11.755	11.776
ProbeTrack12	10	ProbeTrack	11.3	WolfelabSpurzheim	20101109.115437	20101109.120130	8	0.011764	60	10	60-180	60	90	GapExp	0	70	2	1	0	distractor	1	390	805	250122	11.765	11.754	11.775
ProbeTrack12	10	ProbeTrack	11.3	WolfelabSpurzheim	20101109.115437	20101109.120135	8	0.011764	60	0	60-180	60	101	GapExp	0	71	2	1	1	target	1	426	787	250909	11.765	11.753	11.775
ProbeTrack12	10	ProbeTrack	11.3	WolfelabSpurzheim	20101109.115437	20101109.120140	8	0.011764	60	10	60-180	60	127	GapExp	0	72	2	45	0	distractor	1	461	770	251679	11.765	11.753	11.777
ProbeTrack12	10	ProbeTrack	11.3	WolfelabSpurzheim	20101109.115437	20101109.120146	8	0.011764	60	10	60-180	60	108	GapExp	0	73	2	1	1	target	1	355	823	252502	11.765	11.755	11.777
ProbeTrack12	10	ProbeTrack	11.3	WolfelabSpurzheim	20101109.115437	20101109.120151	8	0.011764	60	0	60-180	60	168	GapExp	0	74	2	45	0	distractor	1	473	764	253266	11.765	11.755	11.775
ProbeTrack12	10	ProbeTrack	11.3	WolfelabSpurzheim	20101109.115437	20101109.120200	8	0.011764	60	0	60-180	60	161	GapExp	0	75	2	3	1	target	1	438	781	254047	11.765	11.753	11.777
ProbeTrack12	10	ProbeTrack	11.3	WolfelabSpurzheim	20101109.115437	20101109.120206	8	0.011764	60	0	60-180	60	87	GapExp	0	76	2	1	1	target	1	449	776	254823	11.765	11.755	11.775
ProbeTrack12	10	ProbeTrack	11.3	WolfelabSpurzheim	20101109.115437	20101109.120211	8	0.011764	60	10	60-180	60	170	GapExp	0	77	2	45	1	target	1	379	811	255634	11.765	11.754	11.777
ProbeTrack12	10	ProbeTrack	11.3	WolfelabSpurzheim	20101109.115437	20101109.120218	8	0.011764	60	0	60-180	60	173	GapExp	0	78	2	3	0	distractor	1	497	752	256386	11.765	11.754	11.776
ProbeTrack12	10	ProbeTrack	11.3	WolfelabSpurzheim	20101109.115437	20101109.120224	8	0.011764	60	10	60-180	60	121	GapExp	0	79	2	1	1	target	1	379	811	257197	11.765	11.755	11.775
ProbeTrack12	10	ProbeTrack	11.3	WolfelabSpurzheim	20101109.115437	20101109.120230	8	0.011764	60	0	60-180	60	160	GapExp	0	80	2	0	0	distractor	1	438	781	257978	11.765	11.753	11.776
ProbeTrack12	10	ProbeTrack	11.3	WolfelabSpurzheim	20101109.115437	20101109.120235	8	0.011764	60	10	60-180	60	121	GapExp	0	81	2	3	1	target	1	484	758	258736	11.765	11.754	11.777
ProbeTrack12	10	ProbeTrack	11.3	WolfelabSpurzheim	20101109.115437	20101109.120241	8	0.011764	60	0	60-180	60	135	GapExp	0	82	2	3	1	target	1	402	799	259535	11.765	11.753	11.776
ProbeTrack12	10	ProbeTrack	11.3	WolfelabSpurzheim	20101109.115437	20101109.120247	8	0.011764	60	0	60-180	60	113	GapExp	0	83	2	3	0	distractor	1	461	770	260305	11.765	11.754	11.776
ProbeTrack12	10	ProbeTrack	11.3	WolfelabSpurzheim	20101109.115437	20101109.120252	8	0.011764	60	10	60-180	60	156	GapExp	0	84	2	3	0	distractor	1	415	793	261098	11.765	11.755	11.777
ProbeTrack12	10	ProbeTrack	11.3	WolfelabSpurzheim	20101109.115437	20101109.120258	8	0.011764	60	0	60-180	60	98	GapExp	0	85	2	45	1	target	1	402	799	261897	11.765	11.752	11.777
ProbeTrack12	10	ProbeTrack	11.3	WolfelabSpurzheim	20101109.115437	20101109.120304	8	0.011764	60	0	60-180	60	119	GapExp	0	86	2	0	0	distractor	1	473	764	262661	11.765	11.755	11.777
ProbeTrack12	10	ProbeTrack	11.3	WolfelabSpurzheim	20101109.115437	20101109.120309	8	0.011764	60	10	60-180	60	106	GapExp	0	87	2	45	0	distractor	1	626	687	263348	11.765	11.739	11.792
ProbeTrack12	10	ProbeTrack	11.3	WolfelabSpurzheim	20101109.115437	20101109.120315	8	0.011764	60	0	60-180	60	159	GapExp	0	88	2	0	0	distractor	1	449	776	264124	11.765	11.754	11.776
ProbeTrack12	10	ProbeTrack	11.3	WolfelabSpurzheim	20101109.115437	20101109.120321	8	0.011764	60	10	60-180	60	90	GapExp	0	89	2	3	0	distractor	1	414	793	264917	11.765	11.754	11.777
ProbeTrack12	10	ProbeTrack	11.3	WolfelabSpurzheim	20101109.115437	20101109.120326	8	0.011764	60	10	60-180	60	171	GapExp	0	90	2	0	1	target	1	414	793	265710	11.765	11.736	11.796
ProbeTrack12	10	ProbeTrack	11.3	WolfelabSpurzheim	20101109.115437	20101109.120332	8	0.011764	60	0	60-180	60	81	GapExp	0	91	2	1	1	target	1	485	758	266468	11.765	11.754	11.776
ProbeTrack12	10	ProbeTrack	11.3	WolfelabSpurzheim	20101109.115437	20101109.120337	8	0.011764	60	10	60-180	60	95	GapExp	0	92	2	3	1	target	1	367	817	267285	11.765	11.754	11.776
ProbeTrack12	10	ProbeTrack	11.3	WolfelabSpurzheim	20101109.115437	20101109.120342	8	0.011764	60	0	60-180	60	141	GapExp	0	93	2	3	0	distractor	1	473	764	268049	11.765	11.745	11.792
ProbeTrack12	10	ProbeTrack	11.3	WolfelabSpurzheim	20101109.115437	20101109.120348	8	0.011764	60	10	60-180	60	119	GapExp	0	94	2	1	0	distractor	1	426	787	268836	11.765	11.754	11.777
ProbeTrack12	10	ProbeTrack	11.3	WolfelabSpurzheim	20101109.115437	20101109.120354	8	0.011764	60	0	60-180	60	154	GapExp	0	95	2	3	1	target	1	415	793	269629	11.765	11.755	11.775
ProbeTrack12	10	ProbeTrack	11.3	WolfelabSpurzheim	20101109.115437	20101109.120400	8	0.011764	60	10	60-180	60	107	GapExp	0	96	2	0	1	target	1	379	811	270440	11.765	11.754	11.775
ProbeTrack12	10	ProbeTrack	11.3	WolfelabSpurzheim	20101109.115437	20101109.120405	8	0.011764	60	0	60-180	60	136	GapExp	0	97	2	1	0	distractor	1	449	776	271216	11.765	11.754	11.776
ProbeTrack12	10	ProbeTrack	11.3	WolfelabSpurzheim	20101109.115437	20101109.120411	8	0.011764	60	10	60-180	60	169	GapExp	0	98	2	0	0	distractor	1	661	670	271886	11.765	11.754	11.776
ProbeTrack12	10	ProbeTrack	11.3	WolfelabSpurzheim	20101109.115437	20101109.120417	8	0.011764	60	0	60-180	60	68	GapExp	0	99	2	0	1	target	1	461	770	272656	11.765	11.754	11.776
ProbeTrack12	10	ProbeTrack	11.3	WolfelabSpurzheim	20101109.115437	20101109.120422	8	0.011764	60	0	60-180	60	98	GapExp	0	100	2	3	0	distractor	1	461	770	273426	11.765	11.755	11.776
ProbeTrack12	10	ProbeTrack	11.3	WolfelabSpurzheim	20101109.115437	20101109.120427	8	0.011764	60	10	60-180	60	72	GapExp	0	101	2	3	0	distractor	1	367	817	274243	11.765	11.754	11.777
ProbeTrack12	10	ProbeTrack	11.3	WolfelabSpurzheim	20101109.115437	20101109.120432	8	0.011764	60	0	60-180	60	163	GapExp	0	102	2	0	1	target	1	390	805	275048	11.765	11.752	11.776
ProbeTrack12	10	ProbeTrack	11.3	WolfelabSpurzheim	20101109.115437	20101109.120438	8	0.011764	60	0	60-180	60	81	GapExp	0	103	2	45	0	distractor	1	485	758	275806	11.765	11.755	11.776
ProbeTrack12	10	ProbeTrack	11.3	WolfelabSpurzheim	20101109.115437	20101109.120443	8	0.011764	60	0	60-180	60	176	GapExp	0	104	2	1	1	target	1	355	823	276629	11.765	11.754	11.777
ProbeTrack12	10	ProbeTrack	11.3	WolfelabSpurzheim	20101109.115437	20101109.120450	8	0.011764	60	0	60-180	60	63	GapExp	0	105	2	45	1	target	1	379	811	277440	11.765	11.754	11.775
ProbeTrack12	10	ProbeTrack	11.3	WolfelabSpurzheim	20101109.115437	20101109.120455	8	0.011764	60	10	60-180	60	117	GapExp	0	106	2	3	1	distractor	0	449	-1000	276440	11.765	11.744	11.784
ProbeTrack12	10	ProbeTrack	11.3	WolfelabSpurzheim	20101109.115437	20101109.120500	8	0.011764	60	0	60-180	60	176	GapExp	0	107	2	0	0	distractor	1	461	770	277210	11.765	11.753	11.777
ProbeTrack12	10	ProbeTrack	11.3	WolfelabSpurzheim	20101109.115437	20101109.120506	8	0.011764	60	10	60-180	60	68	GapExp	0	108	2	45	0	distractor	1	461	770	277980	11.765	11.754	11.776
ProbeTrack12	10	ProbeTrack	11.3	WolfelabSpurzheim	20101109.115437	20101109.120512	8	0.011764	60	0	60-180	60	165	GapExp	0	109	2	0	1	target	1	332	834	278814	11.765	11.753	11.777
ProbeTrack12	10	ProbeTrack	11.3	WolfelabSpurzheim	20101109.115437	20101109.120518	8	0.011764	60	0	60-180	60	83	GapExp	0	110	2	0	0	distractor	1	520	740	279554	11.765	11.755	11.778
ProbeTrack12	10	ProbeTrack	11.3	WolfelabSpurzheim	20101109.115437	20101109.120525	8	0.011764	60	10	60-180	60	98	GapExp	0	111	2	1	1	target	1	367	817	280371	11.765	11.755	11.775
ProbeTrack12	10	ProbeTrack	11.3	WolfelabSpurzheim	20101109.115437	20101109.120531	8	0.011764	60	0	60-180	60	131	GapExp	0	112	2	45	0	distractor	1	555	723	281094	11.765	11.754	11.775
ProbeTrack12	10	ProbeTrack	11.3	WolfelabSpurzheim	20101109.115437	20101109.120538	8	0.011764	60	0	60-180	60	110	GapExp	0	113	2	3	0	distractor	1	508	746	281840	11.765	11.754	11.775
ProbeTrack12	10	ProbeTrack	11.3	WolfelabSpurzheim	20101109.115437	20101109.120544	8	0.011764	60	0	60-180	60	123	GapExp	0	114	2	3	1	target	1	437	782	282622	11.765	11.755	11.777
ProbeTrack12	10	ProbeTrack	11.3	WolfelabSpurzheim	20101109.115437	20101109.120549	8	0.011764	60	10	60-180	60	125	GapExp	0	115	2	3	1	target	1	367	817	283439	11.765	11.754	11.778
ProbeTrack12	10	ProbeTrack	11.3	WolfelabSpurzheim	20101109.115437	20101109.120555	8	0.011764	60	10	60-180	60	169	GapExp	0	116	2	1	1	target	1	473	764	284203	11.765	11.754	11.776
ProbeTrack12	10	ProbeTrack	11.3	WolfelabSpurzheim	20101109.115437	20101109.120601	8	0.011764	60	10	60-180	60	177	GapExp	0	117	2	1	0	distractor	1	450	775	284978	11.765	11.754	11.776
ProbeTrack12	10	ProbeTrack	11.3	WolfelabSpurzheim	20101109.115437	20101109.120607	8	0.011764	60	10	60-180	60	145	GapExp	0	118	2	3	1	target	1	391	805	285783	11.765	11.746	11.789
ProbeTrack12	10	ProbeTrack	11.3	WolfelabSpurzheim	20101109.115437	20101109.120613	8	0.011764	60	0	60-180	60	166	GapExp	0	119	2	0	1	target	1	343	829	286612	11.765	11.754	11.776
ProbeTrack12	10	ProbeTrack	11.3	WolfelabSpurzheim	20101109.115437	20101109.120619	8	0.011764	60	0	60-180	60	101	GapExp	0	120	2	1	0	distractor	1	555	723	287335	11.765	11.753	11.776
ProbeTrack12	10	ProbeTrack	11.3	WolfelabSpurzheim	20101109.115437	20101109.120624	8	0.011764	60	0	60-180	60	156	GapExp	0	121	2	45	0	distractor	1	473	764	288099	11.765	11.751	11.775
ProbeTrack12	10	ProbeTrack	11.3	WolfelabSpurzheim	20101109.115437	20101109.120631	8	0.011764	60	10	60-180	60	76	GapExp	0	122	2	3	1	target	1	379	811	288910	11.765	11.753	11.777
ProbeTrack12	10	ProbeTrack	11.3	WolfelabSpurzheim	20101109.115437	20101109.120636	8	0.011764	60	0	60-180	60	166	GapExp	0	123	2	45	1	target	1	379	811	289721	11.765	11.755	11.776
ProbeTrack12	10	ProbeTrack	11.3	WolfelabSpurzheim	20101109.115437	20101109.120642	8	0.011764	60	10	60-180	60	143	GapExp	0	124	2	45	1	target	1	449	776	290497	11.765	11.754	11.776
ProbeTrack12	10	ProbeTrack	11.3	WolfelabSpurzheim	20101109.115437	20101109.120649	8	0.011764	60	0	60-180	60	95	GapExp	0	125	2	45	0	distractor	1	485	758	291255	11.765	11.754	11.776
ProbeTrack12	10	ProbeTrack	11.3	WolfelabSpurzheim	20101109.115437	20101109.120654	8	0.011764	60	10	60-180	60	138	GapExp	0	126	2	3	0	distractor	1	485	758	292013	11.765	11.753	11.776
ProbeTrack12	10	ProbeTrack	11.3	WolfelabSpurzheim	20101109.115437	20101109.120700	8	0.011764	60	10	60-180	60	180	GapExp	0	127	2	1	1	target	1	308	846	292859	11.765	11.752	11.777
ProbeTrack12	10	ProbeTrack	11.3	WolfelabSpurzheim	20101109.115437	20101109.120707	8	0.011764	60	0	60-180	60	145	GapExp	0	128	2	1	1	target	1	332	834	293693	11.765	11.754	11.777
ProbeTrack12	10	ProbeTrack	11.3	WolfelabSpurzheim	20101109.115437	20101109.120712	8	0.011764	60	10	60-180	60	108	GapExp	0	129	2	1	0	target	0	673	-1000	292693	11.765	11.754	11.777
ProbeTrack12	10	ProbeTrack	11.3	WolfelabSpurzheim	20101109.115437	20101109.120718	8	0.011764	60	0	60-180	60	92	GapExp	0	130	2	1	0	distractor	1	520	740	293433	11.765	11.754	11.776
ProbeTrack12	10	ProbeTrack	11.3	WolfelabSpurzheim	20101109.115437	20101109.120723	8	0.011764	60	0	60-180	60	166	GapExp	0	131	2	1	1	target	1	402	799	294232	11.765	11.754	11.778
ProbeTrack12	10	ProbeTrack	11.3	WolfelabSpurzheim	20101109.115437	20101109.120729	8	0.011764	60	10	60-180	60	92	GapExp	0	132	2	45	0	distractor	1	426	787	295019	11.765	11.754	11.776
ProbeTrack12	10	ProbeTrack	11.3	WolfelabSpurzheim	20101109.115437	20101109.120735	8	0.011764	60	0	60-180	60	88	GapExp	0	133	2	3	0	distractor	1	520	740	295759	11.765	11.754	11.776
ProbeTrack12	10	ProbeTrack	11.3	WolfelabSpurzheim	20101109.115437	20101109.120740	8	0.011764	60	10	60-180	60	62	GapExp	0	134	2	1	1	target	1	520	740	296499	11.765	11.754	11.776
ProbeTrack12	10	ProbeTrack	11.3	WolfelabSpurzheim	20101109.115437	20101109.120745	8	0.011764	60	10	60-180	60	180	GapExp	0	135	2	45	0	distractor	1	437	782	297281	11.765	11.753	11.777
ProbeTrack12	10	ProbeTrack	11.3	WolfelabSpurzheim	20101109.115437	20101109.120752	8	0.011764	60	10	60-180	60	99	GapExp	0	136	2	0	0	distractor	1	473	764	298045	11.765	11.754	11.775
ProbeTrack12	10	ProbeTrack	11.3	WolfelabSpurzheim	20101109.115437	20101109.120757	8	0.011764	60	10	60-180	60	164	GapExp	0	137	2	3	0	distractor	1	449	776	298821	11.765	11.754	11.776
ProbeTrack12	10	ProbeTrack	11.3	WolfelabSpurzheim	20101109.115437	20101109.120803	8	0.011764	60	10	60-180	60	117	GapExp	0	138	2	3	1	target	1	390	805	299626	11.765	11.755	11.777
ProbeTrack12	10	ProbeTrack	11.3	WolfelabSpurzheim	20101109.115437	20101109.120810	8	0.011764	60	10	60-180	60	61	GapExp	0	139	2	3	0	distractor	1	543	729	300355	11.765	11.754	11.776
ProbeTrack12	10	ProbeTrack	11.3	WolfelabSpurzheim	20101109.115437	20101109.120815	8	0.011764	60	10	60-180	60	121	GapExp	0	140	2	45	0	distractor	1	414	793	301148	11.765	11.754	11.775
ProbeTrack12	10	ProbeTrack	11.3	WolfelabSpurzheim	20101109.115437	20101109.120821	8	0.011764	60	10	60-180	60	130	GapExp	0	141	2	0	1	target	1	402	799	301947	11.765	11.754	11.777
ProbeTrack12	10	ProbeTrack	11.3	WolfelabSpurzheim	20101109.115437	20101109.120827	8	0.011764	60	10	60-180	60	159	GapExp	0	142	2	0	1	target	1	402	799	302746	11.765	11.754	11.776
ProbeTrack12	10	ProbeTrack	11.3	WolfelabSpurzheim	20101109.115437	20101109.120833	8	0.011764	60	0	60-180	60	154	GapExp	0	143	2	45	1	target	1	426	787	303533	11.765	11.753	11.777
ProbeTrack12	10	ProbeTrack	11.3	WolfelabSpurzheim	20101109.115437	20101109.120840	8	0.011764	60	0	60-180	60	99	GapExp	0	144	2	3	0	distractor	1	567	717	304250	11.765	11.754	11.777
ProbeTrack12	10	ProbeTrack	11.3	WolfelabSpurzheim	20101109.115437	20101109.120845	8	0.011764	60	10	60-180	60	166	GapExp	0	145	2	3	0	distractor	1	838	581	304831	11.765	11.754	11.776
ProbeTrack12	10	ProbeTrack	11.3	WolfelabSpurzheim	20101109.115437	20101109.120852	8	0.011764	60	10	60-180	60	103	GapExp	0	146	2	45	1	target	1	437	782	305613	11.765	11.746	11.785
ProbeTrack12	10	ProbeTrack	11.3	WolfelabSpurzheim	20101109.115437	20101109.120858	8	0.011764	60	0	60-180	60	106	GapExp	0	147	2	3	1	target	1	555	723	306336	11.765	11.754	11.777
ProbeTrack12	10	ProbeTrack	11.3	WolfelabSpurzheim	20101109.115437	20101109.120903	8	0.011764	60	10	60-180	60	131	GapExp	0	148	2	1	0	distractor	1	579	711	307047	11.765	11.754	11.777
ProbeTrack12	10	ProbeTrack	11.3	WolfelabSpurzheim	20101109.115437	20101109.120909	8	0.011764	60	0	60-180	60	142	GapExp	0	149	2	45	1	target	1	343	829	307876	11.765	11.754	11.776
ProbeTrack12	10	ProbeTrack	11.3	WolfelabSpurzheim	20101109.115437	20101109.120915	8	0.011764	60	0	60-180	60	162	GapExp	0	150	2	0	0	distractor	1	461	770	308646	11.765	11.753	11.776
ProbeTrack12	10	ProbeTrack	11.3	WolfelabSpurzheim	20101109.115437	20101109.120921	8	0.011764	60	10	60-180	60	130	GapExp	0	151	2	1	1	target	1	473	764	309410	11.765	11.754	11.775
ProbeTrack12	10	ProbeTrack	11.3	WolfelabSpurzheim	20101109.115437	20101109.120927	8	0.011764	60	0	60-180	60	92	GapExp	0	152	2	1	0	distractor	1	614	693	310103	11.765	11.754	11.777
ProbeTrack12	10	ProbeTrack	11.3	WolfelabSpurzheim	20101109.115437	20101109.120932	8	0.011764	60	0	60-180	60	157	GapExp	0	153	2	45	0	distractor	1	485	758	310861	11.765	11.754	11.777
ProbeTrack12	10	ProbeTrack	11.3	WolfelabSpurzheim	20101109.115437	20101109.120939	8	0.011764	60	10	60-180	60	78	GapExp	0	154	2	0	0	distractor	1	567	717	311578	11.765	11.753	11.776
ProbeTrack12	10	ProbeTrack	11.3	WolfelabSpurzheim	20101109.115437	20101109.120944	8	0.011764	60	10	60-180	60	137	GapExp	0	155	2	0	0	distractor	1	567	717	312295	11.765	11.754	11.777
ProbeTrack12	10	ProbeTrack	11.3	WolfelabSpurzheim	20101109.115437	20101109.120950	8	0.011764	60	10	60-180	60	90	GapExp	0	156	2	3	0	distractor	1	461	770	313065	11.765	11.754	11.776
ProbeTrack12	10	ProbeTrack	11.3	WolfelabSpurzheim	20101109.115437	20101109.120955	8	0.011764	60	0	60-180	60	179	GapExp	0	157	2	45	1	target	1	684	658	313723	11.765	11.755	11.777
ProbeTrack12	10	ProbeTrack	11.3	WolfelabSpurzheim	20101109.115437	20101109.121002	8	0.011764	60	10	60-180	60	149	GapExp	0	158	2	0	1	target	1	485	758	314481	11.765	11.755	11.777
ProbeTrack12	10	ProbeTrack	11.3	WolfelabSpurzheim	20101109.115437	20101109.121008	8	0.011764	60	10	60-180	60	126	GapExp	0	159	2	45	0	distractor	1	520	740	315221	11.765	11.754	11.777
ProbeTrack12	10	ProbeTrack	11.3	WolfelabSpurzheim	20101109.115437	20101109.121015	8	0.011764	60	10	60-180	60	87	GapExp	0	160	2	1	0	distractor	1	825	588	315809	11.765	11.753	11.777
ProbeTrack12	10	ProbeTrack	11.3	WolfelabSpurzheim	20101109.115437	20101109.121020	8	0.011764	60	0	60-180	60	180	GapExp	0	161	2	3	1	target	1	355	823	316632	11.765	11.752	11.778
ProbeTrack12	10	ProbeTrack	11.3	WolfelabSpurzheim	20101109.115437	20101109.121026	8	0.011764	60	0	60-180	60	75	GapExp	0	162	2	45	1	target	1	473	764	317396	11.765	11.738	11.793
ProbeTrack12	10	ProbeTrack	11.3	WolfelabSpurzheim	20101109.115437	20101109.121032	8	0.011764	60	10	60-180	60	122	GapExp	0	163	2	45	0	distractor	1	591	705	318101	11.765	11.752	11.777
ProbeTrack12	10	ProbeTrack	11.3	WolfelabSpurzheim	20101109.115437	20101109.121038	8	0.011764	60	0	60-180	60	146	GapExp	0	164	2	3	1	target	1	450	775	318876	11.765	11.746	11.788
ProbeTrack12	10	ProbeTrack	11.3	WolfelabSpurzheim	20101109.115437	20101109.121044	8	0.011764	60	0	60-180	60	159	GapExp	0	165	2	3	1	target	1	332	834	319710	11.765	11.725	11.798
ProbeTrack12	10	ProbeTrack	11.3	WolfelabSpurzheim	20101109.115437	20101109.121050	8	0.011764	60	10	60-180	60	102	GapExp	0	166	2	3	0	distractor	1	426	787	320497	11.765	11.754	11.776
ProbeTrack12	10	ProbeTrack	11.3	WolfelabSpurzheim	20101109.115437	20101109.121055	8	0.011764	60	10	60-180	60	112	GapExp	0	167	2	0	0	target	0	437	-1000	319497	11.765	11.750	11.785
ProbeTrack12	10	ProbeTrack	11.3	WolfelabSpurzheim	20101109.115437	20101109.121101	8	0.011764	60	0	60-180	60	71	GapExp	0	168	2	3	1	target	1	426	787	320284	11.765	11.754	11.775
ProbeTrack12	10	ProbeTrack	11.3	WolfelabSpurzheim	20101109.115437	20101109.121106	8	0.011764	60	10	60-180	60	68	GapExp	0	169	2	1	1	target	1	415	793	321077	11.765	11.755	11.778
ProbeTrack12	10	ProbeTrack	11.3	WolfelabSpurzheim	20101109.115437	20101109.121110	8	0.011764	60	10	60-180	60	138	GapExp	0	170	2	0	1	target	1	390	805	321882	11.765	11.754	11.776
ProbeTrack12	10	ProbeTrack	11.3	WolfelabSpurzheim	20101109.115437	20101109.121116	8	0.011764	60	10	60-180	60	126	GapExp	0	171	2	0	1	target	1	379	811	322693	11.765	11.753	11.776
ProbeTrack12	10	ProbeTrack	11.3	WolfelabSpurzheim	20101109.115437	20101109.121122	8	0.011764	60	10	60-180	60	94	GapExp	0	172	2	1	1	target	1	496	752	323445	11.765	11.734	11.776
ProbeTrack12	10	ProbeTrack	11.3	WolfelabSpurzheim	20101109.115437	20101109.121127	8	0.011764	60	0	60-180	60	135	GapExp	0	173	2	0	0	distractor	1	778	611	324056	11.765	11.729	11.801
ProbeTrack12	10	ProbeTrack	11.3	WolfelabSpurzheim	20101109.115437	20101109.121133	8	0.011764	60	10	60-180	60	84	GapExp	0	174	2	45	1	target	1	367	817	324873	11.765	11.754	11.776
ProbeTrack12	10	ProbeTrack	11.3	WolfelabSpurzheim	20101109.115437	20101109.121139	8	0.011764	60	0	60-180	60	139	GapExp	0	175	2	0	1	target	1	461	770	325643	11.765	11.755	11.776
ProbeTrack12	10	ProbeTrack	11.3	WolfelabSpurzheim	20101109.115437	20101109.121145	8	0.011764	60	10	60-180	60	88	GapExp	0	176	2	1	0	distractor	1	473	764	326407	11.765	11.754	11.777
ProbeTrack12	10	ProbeTrack	11.3	WolfelabSpurzheim	20101109.115437	20101109.121150	8	0.011764	60	10	60-180	60	155	GapExp	0	177	2	45	0	target	0	591	-1000	325407	11.765	11.754	11.776
ProbeTrack12	10	ProbeTrack	11.3	WolfelabSpurzheim	20101109.115437	20101109.121157	8	0.011764	60	10	60-180	60	106	GapExp	0	178	2	3	0	distractor	1	414	793	326200	11.765	11.754	11.775
ProbeTrack12	10	ProbeTrack	11.3	WolfelabSpurzheim	20101109.115437	20101109.121202	8	0.011764	60	10	60-180	60	149	GapExp	0	179	2	0	0	distractor	1	484	758	326958	11.765	11.753	11.776
ProbeTrack12	10	ProbeTrack	11.3	WolfelabSpurzheim	20101109.115437	20101109.121208	8	0.011764	60	10	60-180	60	167	GapExp	0	180	2	3	1	target	1	473	764	327722	11.765	11.754	11.776
ProbeTrack12	10	ProbeTrack	11.3	WolfelabSpurzheim	20101109.115437	20101109.121214	8	0.011764	60	0	60-180	60	170	GapExp	0	181	2	1	0	distractor	1	520	740	328462	11.765	11.753	11.776
ProbeTrack12	10	ProbeTrack	11.3	WolfelabSpurzheim	20101109.115437	20101109.121220	8	0.011764	60	0	60-180	60	170	GapExp	0	182	2	45	1	target	1	450	775	329237	11.765	11.753	11.777
ProbeTrack12	10	ProbeTrack	11.3	WolfelabSpurzheim	20101109.115437	20101109.121227	8	0.011764	60	10	60-180	60	94	GapExp	0	183	2	0	1	target	1	520	740	329977	11.765	11.718	11.823
ProbeTrack12	10	ProbeTrack	11.3	WolfelabSpurzheim	20101109.115437	20101109.121232	8	0.011764	60	0	60-180	60	111	GapExp	0	184	2	3	1	target	1	438	781	330758	11.765	11.754	11.777
ProbeTrack12	10	ProbeTrack	11.3	WolfelabSpurzheim	20101109.115437	20101109.121238	8	0.011764	60	10	60-180	60	98	GapExp	0	185	2	45	1	target	1	473	764	331522	11.765	11.754	11.775
ProbeTrack12	10	ProbeTrack	11.3	WolfelabSpurzheim	20101109.115437	20101109.121243	8	0.011764	60	0	60-180	60	71	GapExp	0	186	2	0	1	target	1	496	752	332274	11.765	11.754	11.776
ProbeTrack12	10	ProbeTrack	11.3	WolfelabSpurzheim	20101109.115437	20101109.121248	8	0.011764	60	10	60-180	60	144	GapExp	0	187	2	3	1	target	1	437	782	333056	11.765	11.754	11.777
ProbeTrack12	10	ProbeTrack	11.3	WolfelabSpurzheim	20101109.115437	20101109.121254	8	0.011764	60	0	60-180	60	78	GapExp	0	188	2	0	1	target	1	485	758	333814	11.765	11.755	11.780
ProbeTrack12	10	ProbeTrack	11.3	WolfelabSpurzheim	20101109.115437	20101109.121259	8	0.011764	60	0	60-180	60	148	GapExp	0	189	2	1	1	target	1	332	834	334648	11.765	11.754	11.776
ProbeTrack12	10	ProbeTrack	11.3	WolfelabSpurzheim	20101109.115437	20101109.121305	8	0.011764	60	10	60-180	60	164	GapExp	0	190	2	1	0	distractor	1	415	793	335441	11.765	11.754	11.776
ProbeTrack12	10	ProbeTrack	11.3	WolfelabSpurzheim	20101109.115437	20101109.121311	8	0.011764	60	0	60-180	60	119	GapExp	0	191	2	3	1	target	1	437	782	336223	11.765	11.754	11.775
ProbeTrack12	10	ProbeTrack	11.3	WolfelabSpurzheim	20101109.115437	20101109.121316	8	0.011764	60	10	60-180	60	67	GapExp	0	192	2	1	1	target	1	367	817	337040	11.765	11.735	11.792
ProbeTrack12	10	ProbeTrack	11.3	WolfelabSpurzheim	20101109.115437	20101109.121323	8	0.011764	60	10	60-180	60	139	GapExp	0	193	2	1	0	distractor	1	591	705	337745	11.765	11.754	11.777
ProbeTrack12	10	ProbeTrack	11.3	WolfelabSpurzheim	20101109.115437	20101109.121329	8	0.011764	60	0	60-180	60	166	GapExp	0	194	2	1	0	distractor	1	473	764	338509	11.765	11.748	11.788
ProbeTrack12	10	ProbeTrack	11.3	WolfelabSpurzheim	20101109.115437	20101109.121335	8	0.011764	60	10	60-180	60	168	GapExp	0	195	2	1	1	target	1	426	787	339296	11.765	11.753	11.777
ProbeTrack12	10	ProbeTrack	11.3	WolfelabSpurzheim	20101109.115437	20101109.121341	8	0.011764	60	0	60-180	60	80	GapExp	0	196	2	45	1	target	1	496	752	340048	11.765	11.755	11.775
ProbeTrack12	10	ProbeTrack	11.3	WolfelabSpurzheim	20101109.115437	20101109.121347	8	0.011764	60	10	60-180	60	103	GapExp	0	197	2	0	0	distractor	1	461	770	340818	11.765	11.753	11.774
ProbeTrack12	10	ProbeTrack	11.3	WolfelabSpurzheim	20101109.115437	20101109.121352	8	0.011764	60	10	60-180	60	173	GapExp	0	198	2	45	1	target	1	379	811	341629	11.765	11.753	11.778
ProbeTrack12	10	ProbeTrack	11.3	WolfelabSpurzheim	20101109.115437	20101109.121359	8	0.011764	60	10	60-180	60	124	GapExp	0	199	2	1	1	distractor	0	578	-1000	340629	11.765	11.754	11.776
ProbeTrack12	10	ProbeTrack	11.3	WolfelabSpurzheim	20101109.115437	20101109.121405	8	0.011764	60	0	60-180	60	138	GapExp	0	200	2	1	0	distractor	1	473	764	341393	11.765	11.753	11.777
ProbeTrack12	10	ProbeTrack	11.3	WolfelabSpurzheim	20101109.115437	20101109.121411	8	0.011764	60	0	60-180	60	101	GapExp	0	201	2	45	0	distractor	1	485	758	342151	11.765	11.749	11.780
ProbeTrack12	10	ProbeTrack	11.3	WolfelabSpurzheim	20101109.115437	20101109.121416	8	0.011764	60	10	60-180	60	141	GapExp	0	202	2	45	1	target	1	414	793	342944	11.765	11.718	11.805
ProbeTrack12	10	ProbeTrack	11.3	WolfelabSpurzheim	20101109.115437	20101109.121424	8	0.011764	60	10	60-180	60	69	GapExp	0	203	2	0	0	target	0	473	-1000	341944	11.765	11.754	11.776
ProbeTrack12	10	ProbeTrack	11.3	WolfelabSpurzheim	20101109.115437	20101109.121428	8	0.011764	60	0	60-180	60	170	GapExp	0	204	2	0	0	distractor	1	532	734	342678	11.765	11.753	11.776
ProbeTrack12	10	ProbeTrack	11.3	WolfelabSpurzheim	20101109.115437	20101109.121434	8	0.011764	60	0	60-180	60	134	GapExp	0	205	2	45	0	distractor	1	508	746	343424	11.765	11.754	11.775
ProbeTrack12	10	ProbeTrack	11.3	WolfelabSpurzheim	20101109.115437	20101109.121441	8	0.011764	60	0	60-180	60	101	GapExp	0	206	2	3	0	distractor	1	661	670	344094	11.765	11.753	11.776
ProbeTrack12	10	ProbeTrack	11.3	WolfelabSpurzheim	20101109.115437	20101109.121446	8	0.011764	60	10	60-180	60	73	GapExp	0	207	2	0	0	distractor	1	696	652	344746	11.765	11.754	11.776
ProbeTrack12	10	ProbeTrack	11.3	WolfelabSpurzheim	20101109.115437	20101109.121451	8	0.011764	60	0	60-180	60	102	GapExp	0	208	2	0	0	distractor	1	473	764	345510	11.765	11.754	11.776
ProbeTrack12	10	ProbeTrack	11.3	WolfelabSpurzheim	20101109.115437	20101109.121456	8	0.011764	60	10	60-180	60	64	GapExp	0	209	2	3	1	target	1	438	781	346291	11.765	11.754	11.776
ProbeTrack12	10	ProbeTrack	11.3	WolfelabSpurzheim	20101109.115437	20101109.121501	8	0.011764	60	0	60-180	60	156	GapExp	0	210	2	45	1	target	1	449	776	347067	11.765	11.754	11.777
ProbeTrack12	10	ProbeTrack	11.3	WolfelabSpurzheim	20101109.115437	20101109.121508	8	0.011764	60	0	60-180	60	110	GapExp	0	211	2	45	0	distractor	1	485	758	347825	11.765	11.750	11.776
ProbeTrack12	10	ProbeTrack	11.3	WolfelabSpurzheim	20101109.115437	20101109.121514	8	0.011764	60	10	60-180	60	161	GapExp	0	212	2	45	0	distractor	1	391	805	348630	11.765	11.737	11.791
ProbeTrack12	10	ProbeTrack	11.3	WolfelabSpurzheim	20101109.115437	20101109.121520	8	0.011764	60	10	60-180	60	94	GapExp	0	213	2	0	0	distractor	1	437	782	349412	11.765	11.753	11.776
ProbeTrack12	10	ProbeTrack	11.3	WolfelabSpurzheim	20101109.115437	20101109.121525	8	0.011764	60	10	60-180	60	162	GapExp	0	214	2	45	1	target	1	461	770	350182	11.765	11.744	11.782
ProbeTrack12	10	ProbeTrack	11.3	WolfelabSpurzheim	20101109.115437	20101109.121532	8	0.011764	60	0	60-180	60	159	GapExp	0	215	2	45	0	distractor	1	438	781	350963	11.765	11.731	11.790
ProbeTrack12	10	ProbeTrack	11.3	WolfelabSpurzheim	20101109.115437	20101109.121539	8	0.011764	60	10	60-180	60	79	GapExp	0	216	2	3	1	target	1	543	729	351692	11.765	11.746	11.783
ProbeTrack12	10	ProbeTrack	11.3	WolfelabSpurzheim	20101109.115437	20101109.121544	8	0.011764	60	10	60-180	60	160	GapExp	0	217	2	0	1	target	1	790	605	352297	11.765	11.754	11.776
ProbeTrack12	10	ProbeTrack	11.3	WolfelabSpurzheim	20101109.115437	20101109.121550	8	0.011764	60	0	60-180	60	148	GapExp	0	218	2	1	0	distractor	1	825	588	352885	11.765	11.755	11.776
ProbeTrack12	10	ProbeTrack	11.3	WolfelabSpurzheim	20101109.115437	20101109.121556	8	0.011764	60	10	60-180	60	108	GapExp	0	219	2	3	1	target	1	437	782	353667	11.765	11.753	11.776
ProbeTrack12	10	ProbeTrack	11.3	WolfelabSpurzheim	20101109.115437	20101109.121602	8	0.011764	60	0	60-180	60	163	GapExp	0	220	2	1	0	distractor	1	813	594	354261	11.765	11.754	11.776
ProbeTrack12	10	ProbeTrack	11.3	WolfelabSpurzheim	20101109.115437	20101109.121608	8	0.011764	60	0	60-180	60	145	GapExp	0	221	2	3	0	distractor	1	626	687	354948	11.765	11.734	11.798
ProbeTrack12	10	ProbeTrack	11.3	WolfelabSpurzheim	20101109.115437	20101109.121614	8	0.011764	60	10	60-180	60	113	GapExp	0	222	2	45	0	distractor	1	532	734	355682	11.765	11.754	11.777
ProbeTrack12	10	ProbeTrack	11.3	WolfelabSpurzheim	20101109.115437	20101109.121620	8	0.011764	60	0	60-180	60	164	GapExp	0	223	2	1	0	target	0	696	-1000	354682	11.765	11.753	11.776
ProbeTrack12	10	ProbeTrack	11.3	WolfelabSpurzheim	20101109.115437	20101109.121627	8	0.011764	60	10	60-180	60	131	GapExp	0	224	2	0	0	distractor	1	449	776	355458	11.765	11.755	11.777
ProbeTrack12	10	ProbeTrack	11.3	WolfelabSpurzheim	20101109.115437	20101109.121632	8	0.011764	60	0	60-180	60	96	GapExp	0	225	2	45	1	distractor	0	661	-1000	354458	11.765	11.734	11.795
ProbeTrack12	10	ProbeTrack	11.3	WolfelabSpurzheim	20101109.115437	20101109.121638	8	0.011764	60	0	60-180	60	108	GapExp	0	226	2	0	0	distractor	1	437	782	355240	11.765	11.748	11.787
ProbeTrack12	10	ProbeTrack	11.3	WolfelabSpurzheim	20101109.115437	20101109.121643	8	0.011764	60	0	60-180	60	140	GapExp	0	227	2	0	1	target	1	355	823	356063	11.765	11.754	11.775
ProbeTrack12	10	ProbeTrack	11.3	WolfelabSpurzheim	20101109.115437	20101109.121649	8	0.011764	60	0	60-180	60	151	GapExp	0	228	2	1	1	target	1	355	823	356886	11.765	11.754	11.775
ProbeTrack12	10	ProbeTrack	11.3	WolfelabSpurzheim	20101109.115437	20101109.121655	8	0.011764	60	0	60-180	60	97	GapExp	0	229	2	1	0	distractor	1	473	764	357650	11.765	11.753	11.776
ProbeTrack12	10	ProbeTrack	11.3	WolfelabSpurzheim	20101109.115437	20101109.121700	8	0.011764	60	10	60-180	60	155	GapExp	0	230	2	45	0	distractor	1	414	793	358443	11.765	11.753	11.776
ProbeTrack12	10	ProbeTrack	11.3	WolfelabSpurzheim	20101109.115437	20101109.121707	8	0.011764	60	10	60-180	60	95	GapExp	0	231	2	1	1	distractor	0	497	-1000	357443	11.765	11.754	11.777
ProbeTrack12	10	ProbeTrack	11.3	WolfelabSpurzheim	20101109.115437	20101109.121712	8	0.011764	60	0	60-180	60	126	GapExp	0	232	2	1	1	distractor	0	414	-1000	356443	11.765	11.754	11.776
ProbeTrack12	10	ProbeTrack	11.3	WolfelabSpurzheim	20101109.115437	20101109.121717	8	0.011764	60	10	60-180	60	122	GapExp	0	233	2	3	1	target	1	414	793	357236	11.765	11.754	11.776
ProbeTrack12	10	ProbeTrack	11.3	WolfelabSpurzheim	20101109.115437	20101109.121723	8	0.011764	60	10	60-180	60	136	GapExp	0	234	2	0	0	distractor	1	637	682	357918	11.765	11.755	11.778
ProbeTrack12	10	ProbeTrack	11.3	WolfelabSpurzheim	20101109.115437	20101109.121729	8	0.011764	60	0	60-180	60	64	GapExp	0	235	2	3	0	distractor	1	579	711	358629	11.765	11.734	11.795
ProbeTrack12	10	ProbeTrack	11.3	WolfelabSpurzheim	20101109.115437	20101109.121734	8	0.011764	60	0	60-180	60	154	GapExp	0	236	2	1	0	distractor	1	649	676	359305	11.765	11.754	11.778
ProbeTrack12	10	ProbeTrack	11.3	WolfelabSpurzheim	20101109.115437	20101109.121740	8	0.011764	60	10	60-180	60	95	GapExp	0	237	2	1	0	distractor	1	532	734	360039	11.765	11.753	11.776
ProbeTrack12	10	ProbeTrack	11.3	WolfelabSpurzheim	20101109.115437	20101109.121745	8	0.011764	60	10	60-180	60	157	GapExp	0	238	2	1	0	distractor	1	544	728	360767	11.765	11.754	11.776
ProbeTrack12	10	ProbeTrack	11.3	WolfelabSpurzheim	20101109.115437	20101109.121751	8	0.011764	60	0	60-180	60	151	GapExp	0	239	2	0	0	distractor	1	485	758	361525	11.765	11.747	11.776
ProbeTrack12	10	ProbeTrack	11.3	WolfelabSpurzheim	20101109.115437	20101109.121757	8	0.011764	60	10	60-180	60	169	GapExp	0	240	2	3	0	target	0	743	-1000	360525	11.765	11.754	11.776
ProbeTrack12	10	ProbeTrack	11.3	WolfelabSpurzheim	20101109.115437	20101109.121804	8	0.011764	60	10	60-180	60	122	GapExp	0	241	2	0	1	target	1	344	828	361353	11.765	11.718	11.805
ProbeTrack12	10	ProbeTrack	11.3	WolfelabSpurzheim	20101109.115437	20101109.121809	8	0.011764	60	10	60-180	60	109	GapExp	0	242	2	45	0	distractor	1	449	776	362129	11.765	11.750	11.776
ProbeTrack12	10	ProbeTrack	11.3	WolfelabSpurzheim	20101109.115437	20101109.121815	8	0.011764	60	10	60-180	60	152	GapExp	0	243	2	45	1	target	1	367	817	362946	11.765	11.754	11.776
ProbeTrack12	10	ProbeTrack	11.3	WolfelabSpurzheim	20101109.115437	20101109.121821	8	0.011764	60	0	60-180	60	172	GapExp	0	244	2	3	1	target	1	426	787	363733	11.765	11.753	11.776
ProbeTrack12	10	ProbeTrack	11.3	WolfelabSpurzheim	20101109.115437	20101109.121827	8	0.011764	60	0	60-180	60	70	GapExp	0	245	2	0	0	distractor	1	555	723	364456	11.765	11.754	11.776
ProbeTrack12	10	ProbeTrack	11.3	WolfelabSpurzheim	20101109.115437	20101109.121832	8	0.011764	60	10	60-180	60	134	GapExp	0	246	2	1	1	target	1	391	805	365261	11.765	11.755	11.775
ProbeTrack12	10	ProbeTrack	11.3	WolfelabSpurzheim	20101109.115437	20101109.121838	8	0.011764	60	0	60-180	60	134	GapExp	0	247	2	45	0	distractor	1	438	781	366042	11.765	11.753	11.776
ProbeTrack12	10	ProbeTrack	11.3	WolfelabSpurzheim	20101109.115437	20101109.121844	8	0.011764	60	0	60-180	60	66	GapExp	0	248	2	45	1	target	1	473	764	366806	11.765	11.753	11.776
ProbeTrack12	10	ProbeTrack	11.3	WolfelabSpurzheim	20101109.115437	20101109.121850	8	0.011764	60	0	60-180	60	178	GapExp	0	249	2	3	1	target	1	367	817	367623	11.765	11.755	11.776
ProbeTrack12	10	ProbeTrack	11.3	WolfelabSpurzheim	20101109.115437	20101109.121856	8	0.011764	60	10	60-180	60	136	GapExp	0	250	2	0	0	distractor	1	579	711	368334	11.765	11.754	11.778
