exp	sub	code	rev	comp	runtime	trialtime	nstim	refreshdur	cuedur	gapdur	gapOnsetRange	durPostProbe	gapOnsetTime	blocktype	prac	trial	ntargets	soa	probeTarget	resp	acc	rt	pts	tpts	meanFrameDur	minFrameDur	maxFrameDur
ProbeTrack12	8	ProbeTrack	11.3	WolfelabSpurzheim	20101025.151612	20101025.151719	8	0.011765	60	0	60-180	60	129	NoGap	1	1	2	0	0	distractor	1	3414	0	0	11.854	11.754	11.777
ProbeTrack12	8	ProbeTrack	11.3	WolfelabSpurzheim	20101025.151612	20101025.151738	8	0.011765	60	0	60-180	60	82	NoGap	1	2	2	1	1	target	1	1026	487	487	11.819	11.746	23.539
ProbeTrack12	8	ProbeTrack	11.3	WolfelabSpurzheim	20101025.151612	20101025.151751	8	0.011765	60	0	60-180	60	176	NoGap	1	3	2	0	1	target	1	802	599	1086	11.765	11.753	11.777
ProbeTrack12	8	ProbeTrack	11.3	WolfelabSpurzheim	20101025.151612	20101025.151801	8	0.011765	60	0	60-180	60	109	NoGap	1	4	2	45	0	target	0	391	-1000	86	11.765	11.755	11.776
ProbeTrack12	8	ProbeTrack	11.3	WolfelabSpurzheim	20101025.151612	20101025.151811	8	0.011765	60	0	60-180	60	69	NoGap	1	5	2	0	0	distractor	1	755	623	709	11.765	11.743	11.789
ProbeTrack12	8	ProbeTrack	11.3	WolfelabSpurzheim	20101025.151612	20101025.151822	8	0.011765	60	0	60-180	60	79	NoGap	1	6	2	45	1	target	1	555	723	1432	11.765	11.741	11.797
ProbeTrack12	8	ProbeTrack	11.3	WolfelabSpurzheim	20101025.151612	20101025.151830	8	0.011765	60	0	60-180	60	150	NoGap	1	7	2	3	0	distractor	1	755	623	2055	11.765	11.753	11.777
ProbeTrack12	8	ProbeTrack	11.3	WolfelabSpurzheim	20101025.151612	20101025.151837	8	0.011765	60	0	60-180	60	97	NoGap	1	8	2	1	0	distractor	1	661	670	2725	11.765	11.756	11.775
ProbeTrack12	8	ProbeTrack	11.3	WolfelabSpurzheim	20101025.151612	20101025.151845	8	0.011765	60	0	60-180	60	94	NoGap	1	9	2	1	1	distractor	0	719	-1000	1725	11.765	11.754	11.776
ProbeTrack12	8	ProbeTrack	11.3	WolfelabSpurzheim	20101025.151612	20101025.151852	8	0.011765	60	0	60-180	60	66	NoGap	1	10	2	1	1	target	1	625	688	2413	11.765	11.755	11.777
ProbeTrack12	8	ProbeTrack	11.3	WolfelabSpurzheim	20101025.151612	20101025.151858	8	0.011765	60	0	60-180	60	68	NoGap	1	11	2	3	1	distractor	0	849	-1000	1413	11.765	11.754	11.777
ProbeTrack12	8	ProbeTrack	11.3	WolfelabSpurzheim	20101025.151612	20101025.151904	8	0.011765	60	0	60-180	60	146	NoGap	1	12	2	0	1	target	1	614	693	2106	11.765	11.754	11.775
ProbeTrack12	8	ProbeTrack	11.3	WolfelabSpurzheim	20101025.151612	20101025.151913	8	0.011765	60	0	60-180	60	103	NoGap	1	13	2	1	0	target	0	743	-1000	1106	11.765	11.741	11.792
ProbeTrack12	8	ProbeTrack	11.3	WolfelabSpurzheim	20101025.151612	20101025.151920	8	0.011765	60	0	60-180	60	142	NoGap	1	14	2	45	1	target	1	379	811	1917	11.765	11.754	11.776
ProbeTrack12	8	ProbeTrack	11.3	WolfelabSpurzheim	20101025.151612	20101025.151929	8	0.011765	60	0	60-180	60	168	NoGap	1	15	2	3	0	target	0	896	-1000	917	11.765	11.751	11.784
ProbeTrack12	8	ProbeTrack	11.3	WolfelabSpurzheim	20101025.151612	20101025.151936	8	0.011765	60	0	60-180	60	115	NoGap	1	16	2	3	0	target	0	332	-1000	-83	11.765	11.753	11.776
ProbeTrack12	8	ProbeTrack	11.3	WolfelabSpurzheim	20101025.151612	20101025.151943	8	0.011765	60	0	60-180	60	140	NoGap	1	17	2	1	0	target	0	355	-1000	-1083	11.765	11.754	11.777
ProbeTrack12	8	ProbeTrack	11.3	WolfelabSpurzheim	20101025.151612	20101025.151949	8	0.011765	60	0	60-180	60	69	NoGap	1	18	2	45	0	target	0	1049	-1000	-2083	11.765	11.755	11.776
ProbeTrack12	8	ProbeTrack	11.3	WolfelabSpurzheim	20101025.151612	20101025.151956	8	0.011765	60	0	60-180	60	154	NoGap	1	19	2	0	1	target	1	285	858	-1225	11.765	11.753	11.776
ProbeTrack12	8	ProbeTrack	11.3	WolfelabSpurzheim	20101025.151612	20101025.152003	8	0.011765	60	0	60-180	60	99	NoGap	1	20	2	0	0	distractor	1	1013	494	-731	11.765	11.754	11.775
ProbeTrack12	8	ProbeTrack	11.3	WolfelabSpurzheim	20101025.151612	20101025.152010	8	0.011765	60	0	60-180	60	112	NoGap	1	21	2	0	1	target	1	849	576	-155	11.765	11.754	11.776
ProbeTrack12	8	ProbeTrack	11.3	WolfelabSpurzheim	20101025.151612	20101025.152016	8	0.011765	60	0	60-180	60	150	NoGap	1	22	2	45	0	distractor	1	1166	417	262	11.765	11.752	11.776
ProbeTrack12	8	ProbeTrack	11.3	WolfelabSpurzheim	20101025.151612	20101025.152024	8	0.011765	60	0	60-180	60	162	NoGap	1	23	2	1	0	distractor	1	1166	417	679	11.765	11.734	11.800
ProbeTrack12	8	ProbeTrack	11.3	WolfelabSpurzheim	20101025.151612	20101025.152032	8	0.011765	60	0	60-180	60	84	NoGap	1	24	2	45	1	target	1	743	629	1308	11.765	11.732	11.797
ProbeTrack12	8	ProbeTrack	11.3	WolfelabSpurzheim	20101025.151612	20101025.152039	8	0.011765	60	0	60-180	60	104	NoGap	1	25	2	45	0	distractor	1	685	658	1966	11.765	11.727	11.805
ProbeTrack12	8	ProbeTrack	11.3	WolfelabSpurzheim	20101025.151612	20101025.152046	8	0.011765	60	0	60-180	60	174	NoGap	1	26	2	0	0	distractor	1	1319	341	2307	11.765	11.754	11.776
ProbeTrack12	8	ProbeTrack	11.3	WolfelabSpurzheim	20101025.151612	20101025.152054	8	0.011765	60	0	60-180	60	154	NoGap	1	27	2	1	1	target	1	637	682	2989	11.765	11.754	11.776
ProbeTrack12	8	ProbeTrack	11.3	WolfelabSpurzheim	20101025.151612	20101025.152101	8	0.011765	60	0	60-180	60	138	NoGap	1	28	2	3	1	target	1	872	564	3553	11.765	11.755	11.776
ProbeTrack12	8	ProbeTrack	11.3	WolfelabSpurzheim	20101025.151612	20101025.152108	8	0.011765	60	0	60-180	60	84	NoGap	1	29	2	3	0	distractor	1	860	570	4123	11.765	11.755	11.776
ProbeTrack12	8	ProbeTrack	11.3	WolfelabSpurzheim	20101025.151612	20101025.152114	8	0.011765	60	0	60-180	60	85	NoGap	1	30	2	3	1	target	1	449	776	4899	11.765	11.754	11.776
ProbeTrack12	8	ProbeTrack	11.3	WolfelabSpurzheim	20101025.151612	20101025.152119	8	0.011765	60	0	60-180	60	98	NoGap	1	31	2	1	0	distractor	1	943	529	5428	11.765	11.753	11.775
ProbeTrack12	8	ProbeTrack	11.3	WolfelabSpurzheim	20101025.151612	20101025.152126	8	0.011765	60	0	60-180	60	94	NoGap	1	32	2	45	1	target	1	1484	258	5686	11.765	11.728	11.803
ProbeTrack12	8	ProbeTrack	11.3	WolfelabSpurzheim	20101025.151612	20101025.152133	8	0.011765	60	0	60-180	60	141	NoGap	1	33	2	45	0	distractor	1	837	582	6268	11.765	11.754	11.776
ProbeTrack12	8	ProbeTrack	11.3	WolfelabSpurzheim	20101025.151612	20101025.152140	8	0.011765	60	0	60-180	60	97	NoGap	1	34	2	1	1	distractor	0	943	-1000	5268	11.765	11.753	11.777
ProbeTrack12	8	ProbeTrack	11.3	WolfelabSpurzheim	20101025.151612	20101025.152147	8	0.011765	60	0	60-180	60	146	NoGap	1	35	2	3	1	target	1	719	641	5909	11.765	11.749	11.787
ProbeTrack12	8	ProbeTrack	11.3	WolfelabSpurzheim	20101025.151612	20101025.152154	8	0.011765	60	0	60-180	60	125	NoGap	1	36	2	3	0	distractor	1	1225	388	6297	11.765	11.755	11.778
ProbeTrack12	8	ProbeTrack	11.3	WolfelabSpurzheim	20101025.151612	20101025.152202	8	0.011765	60	0	60-180	60	80	NoGap	1	37	2	0	0	distractor	1	884	558	6855	11.765	11.755	11.775
ProbeTrack12	8	ProbeTrack	11.3	WolfelabSpurzheim	20101025.151612	20101025.152208	8	0.011765	60	0	60-180	60	129	NoGap	1	38	2	45	1	target	1	931	535	7390	11.765	11.753	11.776
ProbeTrack12	8	ProbeTrack	11.3	WolfelabSpurzheim	20101025.151612	20101025.152216	8	0.011765	60	0	60-180	60	93	NoGap	1	39	2	0	1	target	1	743	629	8019	11.765	11.754	11.776
ProbeTrack12	8	ProbeTrack	11.3	WolfelabSpurzheim	20101025.151612	20101025.152221	8	0.011765	60	0	60-180	60	80	NoGap	1	40	2	3	1	target	1	626	687	8706	11.765	11.755	11.777
ProbeTrack12	8	ProbeTrack	11.3	WolfelabSpurzheim	20101025.152316	20101025.152328	8	0.011765	60	0	60-180	60	138	GapPrac	1	1	2	1	1	target	1	602	699	9405	11.941	11.753	35.295
ProbeTrack12	8	ProbeTrack	11.3	WolfelabSpurzheim	20101025.152316	20101025.152337	8	0.011765	60	0	60-180	60	164	GapPrac	1	2	2	1	0	target	0	673	-1000	8405	11.804	11.755	23.536
ProbeTrack12	8	ProbeTrack	11.3	WolfelabSpurzheim	20101025.152316	20101025.152344	8	0.011765	60	10	60-180	60	104	GapPrac	1	3	2	3	0	target	0	813	-1000	7405	11.765	11.754	11.776
ProbeTrack12	8	ProbeTrack	11.3	WolfelabSpurzheim	20101025.152316	20101025.152351	8	0.011765	60	0	60-180	60	96	GapPrac	1	4	2	45	1	target	1	426	787	8192	11.858	11.753	11.776
ProbeTrack12	8	ProbeTrack	11.3	WolfelabSpurzheim	20101025.152316	20101025.152401	8	0.011765	60	10	60-180	60	159	GapPrac	1	5	2	0	1	distractor	0	661	-1000	7192	11.765	11.754	11.776
ProbeTrack12	8	ProbeTrack	11.3	WolfelabSpurzheim	20101025.152316	20101025.152409	8	0.011765	60	10	60-180	60	73	GapPrac	1	6	2	1	0	target	0	673	-1000	6192	11.765	11.755	11.775
ProbeTrack12	8	ProbeTrack	11.3	WolfelabSpurzheim	20101025.152316	20101025.152418	8	0.011765	60	10	60-180	60	93	GapPrac	1	7	2	1	1	target	1	449	776	6968	11.765	11.754	11.776
ProbeTrack12	8	ProbeTrack	11.3	WolfelabSpurzheim	20101025.152316	20101025.152426	8	0.011765	60	0	60-180	60	138	GapPrac	1	8	2	45	1	target	1	532	734	7702	11.765	11.754	11.775
ProbeTrack12	8	ProbeTrack	11.3	WolfelabSpurzheim	20101025.152316	20101025.152433	8	0.011765	60	10	60-180	60	76	GapPrac	1	9	2	3	1	target	1	426	787	8489	11.765	11.754	11.776
ProbeTrack12	8	ProbeTrack	11.3	WolfelabSpurzheim	20101025.152316	20101025.152439	8	0.011765	60	10	60-180	60	83	GapPrac	1	10	2	0	0	target	0	320	-1000	7489	11.765	11.755	11.776
ProbeTrack12	8	ProbeTrack	11.3	WolfelabSpurzheim	20101025.152316	20101025.152445	8	0.011765	60	10	60-180	60	173	GapPrac	1	11	2	45	1	target	1	543	729	8218	11.765	11.753	11.777
ProbeTrack12	8	ProbeTrack	11.3	WolfelabSpurzheim	20101025.152316	20101025.152452	8	0.011765	60	0	60-180	60	98	GapPrac	1	12	2	45	0	target	0	461	-1000	7218	11.765	11.753	11.776
ProbeTrack12	8	ProbeTrack	11.3	WolfelabSpurzheim	20101025.152316	20101025.152459	8	0.011765	60	0	60-180	60	170	GapPrac	1	13	2	3	1	target	1	685	658	7876	11.765	11.738	11.803
ProbeTrack12	8	ProbeTrack	11.3	WolfelabSpurzheim	20101025.152316	20101025.152506	8	0.011765	60	0	60-180	60	149	GapPrac	1	14	2	1	1	target	1	708	646	8522	11.765	11.753	11.775
ProbeTrack12	8	ProbeTrack	11.3	WolfelabSpurzheim	20101025.152316	20101025.152512	8	0.011765	60	0	60-180	60	79	GapPrac	1	15	2	0	1	target	1	391	805	9327	11.765	11.755	11.776
ProbeTrack12	8	ProbeTrack	11.3	WolfelabSpurzheim	20101025.152316	20101025.152519	8	0.011765	60	0	60-180	60	150	GapPrac	1	16	2	0	0	distractor	1	543	729	10056	11.765	11.752	11.776
ProbeTrack12	8	ProbeTrack	11.3	WolfelabSpurzheim	20101025.152316	20101025.152525	8	0.011765	60	10	60-180	60	152	GapPrac	1	17	2	3	0	distractor	1	779	611	10667	11.765	11.754	11.776
ProbeTrack12	8	ProbeTrack	11.3	WolfelabSpurzheim	20101025.152316	20101025.152532	8	0.011765	60	0	60-180	60	132	GapPrac	1	18	2	3	0	distractor	1	684	658	11325	11.765	11.754	11.776
ProbeTrack12	8	ProbeTrack	11.3	WolfelabSpurzheim	20101025.152316	20101025.152538	8	0.011765	60	10	60-180	60	95	GapPrac	1	19	2	45	0	target	0	978	-1000	10325	11.765	11.754	11.777
ProbeTrack12	8	ProbeTrack	11.3	WolfelabSpurzheim	20101025.152316	20101025.152545	8	0.011765	60	0	60-180	60	126	GapPrac	1	20	2	1	0	distractor	1	696	652	10977	11.765	11.755	11.775
ProbeTrack12	8	ProbeTrack	11.3	WolfelabSpurzheim	20101025.152643	20101025.152647	8	0.011764	60	0	60-180	60	166	GapExp	1	1	2	1	0	distractor	1	437	782	11759	11.933	11.754	35.294
ProbeTrack12	8	ProbeTrack	11.3	WolfelabSpurzheim	20101025.152643	20101025.152655	8	0.011764	60	10	60-180	60	102	GapExp	1	2	2	3	1	target	1	390	805	12564	11.765	11.754	11.777
ProbeTrack12	8	ProbeTrack	11.3	WolfelabSpurzheim	20101025.152643	20101025.152702	8	0.011764	60	0	60-180	60	131	GapExp	1	3	2	3	0	distractor	1	626	687	13251	11.899	11.754	23.523
ProbeTrack12	8	ProbeTrack	11.3	WolfelabSpurzheim	20101025.152643	20101025.152723	8	0.011764	60	0	60-180	60	124	GapExp	1	4	2	45	1	target	1	567	717	13968	11.765	11.754	11.776
ProbeTrack12	8	ProbeTrack	11.3	WolfelabSpurzheim	20101025.152643	20101025.152729	8	0.011764	60	10	60-180	60	127	GapExp	1	5	2	1	1	target	1	438	781	14749	11.765	11.753	11.776
ProbeTrack12	8	ProbeTrack	11.3	WolfelabSpurzheim	20101025.152643	20101025.152737	8	0.011764	60	10	60-180	60	90	GapExp	1	6	2	45	0	distractor	1	743	629	15378	11.765	11.754	11.776
ProbeTrack12	8	ProbeTrack	11.3	WolfelabSpurzheim	20101025.152643	20101025.152743	8	0.011764	60	10	60-180	60	165	GapExp	1	7	2	1	0	target	0	614	-1000	14378	11.765	11.752	11.776
ProbeTrack12	8	ProbeTrack	11.3	WolfelabSpurzheim	20101025.152643	20101025.152751	8	0.011764	60	0	60-180	60	138	GapExp	1	8	2	0	1	target	1	449	776	15154	11.765	11.737	11.791
ProbeTrack12	8	ProbeTrack	11.3	WolfelabSpurzheim	20101025.152643	20101025.152757	8	0.011764	60	0	60-180	60	95	GapExp	1	9	2	45	0	distractor	1	708	646	15800	11.765	11.754	11.775
ProbeTrack12	8	ProbeTrack	11.3	WolfelabSpurzheim	20101025.152643	20101025.152804	8	0.011764	60	10	60-180	60	121	GapExp	1	10	2	0	1	target	1	449	776	16576	11.765	11.754	11.776
ProbeTrack12	8	ProbeTrack	11.3	WolfelabSpurzheim	20101025.152643	20101025.152810	8	0.011764	60	10	60-180	60	84	GapExp	0	11	2	45	1	target	1	673	664	17240	11.765	11.753	11.776
ProbeTrack12	8	ProbeTrack	11.3	WolfelabSpurzheim	20101025.152643	20101025.152816	8	0.011764	60	10	60-180	60	83	GapExp	0	12	2	3	0	distractor	1	615	693	17933	11.765	11.754	11.776
ProbeTrack12	8	ProbeTrack	11.3	WolfelabSpurzheim	20101025.152643	20101025.152822	8	0.011764	60	0	60-180	60	119	GapExp	0	13	2	1	1	distractor	0	532	-1000	16933	11.765	11.754	11.776
ProbeTrack12	8	ProbeTrack	11.3	WolfelabSpurzheim	20101025.152643	20101025.152829	8	0.011764	60	0	60-180	60	171	GapExp	0	14	2	3	0	distractor	1	673	664	17597	11.765	11.748	11.777
ProbeTrack12	8	ProbeTrack	11.3	WolfelabSpurzheim	20101025.152643	20101025.152836	8	0.011764	60	0	60-180	60	108	GapExp	0	15	2	1	0	target	0	719	-1000	16597	11.765	11.753	11.778
ProbeTrack12	8	ProbeTrack	11.3	WolfelabSpurzheim	20101025.152643	20101025.152843	8	0.011764	60	10	60-180	60	148	GapExp	0	16	2	1	1	target	1	626	687	17284	11.765	11.754	11.777
ProbeTrack12	8	ProbeTrack	11.3	WolfelabSpurzheim	20101025.152643	20101025.152850	8	0.011764	60	0	60-180	60	76	GapExp	0	17	2	0	1	target	1	461	770	18054	11.765	11.754	11.776
ProbeTrack12	8	ProbeTrack	11.3	WolfelabSpurzheim	20101025.152643	20101025.152856	8	0.011764	60	10	60-180	60	82	GapExp	0	18	2	0	1	target	1	532	734	18788	11.765	11.747	11.780
ProbeTrack12	8	ProbeTrack	11.3	WolfelabSpurzheim	20101025.152643	20101025.152902	8	0.011764	60	0	60-180	60	86	GapExp	0	19	2	3	1	target	1	790	605	19393	11.765	11.745	11.790
ProbeTrack12	8	ProbeTrack	11.3	WolfelabSpurzheim	20101025.152643	20101025.152908	8	0.011764	60	10	60-180	60	96	GapExp	0	20	2	45	0	target	0	650	-1000	18393	11.765	11.754	11.776
ProbeTrack12	8	ProbeTrack	11.3	WolfelabSpurzheim	20101025.152643	20101025.152915	8	0.011764	60	10	60-180	60	89	GapExp	0	21	2	0	0	target	0	391	-1000	17393	11.765	11.754	11.775
ProbeTrack12	8	ProbeTrack	11.3	WolfelabSpurzheim	20101025.152643	20101025.152924	8	0.011764	60	0	60-180	60	74	GapExp	0	22	2	3	0	distractor	1	708	646	18039	11.765	11.755	11.776
ProbeTrack12	8	ProbeTrack	11.3	WolfelabSpurzheim	20101025.152643	20101025.152930	8	0.011764	60	0	60-180	60	77	GapExp	0	23	2	0	1	target	1	449	776	18815	11.765	11.754	11.777
ProbeTrack12	8	ProbeTrack	11.3	WolfelabSpurzheim	20101025.152643	20101025.152936	8	0.011764	60	0	60-180	60	122	GapExp	0	24	2	1	1	target	1	485	758	19573	11.765	11.754	11.775
ProbeTrack12	8	ProbeTrack	11.3	WolfelabSpurzheim	20101025.152643	20101025.152942	8	0.011764	60	10	60-180	60	132	GapExp	0	25	2	0	1	target	1	696	652	20225	11.765	11.754	11.777
ProbeTrack12	8	ProbeTrack	11.3	WolfelabSpurzheim	20101025.152643	20101025.152948	8	0.011764	60	0	60-180	60	104	GapExp	0	26	2	1	1	target	1	379	811	21036	11.765	11.755	11.775
ProbeTrack12	8	ProbeTrack	11.3	WolfelabSpurzheim	20101025.152643	20101025.152955	8	0.011764	60	10	60-180	60	179	GapExp	0	27	2	45	1	distractor	0	720	-1000	20036	11.765	11.753	11.778
ProbeTrack12	8	ProbeTrack	11.3	WolfelabSpurzheim	20101025.152643	20101025.153002	8	0.011764	60	0	60-180	60	120	GapExp	0	28	2	0	0	target	0	813	-1000	19036	11.765	11.717	11.808
ProbeTrack12	8	ProbeTrack	11.3	WolfelabSpurzheim	20101025.152643	20101025.153009	8	0.011764	60	0	60-180	60	140	GapExp	0	29	2	3	0	distractor	1	825	588	19624	11.765	11.754	11.776
ProbeTrack12	8	ProbeTrack	11.3	WolfelabSpurzheim	20101025.152643	20101025.153016	8	0.011764	60	10	60-180	60	113	GapExp	0	30	2	3	0	target	0	696	-1000	18624	11.765	11.753	11.775
ProbeTrack12	8	ProbeTrack	11.3	WolfelabSpurzheim	20101025.152643	20101025.153023	8	0.011764	60	10	60-180	60	95	GapExp	0	31	2	3	0	distractor	1	731	635	19259	11.765	11.753	11.776
ProbeTrack12	8	ProbeTrack	11.3	WolfelabSpurzheim	20101025.152643	20101025.153030	8	0.011764	60	10	60-180	60	99	GapExp	0	32	2	1	1	target	1	391	805	20064	11.765	11.753	11.777
ProbeTrack12	8	ProbeTrack	11.3	WolfelabSpurzheim	20101025.152643	20101025.153035	8	0.011764	60	0	60-180	60	73	GapExp	0	33	2	1	0	distractor	1	626	687	20751	11.765	11.755	11.777
ProbeTrack12	8	ProbeTrack	11.3	WolfelabSpurzheim	20101025.152643	20101025.153043	8	0.011764	60	0	60-180	60	178	GapExp	0	34	2	1	1	target	1	426	787	21538	11.765	11.752	11.777
ProbeTrack12	8	ProbeTrack	11.3	WolfelabSpurzheim	20101025.152643	20101025.153049	8	0.011764	60	10	60-180	60	66	GapExp	0	35	2	1	0	target	0	626	-1000	20538	11.765	11.754	11.777
ProbeTrack12	8	ProbeTrack	11.3	WolfelabSpurzheim	20101025.152643	20101025.153055	8	0.011764	60	10	60-180	60	137	GapExp	0	36	2	45	1	target	1	708	646	21184	11.765	11.749	11.780
ProbeTrack12	8	ProbeTrack	11.3	WolfelabSpurzheim	20101025.152643	20101025.153103	8	0.011764	60	10	60-180	60	62	GapExp	0	37	2	0	1	target	1	579	711	21895	11.765	11.754	11.775
ProbeTrack12	8	ProbeTrack	11.3	WolfelabSpurzheim	20101025.152643	20101025.153108	8	0.011764	60	0	60-180	60	92	GapExp	0	38	2	45	0	distractor	1	696	652	22547	11.765	11.722	11.816
ProbeTrack12	8	ProbeTrack	11.3	WolfelabSpurzheim	20101025.152643	20101025.153115	8	0.011764	60	10	60-180	60	155	GapExp	0	39	2	45	0	target	0	978	-1000	21547	11.765	11.754	11.777
ProbeTrack12	8	ProbeTrack	11.3	WolfelabSpurzheim	20101025.152643	20101025.153123	8	0.011764	60	10	60-180	60	109	GapExp	0	40	2	3	0	target	0	438	-1000	20547	11.765	11.753	11.776
ProbeTrack12	8	ProbeTrack	11.3	WolfelabSpurzheim	20101025.152643	20101025.153130	8	0.011764	60	0	60-180	60	116	GapExp	0	41	2	3	1	target	1	473	764	21311	11.765	11.753	11.779
ProbeTrack12	8	ProbeTrack	11.3	WolfelabSpurzheim	20101025.152643	20101025.153142	8	0.011764	60	0	60-180	60	170	GapExp	0	42	2	3	0	distractor	1	731	635	21946	11.765	11.751	11.776
ProbeTrack12	8	ProbeTrack	11.3	WolfelabSpurzheim	20101025.152643	20101025.153149	8	0.011764	60	10	60-180	60	147	GapExp	0	43	2	1	1	target	1	649	676	22622	11.765	11.755	11.776
ProbeTrack12	8	ProbeTrack	11.3	WolfelabSpurzheim	20101025.152643	20101025.153156	8	0.011764	60	0	60-180	60	141	GapExp	0	44	2	0	0	target	0	590	-1000	21622	11.765	11.754	11.776
ProbeTrack12	8	ProbeTrack	11.3	WolfelabSpurzheim	20101025.152643	20101025.153203	8	0.011764	60	10	60-180	60	165	GapExp	0	45	2	3	1	target	1	520	740	22362	11.765	11.753	11.777
ProbeTrack12	8	ProbeTrack	11.3	WolfelabSpurzheim	20101025.152643	20101025.153211	8	0.011764	60	10	60-180	60	104	GapExp	0	46	2	0	1	target	1	402	799	23161	11.765	11.754	11.776
ProbeTrack12	8	ProbeTrack	11.3	WolfelabSpurzheim	20101025.152643	20101025.153220	8	0.011764	60	0	60-180	60	162	GapExp	0	47	2	0	1	target	1	496	752	23913	11.765	11.753	11.776
ProbeTrack12	8	ProbeTrack	11.3	WolfelabSpurzheim	20101025.152643	20101025.153227	8	0.011764	60	0	60-180	60	104	GapExp	0	48	2	1	0	target	0	685	-1000	22913	11.765	11.754	11.776
ProbeTrack12	8	ProbeTrack	11.3	WolfelabSpurzheim	20101025.152643	20101025.153233	8	0.011764	60	10	60-180	60	178	GapExp	0	49	2	45	1	target	1	802	599	23512	11.765	11.753	11.778
ProbeTrack12	8	ProbeTrack	11.3	WolfelabSpurzheim	20101025.152643	20101025.153242	8	0.011764	60	0	60-180	60	153	GapExp	0	50	2	3	1	target	1	673	664	24176	11.765	11.754	11.776
ProbeTrack12	8	ProbeTrack	11.3	WolfelabSpurzheim	20101025.152643	20101025.153250	8	0.011764	60	0	60-180	60	71	GapExp	0	51	2	1	0	distractor	1	719	641	24817	11.765	11.753	11.776
ProbeTrack12	8	ProbeTrack	11.3	WolfelabSpurzheim	20101025.152643	20101025.153258	8	0.011764	60	0	60-180	60	155	GapExp	0	52	2	3	1	target	1	449	776	25593	11.765	11.754	11.776
ProbeTrack12	8	ProbeTrack	11.3	WolfelabSpurzheim	20101025.152643	20101025.153304	8	0.011764	60	10	60-180	60	169	GapExp	0	53	2	1	1	target	1	685	658	26251	11.765	11.754	11.777
ProbeTrack12	8	ProbeTrack	11.3	WolfelabSpurzheim	20101025.152643	20101025.153313	8	0.011764	60	0	60-180	60	79	GapExp	0	54	2	45	1	target	1	449	776	27027	11.765	11.753	11.775
ProbeTrack12	8	ProbeTrack	11.3	WolfelabSpurzheim	20101025.152643	20101025.153319	8	0.011764	60	10	60-180	60	154	GapExp	0	55	2	1	1	target	1	473	764	27791	11.765	11.755	11.777
ProbeTrack12	8	ProbeTrack	11.3	WolfelabSpurzheim	20101025.152643	20101025.153326	8	0.011764	60	10	60-180	60	140	GapExp	0	56	2	45	1	target	1	532	734	28525	11.765	11.754	11.776
ProbeTrack12	8	ProbeTrack	11.3	WolfelabSpurzheim	20101025.152643	20101025.153333	8	0.011764	60	10	60-180	60	171	GapExp	0	57	2	45	0	distractor	1	849	576	29101	11.765	11.754	11.777
ProbeTrack12	8	ProbeTrack	11.3	WolfelabSpurzheim	20101025.152643	20101025.153341	8	0.011764	60	0	60-180	60	76	GapExp	0	58	2	0	1	target	1	590	705	29806	11.765	11.754	11.776
ProbeTrack12	8	ProbeTrack	11.3	WolfelabSpurzheim	20101025.152643	20101025.153347	8	0.011764	60	0	60-180	60	125	GapExp	0	59	2	3	1	target	1	2814	0	29806	11.765	11.753	11.776
ProbeTrack12	8	ProbeTrack	11.3	WolfelabSpurzheim	20101025.152643	20101025.153356	8	0.011764	60	0	60-180	60	134	GapExp	0	60	2	3	0	distractor	1	708	646	30452	11.765	11.753	11.776
ProbeTrack12	8	ProbeTrack	11.3	WolfelabSpurzheim	20101025.152643	20101025.153404	8	0.011764	60	0	60-180	60	64	GapExp	0	61	2	45	0	distractor	1	755	623	31075	11.765	11.754	11.776
ProbeTrack12	8	ProbeTrack	11.3	WolfelabSpurzheim	20101025.152643	20101025.153411	8	0.011764	60	0	60-180	60	116	GapExp	0	62	2	0	0	distractor	1	625	688	31763	11.765	11.754	11.776
ProbeTrack12	8	ProbeTrack	11.3	WolfelabSpurzheim	20101025.152643	20101025.153418	8	0.011764	60	0	60-180	60	159	GapExp	0	63	2	45	1	target	1	532	734	32497	11.765	11.754	11.775
ProbeTrack12	8	ProbeTrack	11.3	WolfelabSpurzheim	20101025.152643	20101025.153425	8	0.011764	60	10	60-180	60	154	GapExp	0	64	2	3	0	distractor	1	790	605	33102	11.765	11.754	11.776
ProbeTrack12	8	ProbeTrack	11.3	WolfelabSpurzheim	20101025.152643	20101025.153432	8	0.011764	60	10	60-180	60	89	GapExp	0	65	2	0	1	target	1	378	811	33913	11.765	11.754	11.777
ProbeTrack12	8	ProbeTrack	11.3	WolfelabSpurzheim	20101025.152643	20101025.153438	8	0.011764	60	10	60-180	60	103	GapExp	0	66	2	0	0	target	0	414	-1000	32913	11.765	11.754	11.776
ProbeTrack12	8	ProbeTrack	11.3	WolfelabSpurzheim	20101025.152643	20101025.153444	8	0.011764	60	0	60-180	60	117	GapExp	0	67	2	45	1	target	1	485	758	33671	11.765	11.755	11.777
ProbeTrack12	8	ProbeTrack	11.3	WolfelabSpurzheim	20101025.152643	20101025.153453	8	0.011764	60	10	60-180	60	122	GapExp	0	68	2	1	1	target	1	790	605	34276	11.765	11.753	11.776
ProbeTrack12	8	ProbeTrack	11.3	WolfelabSpurzheim	20101025.152643	20101025.153500	8	0.011764	60	0	60-180	60	62	GapExp	0	69	2	45	0	target	0	802	-1000	33276	11.765	11.754	11.776
ProbeTrack12	8	ProbeTrack	11.3	WolfelabSpurzheim	20101025.152643	20101025.153506	8	0.011764	60	0	60-180	60	111	GapExp	0	70	2	45	0	distractor	1	673	664	33940	11.765	11.755	11.777
ProbeTrack12	8	ProbeTrack	11.3	WolfelabSpurzheim	20101025.152643	20101025.153516	8	0.011764	60	10	60-180	60	176	GapExp	0	71	2	1	1	target	1	355	823	34763	11.765	11.745	11.787
ProbeTrack12	8	ProbeTrack	11.3	WolfelabSpurzheim	20101025.152643	20101025.153523	8	0.011764	60	10	60-180	60	149	GapExp	0	72	2	0	1	target	1	555	723	35486	11.765	11.754	11.776
ProbeTrack12	8	ProbeTrack	11.3	WolfelabSpurzheim	20101025.152643	20101025.153531	8	0.011764	60	10	60-180	60	139	GapExp	0	73	2	1	0	target	0	685	-1000	34486	11.765	11.753	11.775
ProbeTrack12	8	ProbeTrack	11.3	WolfelabSpurzheim	20101025.152643	20101025.153538	8	0.011764	60	0	60-180	60	81	GapExp	0	74	2	1	1	target	1	649	676	35162	11.765	11.755	11.776
ProbeTrack12	8	ProbeTrack	11.3	WolfelabSpurzheim	20101025.152643	20101025.153545	8	0.011764	60	10	60-180	60	145	GapExp	0	75	2	3	0	distractor	1	579	711	35873	11.765	11.753	11.775
ProbeTrack12	8	ProbeTrack	11.3	WolfelabSpurzheim	20101025.152643	20101025.153552	8	0.011764	60	10	60-180	60	132	GapExp	0	76	2	0	0	distractor	1	861	570	36443	11.765	11.755	11.776
ProbeTrack12	8	ProbeTrack	11.3	WolfelabSpurzheim	20101025.152643	20101025.153601	8	0.011764	60	10	60-180	60	146	GapExp	0	77	2	0	0	distractor	1	720	640	37083	11.765	11.753	11.777
ProbeTrack12	8	ProbeTrack	11.3	WolfelabSpurzheim	20101025.152643	20101025.153609	8	0.011764	60	10	60-180	60	93	GapExp	0	78	2	45	0	distractor	1	908	546	37629	11.765	11.749	11.784
ProbeTrack12	8	ProbeTrack	11.3	WolfelabSpurzheim	20101025.152643	20101025.153618	8	0.011764	60	0	60-180	60	92	GapExp	0	79	2	3	0	distractor	1	790	605	38234	11.765	11.753	11.777
ProbeTrack12	8	ProbeTrack	11.3	WolfelabSpurzheim	20101025.152643	20101025.153625	8	0.011764	60	0	60-180	60	110	GapExp	0	80	2	45	1	target	1	638	681	38915	11.765	11.754	11.775
ProbeTrack12	8	ProbeTrack	11.3	WolfelabSpurzheim	20101025.152643	20101025.153633	8	0.011764	60	10	60-180	60	92	GapExp	0	81	2	1	1	target	1	544	728	39643	11.765	11.754	11.776
ProbeTrack12	8	ProbeTrack	11.3	WolfelabSpurzheim	20101025.152643	20101025.153640	8	0.011764	60	10	60-180	60	153	GapExp	0	82	2	3	0	distractor	1	755	623	40266	11.765	11.754	11.776
ProbeTrack12	8	ProbeTrack	11.3	WolfelabSpurzheim	20101025.152643	20101025.153649	8	0.011764	60	10	60-180	60	166	GapExp	0	83	2	0	1	target	1	602	699	40965	11.765	11.740	11.782
ProbeTrack12	8	ProbeTrack	11.3	WolfelabSpurzheim	20101025.152643	20101025.153657	8	0.011764	60	0	60-180	60	174	GapExp	0	84	2	1	0	distractor	1	649	676	41641	11.765	11.754	11.777
ProbeTrack12	8	ProbeTrack	11.3	WolfelabSpurzheim	20101025.152643	20101025.153705	8	0.011764	60	0	60-180	60	154	GapExp	0	85	2	45	0	distractor	1	802	599	42240	11.765	11.753	11.776
ProbeTrack12	8	ProbeTrack	11.3	WolfelabSpurzheim	20101025.152643	20101025.153714	8	0.011764	60	10	60-180	60	89	GapExp	0	86	2	45	1	target	1	567	717	42957	11.765	11.753	11.776
ProbeTrack12	8	ProbeTrack	11.3	WolfelabSpurzheim	20101025.152643	20101025.153720	8	0.011764	60	0	60-180	60	91	GapExp	0	87	2	1	1	target	1	685	658	43615	11.765	11.733	11.792
ProbeTrack12	8	ProbeTrack	11.3	WolfelabSpurzheim	20101025.152643	20101025.153727	8	0.011764	60	10	60-180	60	97	GapExp	0	88	2	3	1	target	1	438	781	44396	11.765	11.754	11.778
ProbeTrack12	8	ProbeTrack	11.3	WolfelabSpurzheim	20101025.152643	20101025.153737	8	0.011764	60	10	60-180	60	117	GapExp	0	89	2	3	0	distractor	1	696	652	45048	11.765	11.752	11.778
ProbeTrack12	8	ProbeTrack	11.3	WolfelabSpurzheim	20101025.152643	20101025.153746	8	0.011764	60	10	60-180	60	73	GapExp	0	90	2	0	0	target	0	684	-1000	44048	11.765	11.754	11.776
ProbeTrack12	8	ProbeTrack	11.3	WolfelabSpurzheim	20101025.152643	20101025.153753	8	0.011764	60	10	60-180	60	141	GapExp	0	91	2	45	0	distractor	1	802	599	44647	11.765	11.754	11.776
ProbeTrack12	8	ProbeTrack	11.3	WolfelabSpurzheim	20101025.152643	20101025.153802	8	0.011764	60	0	60-180	60	171	GapExp	0	92	2	0	1	target	1	496	752	45399	11.765	11.753	11.776
ProbeTrack12	8	ProbeTrack	11.3	WolfelabSpurzheim	20101025.152643	20101025.153810	8	0.011764	60	0	60-180	60	115	GapExp	0	93	2	45	1	target	1	543	729	46128	11.765	11.754	11.776
ProbeTrack12	8	ProbeTrack	11.3	WolfelabSpurzheim	20101025.152643	20101025.153818	8	0.011764	60	0	60-180	60	106	GapExp	0	94	2	1	1	target	1	438	781	46909	11.765	11.753	11.777
ProbeTrack12	8	ProbeTrack	11.3	WolfelabSpurzheim	20101025.152643	20101025.153825	8	0.011764	60	0	60-180	60	99	GapExp	0	95	2	1	0	distractor	1	884	558	47467	11.765	11.752	11.778
ProbeTrack12	8	ProbeTrack	11.3	WolfelabSpurzheim	20101025.152643	20101025.153832	8	0.011764	60	0	60-180	60	83	GapExp	0	96	2	0	1	target	1	661	670	48137	11.765	11.753	11.775
ProbeTrack12	8	ProbeTrack	11.3	WolfelabSpurzheim	20101025.152643	20101025.153839	8	0.011764	60	10	60-180	60	168	GapExp	0	97	2	1	1	target	1	520	740	48877	11.765	11.740	11.790
ProbeTrack12	8	ProbeTrack	11.3	WolfelabSpurzheim	20101025.152643	20101025.153848	8	0.011764	60	0	60-180	60	137	GapExp	0	98	2	3	1	target	1	508	746	49623	11.765	11.755	11.776
ProbeTrack12	8	ProbeTrack	11.3	WolfelabSpurzheim	20101025.152643	20101025.153855	8	0.011764	60	10	60-180	60	67	GapExp	0	99	2	1	0	distractor	1	602	699	50322	11.765	11.753	11.779
ProbeTrack12	8	ProbeTrack	11.3	WolfelabSpurzheim	20101025.152643	20101025.153903	8	0.011764	60	0	60-180	60	107	GapExp	0	100	2	3	0	distractor	1	755	623	50945	11.765	11.754	11.778
ProbeTrack12	8	ProbeTrack	11.3	WolfelabSpurzheim	20101025.152643	20101025.153911	8	0.011764	60	10	60-180	60	103	GapExp	0	101	2	45	1	target	1	661	670	51615	11.765	11.754	11.776
ProbeTrack12	8	ProbeTrack	11.3	WolfelabSpurzheim	20101025.152643	20101025.154000	8	0.011764	60	0	60-180	60	169	GapExp	0	102	2	45	1	target	1	662	669	52284	11.765	11.754	11.776
ProbeTrack12	8	ProbeTrack	11.3	WolfelabSpurzheim	20101025.152643	20101025.154009	8	0.011764	60	10	60-180	60	109	GapExp	0	103	2	45	0	target	0	908	-1000	51284	11.765	11.741	11.785
ProbeTrack12	8	ProbeTrack	11.3	WolfelabSpurzheim	20101025.152643	20101025.154018	8	0.011764	60	0	60-180	60	166	GapExp	0	104	2	1	0	distractor	1	814	593	51877	11.765	11.736	11.790
ProbeTrack12	8	ProbeTrack	11.3	WolfelabSpurzheim	20101025.152643	20101025.154025	8	0.011764	60	10	60-180	60	135	GapExp	0	105	2	1	0	distractor	1	614	693	52570	11.765	11.754	11.776
ProbeTrack12	8	ProbeTrack	11.3	WolfelabSpurzheim	20101025.152643	20101025.154035	8	0.011764	60	0	60-180	60	148	GapExp	0	106	2	45	1	target	1	696	652	53222	11.765	11.754	11.777
ProbeTrack12	8	ProbeTrack	11.3	WolfelabSpurzheim	20101025.152643	20101025.154044	8	0.011764	60	10	60-180	60	170	GapExp	0	107	2	1	1	target	1	426	787	54009	11.765	11.754	11.777
ProbeTrack12	8	ProbeTrack	11.3	WolfelabSpurzheim	20101025.152643	20101025.154053	8	0.011764	60	10	60-180	60	132	GapExp	0	108	2	1	0	target	0	919	-1000	53009	11.765	11.753	11.775
ProbeTrack12	8	ProbeTrack	11.3	WolfelabSpurzheim	20101025.152643	20101025.154102	8	0.011764	60	10	60-180	60	93	GapExp	0	109	2	45	1	target	1	555	723	53732	11.765	11.755	11.776
ProbeTrack12	8	ProbeTrack	11.3	WolfelabSpurzheim	20101025.152643	20101025.154110	8	0.011764	60	10	60-180	60	93	GapExp	0	110	2	0	0	target	0	684	-1000	52732	11.765	11.754	11.777
ProbeTrack12	8	ProbeTrack	11.3	WolfelabSpurzheim	20101025.152643	20101025.154117	8	0.011764	60	0	60-180	60	145	GapExp	0	111	2	0	0	distractor	1	649	676	53408	11.765	11.748	11.786
ProbeTrack12	8	ProbeTrack	11.3	WolfelabSpurzheim	20101025.152643	20101025.154126	8	0.011764	60	10	60-180	60	101	GapExp	0	112	2	3	1	target	1	414	793	54201	11.765	11.754	11.777
ProbeTrack12	8	ProbeTrack	11.3	WolfelabSpurzheim	20101025.152643	20101025.154133	8	0.011764	60	10	60-180	60	121	GapExp	0	113	2	3	1	target	1	402	799	55000	11.765	11.754	11.777
ProbeTrack12	8	ProbeTrack	11.3	WolfelabSpurzheim	20101025.152643	20101025.154141	8	0.011764	60	0	60-180	60	152	GapExp	0	114	2	3	1	target	1	603	699	55699	11.765	11.754	11.777
ProbeTrack12	8	ProbeTrack	11.3	WolfelabSpurzheim	20101025.152643	20101025.154151	8	0.011764	60	10	60-180	60	155	GapExp	0	115	2	1	0	distractor	1	579	711	56410	11.765	11.751	11.776
ProbeTrack12	8	ProbeTrack	11.3	WolfelabSpurzheim	20101025.152643	20101025.154159	8	0.011764	60	0	60-180	60	117	GapExp	0	116	2	1	0	distractor	1	884	558	56968	11.765	11.748	11.782
ProbeTrack12	8	ProbeTrack	11.3	WolfelabSpurzheim	20101025.152643	20101025.154208	8	0.011764	60	10	60-180	60	63	GapExp	0	117	2	0	0	target	0	614	-1000	55968	11.765	11.754	11.777
ProbeTrack12	8	ProbeTrack	11.3	WolfelabSpurzheim	20101025.152643	20101025.154217	8	0.011764	60	0	60-180	60	122	GapExp	0	118	2	3	1	target	1	590	705	56673	11.765	11.755	11.775
ProbeTrack12	8	ProbeTrack	11.3	WolfelabSpurzheim	20101025.152643	20101025.154224	8	0.011764	60	10	60-180	60	116	GapExp	0	119	2	0	0	target	0	426	-1000	55673	11.765	11.754	11.777
ProbeTrack12	8	ProbeTrack	11.3	WolfelabSpurzheim	20101025.152643	20101025.154231	8	0.011764	60	10	60-180	60	144	GapExp	0	120	2	0	0	target	0	755	-1000	54673	11.765	11.754	11.776
ProbeTrack12	8	ProbeTrack	11.3	WolfelabSpurzheim	20101025.152643	20101025.154241	8	0.011764	60	0	60-180	60	66	GapExp	0	121	2	45	1	target	1	473	764	55437	11.765	11.741	11.791
ProbeTrack12	8	ProbeTrack	11.3	WolfelabSpurzheim	20101025.152643	20101025.154253	8	0.011764	60	0	60-180	60	163	GapExp	0	122	2	1	0	distractor	1	755	623	56060	11.765	11.753	11.776
ProbeTrack12	8	ProbeTrack	11.3	WolfelabSpurzheim	20101025.152643	20101025.154306	8	0.011764	60	0	60-180	60	93	GapExp	0	123	2	0	0	distractor	1	649	676	56736	11.765	11.754	11.775
ProbeTrack12	8	ProbeTrack	11.3	WolfelabSpurzheim	20101025.152643	20101025.154316	8	0.011764	60	10	60-180	60	170	GapExp	0	124	2	1	0	distractor	1	673	664	57400	11.765	11.754	11.777
ProbeTrack12	8	ProbeTrack	11.3	WolfelabSpurzheim	20101025.152643	20101025.154324	8	0.011764	60	10	60-180	60	151	GapExp	0	125	2	1	0	distractor	1	626	687	58087	11.765	11.753	11.777
ProbeTrack12	8	ProbeTrack	11.3	WolfelabSpurzheim	20101025.152643	20101025.154332	8	0.011764	60	0	60-180	60	122	GapExp	0	126	2	45	1	target	1	544	728	58815	11.765	11.754	11.777
ProbeTrack12	8	ProbeTrack	11.3	WolfelabSpurzheim	20101025.152643	20101025.154340	8	0.011764	60	10	60-180	60	62	GapExp	0	127	2	1	1	target	1	496	752	59567	11.765	11.754	11.776
ProbeTrack12	8	ProbeTrack	11.3	WolfelabSpurzheim	20101025.152643	20101025.154347	8	0.011764	60	10	60-180	60	170	GapExp	0	128	2	1	0	target	0	802	-1000	58567	11.765	11.753	11.777
ProbeTrack12	8	ProbeTrack	11.3	WolfelabSpurzheim	20101025.152643	20101025.154355	8	0.011764	60	10	60-180	60	132	GapExp	0	129	2	45	0	distractor	1	932	534	59101	11.765	11.755	11.776
ProbeTrack12	8	ProbeTrack	11.3	WolfelabSpurzheim	20101025.152643	20101025.154403	8	0.011764	60	0	60-180	60	145	GapExp	0	130	2	1	0	distractor	1	649	676	59777	11.765	11.754	11.776
ProbeTrack12	8	ProbeTrack	11.3	WolfelabSpurzheim	20101025.152643	20101025.154413	8	0.011764	60	0	60-180	60	146	GapExp	0	131	2	3	1	target	1	485	758	60535	11.765	11.755	11.777
ProbeTrack12	8	ProbeTrack	11.3	WolfelabSpurzheim	20101025.152643	20101025.154423	8	0.011764	60	0	60-180	60	134	GapExp	0	132	2	0	1	target	1	508	746	61281	11.765	11.754	11.777
ProbeTrack12	8	ProbeTrack	11.3	WolfelabSpurzheim	20101025.152643	20101025.154432	8	0.011764	60	0	60-180	60	120	GapExp	0	133	2	45	0	distractor	1	555	723	62004	11.765	11.755	11.776
ProbeTrack12	8	ProbeTrack	11.3	WolfelabSpurzheim	20101025.152643	20101025.154440	8	0.011764	60	0	60-180	60	84	GapExp	0	134	2	3	1	target	1	426	787	62791	11.765	11.755	11.777
ProbeTrack12	8	ProbeTrack	11.3	WolfelabSpurzheim	20101025.152643	20101025.154448	8	0.011764	60	0	60-180	60	150	GapExp	0	135	2	0	0	distractor	1	684	658	63449	11.765	11.753	11.777
ProbeTrack12	8	ProbeTrack	11.3	WolfelabSpurzheim	20101025.152643	20101025.154456	8	0.011764	60	10	60-180	60	138	GapExp	0	136	2	0	0	target	0	2719	-1000	62449	11.765	11.752	11.777
ProbeTrack12	8	ProbeTrack	11.3	WolfelabSpurzheim	20101025.152643	20101025.154506	8	0.011764	60	10	60-180	60	80	GapExp	0	137	2	3	1	target	1	685	658	63107	11.765	11.754	11.775
ProbeTrack12	8	ProbeTrack	11.3	WolfelabSpurzheim	20101025.152643	20101025.154515	8	0.011764	60	10	60-180	60	109	GapExp	0	138	2	0	0	target	0	520	-1000	62107	11.765	11.754	11.776
ProbeTrack12	8	ProbeTrack	11.3	WolfelabSpurzheim	20101025.152643	20101025.154522	8	0.011764	60	0	60-180	60	136	GapExp	0	139	2	3	1	target	1	438	781	62888	11.765	11.748	11.781
ProbeTrack12	8	ProbeTrack	11.3	WolfelabSpurzheim	20101025.152643	20101025.154530	8	0.011764	60	0	60-180	60	125	GapExp	0	140	2	1	1	target	1	579	711	63599	11.765	11.742	11.780
ProbeTrack12	8	ProbeTrack	11.3	WolfelabSpurzheim	20101025.152643	20101025.154538	8	0.011764	60	10	60-180	60	74	GapExp	0	141	2	1	0	target	0	743	-1000	62599	11.765	11.754	11.779
ProbeTrack12	8	ProbeTrack	11.3	WolfelabSpurzheim	20101025.152643	20101025.154549	8	0.011764	60	10	60-180	60	168	GapExp	0	142	2	0	1	target	1	766	617	63216	11.765	11.755	11.776
ProbeTrack12	8	ProbeTrack	11.3	WolfelabSpurzheim	20101025.152643	20101025.154557	8	0.011764	60	0	60-180	60	111	GapExp	0	143	2	0	0	target	0	602	-1000	62216	11.765	11.755	11.776
ProbeTrack12	8	ProbeTrack	11.3	WolfelabSpurzheim	20101025.152643	20101025.154604	8	0.011764	60	10	60-180	60	106	GapExp	0	144	2	1	0	distractor	1	849	576	62792	11.765	11.754	11.776
ProbeTrack12	8	ProbeTrack	11.3	WolfelabSpurzheim	20101025.152643	20101025.154611	8	0.011764	60	10	60-180	60	175	GapExp	0	145	2	45	0	distractor	1	696	652	63444	11.765	11.754	11.777
ProbeTrack12	8	ProbeTrack	11.3	WolfelabSpurzheim	20101025.152643	20101025.154620	8	0.011764	60	0	60-180	60	63	GapExp	0	146	2	0	1	target	1	579	711	64155	11.765	11.753	11.776
ProbeTrack12	8	ProbeTrack	11.3	WolfelabSpurzheim	20101025.152643	20101025.154627	8	0.011764	60	10	60-180	60	158	GapExp	0	147	2	3	1	target	1	367	817	64972	11.765	11.754	11.776
ProbeTrack12	8	ProbeTrack	11.3	WolfelabSpurzheim	20101025.152643	20101025.154635	8	0.011764	60	10	60-180	60	121	GapExp	0	148	2	3	1	target	1	591	705	65677	11.765	11.754	11.776
ProbeTrack12	8	ProbeTrack	11.3	WolfelabSpurzheim	20101025.152643	20101025.154643	8	0.011764	60	0	60-180	60	68	GapExp	0	149	2	1	1	target	1	531	735	66412	11.765	11.755	11.776
ProbeTrack12	8	ProbeTrack	11.3	WolfelabSpurzheim	20101025.152643	20101025.154650	8	0.011764	60	0	60-180	60	93	GapExp	0	150	2	0	0	target	0	438	-1000	65412	11.765	11.735	11.800
ProbeTrack12	8	ProbeTrack	11.3	WolfelabSpurzheim	20101025.152643	20101025.154658	8	0.011764	60	10	60-180	60	141	GapExp	0	151	2	45	1	distractor	0	520	-1000	64412	11.765	11.753	11.775
ProbeTrack12	8	ProbeTrack	11.3	WolfelabSpurzheim	20101025.152643	20101025.154715	8	0.011764	60	0	60-180	60	178	GapExp	0	152	2	3	1	target	1	485	758	65170	11.765	11.755	11.776
ProbeTrack12	8	ProbeTrack	11.3	WolfelabSpurzheim	20101025.152643	20101025.154723	8	0.011764	60	10	60-180	60	67	GapExp	0	153	2	3	1	target	1	520	740	65910	11.765	11.754	11.779
ProbeTrack12	8	ProbeTrack	11.3	WolfelabSpurzheim	20101025.152643	20101025.154730	8	0.011764	60	10	60-180	60	132	GapExp	0	154	2	3	0	target	0	426	-1000	64910	11.765	11.754	11.777
ProbeTrack12	8	ProbeTrack	11.3	WolfelabSpurzheim	20101025.152643	20101025.154737	8	0.011764	60	0	60-180	60	74	GapExp	0	155	2	45	0	distractor	1	626	687	65597	11.765	11.754	11.776
ProbeTrack12	8	ProbeTrack	11.3	WolfelabSpurzheim	20101025.152643	20101025.154745	8	0.011764	60	0	60-180	60	105	GapExp	0	156	2	0	0	distractor	1	872	564	66161	11.765	11.752	11.777
ProbeTrack12	8	ProbeTrack	11.3	WolfelabSpurzheim	20101025.152643	20101025.154753	8	0.011764	60	10	60-180	60	95	GapExp	0	157	2	0	1	target	1	614	693	66854	11.765	11.733	11.803
ProbeTrack12	8	ProbeTrack	11.3	WolfelabSpurzheim	20101025.152643	20101025.154805	8	0.011764	60	0	60-180	60	140	GapExp	0	158	2	3	1	target	1	508	746	67600	11.765	11.755	11.777
ProbeTrack12	8	ProbeTrack	11.3	WolfelabSpurzheim	20101025.152643	20101025.154812	8	0.011764	60	10	60-180	60	119	GapExp	0	159	2	3	1	target	1	496	752	68352	11.765	11.754	11.776
ProbeTrack12	8	ProbeTrack	11.3	WolfelabSpurzheim	20101025.152643	20101025.154819	8	0.011764	60	0	60-180	60	163	GapExp	0	160	2	1	1	target	1	426	787	69139	11.765	11.753	11.776
ProbeTrack12	8	ProbeTrack	11.3	WolfelabSpurzheim	20101025.152643	20101025.154827	8	0.011764	60	0	60-180	60	90	GapExp	0	161	2	0	1	target	1	520	740	69879	11.765	11.755	11.775
ProbeTrack12	8	ProbeTrack	11.3	WolfelabSpurzheim	20101025.152643	20101025.154841	8	0.011764	60	10	60-180	60	88	GapExp	0	162	2	3	1	target	1	473	764	70643	11.765	11.752	11.779
ProbeTrack12	8	ProbeTrack	11.3	WolfelabSpurzheim	20101025.152643	20101025.154848	8	0.011764	60	0	60-180	60	89	GapExp	0	163	2	0	0	distractor	1	743	629	71272	11.765	11.754	11.777
ProbeTrack12	8	ProbeTrack	11.3	WolfelabSpurzheim	20101025.152643	20101025.154856	8	0.011764	60	10	60-180	60	99	GapExp	0	164	2	1	0	distractor	1	614	693	71965	11.765	11.754	11.778
ProbeTrack12	8	ProbeTrack	11.3	WolfelabSpurzheim	20101025.152643	20101025.154902	8	0.011764	60	0	60-180	60	108	GapExp	0	165	2	3	1	target	1	438	781	72746	11.765	11.736	11.796
ProbeTrack12	8	ProbeTrack	11.3	WolfelabSpurzheim	20101025.152643	20101025.154910	8	0.011764	60	0	60-180	60	173	GapExp	0	166	2	45	0	distractor	1	684	658	73404	11.765	11.754	11.777
ProbeTrack12	8	ProbeTrack	11.3	WolfelabSpurzheim	20101025.152643	20101025.154919	8	0.011764	60	0	60-180	60	117	GapExp	0	167	2	1	1	target	1	543	729	74133	11.765	11.753	11.777
ProbeTrack12	8	ProbeTrack	11.3	WolfelabSpurzheim	20101025.152643	20101025.154927	8	0.011764	60	0	60-180	60	102	GapExp	0	168	2	0	0	distractor	1	672	664	74797	11.765	11.754	11.776
ProbeTrack12	8	ProbeTrack	11.3	WolfelabSpurzheim	20101025.152643	20101025.154935	8	0.011764	60	10	60-180	60	121	GapExp	0	169	2	45	0	target	0	719	-1000	73797	11.765	11.753	11.776
ProbeTrack12	8	ProbeTrack	11.3	WolfelabSpurzheim	20101025.152643	20101025.154943	8	0.011764	60	10	60-180	60	63	GapExp	0	170	2	0	0	target	0	837	-1000	72797	11.765	11.753	11.777
ProbeTrack12	8	ProbeTrack	11.3	WolfelabSpurzheim	20101025.152643	20101025.154949	8	0.011764	60	10	60-180	60	148	GapExp	0	171	2	0	1	target	1	449	776	73573	11.765	11.754	11.777
ProbeTrack12	8	ProbeTrack	11.3	WolfelabSpurzheim	20101025.152643	20101025.155002	8	0.011764	60	0	60-180	60	121	GapExp	0	172	2	3	0	distractor	1	637	682	74255	11.765	11.754	11.775
ProbeTrack12	8	ProbeTrack	11.3	WolfelabSpurzheim	20101025.152643	20101025.155011	8	0.011764	60	0	60-180	60	130	GapExp	0	173	2	45	0	distractor	1	590	705	74960	11.765	11.753	11.776
ProbeTrack12	8	ProbeTrack	11.3	WolfelabSpurzheim	20101025.152643	20101025.155019	8	0.011764	60	0	60-180	60	61	GapExp	0	174	2	3	0	distractor	1	638	681	75641	11.765	11.747	11.787
ProbeTrack12	8	ProbeTrack	11.3	WolfelabSpurzheim	20101025.152643	20101025.155025	8	0.011764	60	0	60-180	60	171	GapExp	0	175	2	1	0	distractor	1	837	582	76223	11.765	11.754	11.776
ProbeTrack12	8	ProbeTrack	11.3	WolfelabSpurzheim	20101025.152643	20101025.155033	8	0.011764	60	10	60-180	60	120	GapExp	0	176	2	1	1	target	1	520	740	76963	11.765	11.752	11.775
ProbeTrack12	8	ProbeTrack	11.3	WolfelabSpurzheim	20101025.152643	20101025.155040	8	0.011764	60	10	60-180	60	99	GapExp	0	177	2	3	1	target	1	673	664	77627	11.765	11.754	11.776
ProbeTrack12	8	ProbeTrack	11.3	WolfelabSpurzheim	20101025.152643	20101025.155047	8	0.011764	60	0	60-180	60	73	GapExp	0	178	2	0	1	target	1	520	740	78367	11.765	11.756	11.775
ProbeTrack12	8	ProbeTrack	11.3	WolfelabSpurzheim	20101025.152643	20101025.155054	8	0.011764	60	10	60-180	60	154	GapExp	0	179	2	45	0	distractor	1	755	623	78990	11.765	11.754	11.776
ProbeTrack12	8	ProbeTrack	11.3	WolfelabSpurzheim	20101025.152643	20101025.155103	8	0.011764	60	0	60-180	60	67	GapExp	0	180	2	45	1	target	1	449	776	79766	11.765	11.753	11.776
ProbeTrack12	8	ProbeTrack	11.3	WolfelabSpurzheim	20101025.152643	20101025.155110	8	0.011764	60	0	60-180	60	145	GapExp	0	181	2	45	0	distractor	1	684	658	80424	11.765	11.754	11.777
ProbeTrack12	8	ProbeTrack	11.3	WolfelabSpurzheim	20101025.152643	20101025.155129	8	0.011764	60	0	60-180	60	79	GapExp	0	182	2	3	0	distractor	1	649	676	81100	11.765	11.754	11.778
ProbeTrack12	8	ProbeTrack	11.3	WolfelabSpurzheim	20101025.152643	20101025.155135	8	0.011764	60	0	60-180	60	117	GapExp	0	183	2	3	0	distractor	1	615	693	81793	11.765	11.754	11.776
ProbeTrack12	8	ProbeTrack	11.3	WolfelabSpurzheim	20101025.152643	20101025.155142	8	0.011764	60	10	60-180	60	167	GapExp	0	184	2	0	1	target	1	496	752	82545	11.765	11.754	11.777
ProbeTrack12	8	ProbeTrack	11.3	WolfelabSpurzheim	20101025.152643	20101025.155150	8	0.011764	60	10	60-180	60	120	GapExp	0	185	2	3	1	target	1	379	811	83356	11.765	11.716	11.815
ProbeTrack12	8	ProbeTrack	11.3	WolfelabSpurzheim	20101025.152643	20101025.155158	8	0.011764	60	0	60-180	60	113	GapExp	0	186	2	1	0	distractor	1	567	717	84073	11.765	11.754	11.777
ProbeTrack12	8	ProbeTrack	11.3	WolfelabSpurzheim	20101025.152643	20101025.155206	8	0.011764	60	0	60-180	60	70	GapExp	0	187	2	0	1	target	1	508	746	84819	11.765	11.755	11.775
ProbeTrack12	8	ProbeTrack	11.3	WolfelabSpurzheim	20101025.152643	20101025.155212	8	0.011764	60	10	60-180	60	162	GapExp	0	188	2	3	0	distractor	1	790	605	85424	11.765	11.748	11.782
ProbeTrack12	8	ProbeTrack	11.3	WolfelabSpurzheim	20101025.152643	20101025.155220	8	0.011764	60	10	60-180	60	64	GapExp	0	189	2	1	0	distractor	1	673	664	86088	11.765	11.754	11.776
ProbeTrack12	8	ProbeTrack	11.3	WolfelabSpurzheim	20101025.152643	20101025.155228	8	0.011764	60	0	60-180	60	144	GapExp	0	190	2	45	0	distractor	1	661	670	86758	11.765	11.754	11.775
ProbeTrack12	8	ProbeTrack	11.3	WolfelabSpurzheim	20101025.152643	20101025.155236	8	0.011764	60	0	60-180	60	128	GapExp	0	191	2	45	1	target	1	426	787	87545	11.765	11.754	11.777
ProbeTrack12	8	ProbeTrack	11.3	WolfelabSpurzheim	20101025.152643	20101025.155249	8	0.011764	60	10	60-180	60	165	GapExp	0	192	2	3	0	target	0	638	-1000	86545	11.765	11.753	11.777
ProbeTrack12	8	ProbeTrack	11.3	WolfelabSpurzheim	20101025.152643	20101025.155258	8	0.011764	60	0	60-180	60	66	GapExp	0	193	2	1	1	target	1	532	734	87279	11.765	11.754	11.777
ProbeTrack12	8	ProbeTrack	11.3	WolfelabSpurzheim	20101025.152643	20101025.155305	8	0.011764	60	10	60-180	60	163	GapExp	0	194	2	45	1	target	1	626	687	87966	11.765	11.754	11.776
ProbeTrack12	8	ProbeTrack	11.3	WolfelabSpurzheim	20101025.152643	20101025.155314	8	0.011764	60	10	60-180	60	171	GapExp	0	195	2	1	1	target	1	461	770	88736	11.765	11.722	11.812
ProbeTrack12	8	ProbeTrack	11.3	WolfelabSpurzheim	20101025.152643	20101025.155322	8	0.011764	60	0	60-180	60	138	GapExp	0	196	2	45	1	target	1	555	723	89459	11.765	11.710	11.826
ProbeTrack12	8	ProbeTrack	11.3	WolfelabSpurzheim	20101025.152643	20101025.155331	8	0.011764	60	0	60-180	60	94	GapExp	0	197	2	1	1	target	1	567	717	90176	11.765	11.753	11.776
ProbeTrack12	8	ProbeTrack	11.3	WolfelabSpurzheim	20101025.152643	20101025.155338	8	0.011764	60	10	60-180	60	75	GapExp	0	198	2	0	1	target	1	731	635	90811	11.765	11.753	11.777
ProbeTrack12	8	ProbeTrack	11.3	WolfelabSpurzheim	20101025.152643	20101025.155345	8	0.011764	60	0	60-180	60	91	GapExp	0	199	2	0	1	target	1	508	746	91557	11.765	11.754	11.775
ProbeTrack12	8	ProbeTrack	11.3	WolfelabSpurzheim	20101025.152643	20101025.155353	8	0.011764	60	10	60-180	60	98	GapExp	0	200	2	0	1	target	1	402	799	92356	11.765	11.744	11.789
ProbeTrack12	8	ProbeTrack	11.3	WolfelabSpurzheim	20101025.152643	20101025.155401	8	0.011764	60	0	60-180	60	147	GapExp	0	201	2	3	0	distractor	1	685	658	93014	11.765	11.753	11.776
ProbeTrack12	8	ProbeTrack	11.3	WolfelabSpurzheim	20101025.152643	20101025.155416	8	0.011764	60	0	60-180	60	78	GapExp	0	202	2	45	0	distractor	1	638	681	93695	11.765	11.754	11.776
ProbeTrack12	8	ProbeTrack	11.3	WolfelabSpurzheim	20101025.152643	20101025.155423	8	0.011764	60	0	60-180	60	66	GapExp	0	203	2	3	0	distractor	1	637	682	94377	11.765	11.740	11.792
ProbeTrack12	8	ProbeTrack	11.3	WolfelabSpurzheim	20101025.152643	20101025.155430	8	0.011764	60	10	60-180	60	85	GapExp	0	204	2	1	0	distractor	1	603	699	95076	11.765	11.754	11.777
ProbeTrack12	8	ProbeTrack	11.3	WolfelabSpurzheim	20101025.152643	20101025.155437	8	0.011764	60	0	60-180	60	69	GapExp	0	205	2	1	0	distractor	1	661	670	95746	11.765	11.724	11.802
ProbeTrack12	8	ProbeTrack	11.3	WolfelabSpurzheim	20101025.152643	20101025.155446	8	0.011764	60	10	60-180	60	173	GapExp	0	206	2	1	1	target	1	449	776	96522	11.765	11.742	11.790
ProbeTrack12	8	ProbeTrack	11.3	WolfelabSpurzheim	20101025.152643	20101025.155454	8	0.011764	60	0	60-180	60	76	GapExp	0	207	2	0	0	distractor	1	684	658	97180	11.765	11.753	11.775
ProbeTrack12	8	ProbeTrack	11.3	WolfelabSpurzheim	20101025.152643	20101025.155503	8	0.011764	60	0	60-180	60	122	GapExp	0	208	2	45	0	target	0	579	-1000	96180	11.765	11.754	11.776
ProbeTrack12	8	ProbeTrack	11.3	WolfelabSpurzheim	20101025.152643	20101025.155510	8	0.011764	60	0	60-180	60	90	GapExp	0	209	2	1	0	distractor	1	755	623	96803	11.765	11.754	11.776
ProbeTrack12	8	ProbeTrack	11.3	WolfelabSpurzheim	20101025.152643	20101025.155517	8	0.011764	60	0	60-180	60	133	GapExp	0	210	2	45	1	target	1	555	723	97526	11.765	11.755	11.777
ProbeTrack12	8	ProbeTrack	11.3	WolfelabSpurzheim	20101025.152643	20101025.155525	8	0.011764	60	0	60-180	60	65	GapExp	0	211	2	0	0	distractor	1	743	629	98155	11.765	11.754	11.776
ProbeTrack12	8	ProbeTrack	11.3	WolfelabSpurzheim	20101025.152643	20101025.155534	8	0.011764	60	0	60-180	60	146	GapExp	0	212	2	3	0	distractor	1	673	664	98819	11.765	11.754	11.776
ProbeTrack12	8	ProbeTrack	11.3	WolfelabSpurzheim	20101025.152643	20101025.155542	8	0.011764	60	10	60-180	60	168	GapExp	0	213	2	0	1	target	1	626	687	99506	11.765	11.753	11.776
ProbeTrack12	8	ProbeTrack	11.3	WolfelabSpurzheim	20101025.152643	20101025.155551	8	0.011764	60	10	60-180	60	67	GapExp	0	214	2	45	0	distractor	1	626	687	100193	11.765	11.742	11.793
ProbeTrack12	8	ProbeTrack	11.3	WolfelabSpurzheim	20101025.152643	20101025.155559	8	0.011764	60	10	60-180	60	93	GapExp	0	215	2	3	1	target	1	626	687	100880	11.765	11.752	11.777
ProbeTrack12	8	ProbeTrack	11.3	WolfelabSpurzheim	20101025.152643	20101025.155607	8	0.011764	60	10	60-180	60	156	GapExp	0	216	2	45	0	target	0	661	-1000	99880	11.765	11.753	11.778
ProbeTrack12	8	ProbeTrack	11.3	WolfelabSpurzheim	20101025.152643	20101025.155616	8	0.011764	60	0	60-180	60	122	GapExp	0	217	2	1	1	target	1	508	746	100626	11.765	11.754	11.777
ProbeTrack12	8	ProbeTrack	11.3	WolfelabSpurzheim	20101025.152643	20101025.155624	8	0.011764	60	10	60-180	60	134	GapExp	0	218	2	1	0	distractor	1	696	652	101278	11.765	11.744	11.793
ProbeTrack12	8	ProbeTrack	11.3	WolfelabSpurzheim	20101025.152643	20101025.155632	8	0.011764	60	10	60-180	60	127	GapExp	0	219	2	45	0	distractor	1	696	652	101930	11.765	11.755	11.776
ProbeTrack12	8	ProbeTrack	11.3	WolfelabSpurzheim	20101025.152643	20101025.155640	8	0.011764	60	0	60-180	60	104	GapExp	0	220	2	45	1	target	1	520	740	102670	11.765	11.753	11.776
ProbeTrack12	8	ProbeTrack	11.3	WolfelabSpurzheim	20101025.152643	20101025.155648	8	0.011764	60	10	60-180	60	86	GapExp	0	221	2	0	0	distractor	1	720	640	103310	11.765	11.750	11.783
ProbeTrack12	8	ProbeTrack	11.3	WolfelabSpurzheim	20101025.152643	20101025.155700	8	0.011764	60	0	60-180	60	77	GapExp	0	222	2	45	0	distractor	1	696	652	103962	11.765	11.754	11.776
ProbeTrack12	8	ProbeTrack	11.3	WolfelabSpurzheim	20101025.152643	20101025.155708	8	0.011764	60	0	60-180	60	170	GapExp	0	223	2	1	0	distractor	1	602	699	104661	11.765	11.753	11.776
ProbeTrack12	8	ProbeTrack	11.3	WolfelabSpurzheim	20101025.152643	20101025.155715	8	0.011764	60	10	60-180	60	63	GapExp	0	224	2	45	1	target	1	567	717	105378	11.765	11.754	11.775
ProbeTrack12	8	ProbeTrack	11.3	WolfelabSpurzheim	20101025.152643	20101025.155723	8	0.011764	60	10	60-180	60	64	GapExp	0	225	2	3	0	distractor	1	626	687	106065	11.765	11.752	11.777
ProbeTrack12	8	ProbeTrack	11.3	WolfelabSpurzheim	20101025.152643	20101025.155731	8	0.011764	60	0	60-180	60	70	GapExp	0	226	2	3	0	distractor	1	649	676	106741	11.765	11.753	11.775
ProbeTrack12	8	ProbeTrack	11.3	WolfelabSpurzheim	20101025.152643	20101025.155737	8	0.011764	60	0	60-180	60	178	GapExp	0	227	2	0	1	target	1	543	729	107470	11.765	11.754	11.776
ProbeTrack12	8	ProbeTrack	11.3	WolfelabSpurzheim	20101025.152643	20101025.155745	8	0.011764	60	10	60-180	60	175	GapExp	0	228	2	1	1	target	1	532	734	108204	11.765	11.754	11.776
ProbeTrack12	8	ProbeTrack	11.3	WolfelabSpurzheim	20101025.152643	20101025.155753	8	0.011764	60	0	60-180	60	104	GapExp	0	229	2	0	1	target	1	543	729	108933	11.765	11.753	11.776
ProbeTrack12	8	ProbeTrack	11.3	WolfelabSpurzheim	20101025.152643	20101025.155800	8	0.011764	60	10	60-180	60	133	GapExp	0	230	2	45	0	target	0	978	-1000	107933	11.765	11.753	11.777
ProbeTrack12	8	ProbeTrack	11.3	WolfelabSpurzheim	20101025.152643	20101025.155809	8	0.011764	60	10	60-180	60	64	GapExp	0	231	2	3	0	target	0	579	-1000	106933	11.765	11.753	11.776
ProbeTrack12	8	ProbeTrack	11.3	WolfelabSpurzheim	20101025.152643	20101025.155816	8	0.011764	60	10	60-180	60	117	GapExp	0	232	2	3	0	target	0	778	-1000	105933	11.765	11.754	11.777
ProbeTrack12	8	ProbeTrack	11.3	WolfelabSpurzheim	20101025.152643	20101025.155824	8	0.011764	60	10	60-180	60	128	GapExp	0	233	2	0	0	target	0	391	-1000	104933	11.765	11.754	11.777
ProbeTrack12	8	ProbeTrack	11.3	WolfelabSpurzheim	20101025.152643	20101025.155832	8	0.011764	60	0	60-180	60	172	GapExp	0	234	2	0	1	distractor	0	649	-1000	103933	11.765	11.743	11.787
ProbeTrack12	8	ProbeTrack	11.3	WolfelabSpurzheim	20101025.152643	20101025.155841	8	0.011764	60	0	60-180	60	169	GapExp	0	235	2	45	0	distractor	1	532	734	104667	11.765	11.737	11.795
ProbeTrack12	8	ProbeTrack	11.3	WolfelabSpurzheim	20101025.152643	20101025.155850	8	0.011764	60	0	60-180	60	131	GapExp	0	236	2	3	1	target	1	602	699	105366	11.765	11.753	11.777
ProbeTrack12	8	ProbeTrack	11.3	WolfelabSpurzheim	20101025.152643	20101025.155858	8	0.011764	60	0	60-180	60	110	GapExp	0	237	2	0	0	distractor	1	602	699	106065	11.765	11.750	11.778
ProbeTrack12	8	ProbeTrack	11.3	WolfelabSpurzheim	20101025.152643	20101025.155904	8	0.011764	60	10	60-180	60	127	GapExp	0	238	2	45	1	target	1	919	541	106606	11.765	11.755	11.776
ProbeTrack12	8	ProbeTrack	11.3	WolfelabSpurzheim	20101025.152643	20101025.155914	8	0.011764	60	10	60-180	60	101	GapExp	0	239	2	45	1	target	1	614	693	107299	11.765	11.754	11.777
ProbeTrack12	8	ProbeTrack	11.3	WolfelabSpurzheim	20101025.152643	20101025.155922	8	0.011764	60	10	60-180	60	102	GapExp	0	240	2	45	1	target	1	626	687	107986	11.765	11.753	11.776
ProbeTrack12	8	ProbeTrack	11.3	WolfelabSpurzheim	20101025.152643	20101025.155930	8	0.011764	60	10	60-180	60	173	GapExp	0	241	2	3	0	target	0	461	-1000	106986	11.765	11.754	11.778
ProbeTrack12	8	ProbeTrack	11.3	WolfelabSpurzheim	20101025.152643	20101025.155940	8	0.011764	60	10	60-180	60	156	GapExp	0	242	2	45	1	target	1	673	664	107650	11.765	11.754	11.776
ProbeTrack12	8	ProbeTrack	11.3	WolfelabSpurzheim	20101025.152643	20101025.155949	8	0.011764	60	0	60-180	60	140	GapExp	0	243	2	45	1	target	1	532	734	108384	11.765	11.754	11.776
ProbeTrack12	8	ProbeTrack	11.3	WolfelabSpurzheim	20101025.152643	20101025.155956	8	0.011764	60	0	60-180	60	161	GapExp	0	244	2	1	1	target	1	473	764	109148	11.765	11.753	11.777
ProbeTrack12	8	ProbeTrack	11.3	WolfelabSpurzheim	20101025.152643	20101025.160004	8	0.011764	60	10	60-180	60	98	GapExp	0	245	2	3	1	target	1	438	781	109929	11.765	11.755	11.776
ProbeTrack12	8	ProbeTrack	11.3	WolfelabSpurzheim	20101025.152643	20101025.160012	8	0.011764	60	0	60-180	60	162	GapExp	0	246	2	0	0	distractor	1	708	646	110575	11.765	11.754	11.777
ProbeTrack12	8	ProbeTrack	11.3	WolfelabSpurzheim	20101025.152643	20101025.160020	8	0.011764	60	10	60-180	60	84	GapExp	0	247	2	0	0	target	0	579	-1000	109575	11.765	11.755	11.776
ProbeTrack12	8	ProbeTrack	11.3	WolfelabSpurzheim	20101025.152643	20101025.160027	8	0.011764	60	10	60-180	60	155	GapExp	0	248	2	45	0	distractor	1	719	641	110216	11.765	11.753	11.777
ProbeTrack12	8	ProbeTrack	11.3	WolfelabSpurzheim	20101025.152643	20101025.160035	8	0.011764	60	10	60-180	60	144	GapExp	0	249	2	0	1	target	1	473	764	110980	11.765	11.738	11.787
ProbeTrack12	8	ProbeTrack	11.3	WolfelabSpurzheim	20101025.152643	20101025.160043	8	0.011764	60	10	60-180	60	105	GapExp	0	250	2	3	1	target	1	485	758	111738	11.765	11.735	11.798
ProbeTrack12	8	ProbeTrack	11.3	WolfelabSpurzheim	20101025.160127	20101025.160141	8	0.011764	60	0	60-180	60	163	GapExp	1	1	2	1	0	distractor	1	708	646	112384	11.922	11.716	35.299
ProbeTrack12	8	ProbeTrack	11.3	WolfelabSpurzheim	20101025.160127	20101025.160149	8	0.011764	60	0	60-180	60	73	GapExp	1	2	2	45	0	distractor	1	626	687	113071	11.812	11.755	23.532
ProbeTrack12	8	ProbeTrack	11.3	WolfelabSpurzheim	20101025.160127	20101025.160206	8	0.011764	60	0	60-180	60	179	GapExp	1	3	2	45	1	target	1	520	740	113811	11.765	11.753	11.776
ProbeTrack12	8	ProbeTrack	11.3	WolfelabSpurzheim	20101025.160127	20101025.160221	8	0.011764	60	10	60-180	60	89	GapExp	1	4	2	0	0	distractor	1	790	605	114416	11.765	11.753	11.776
ProbeTrack12	8	ProbeTrack	11.3	WolfelabSpurzheim	20101025.160127	20101025.160228	8	0.011764	60	10	60-180	60	82	GapExp	1	5	2	45	1	target	1	555	723	115139	11.765	11.754	11.775
ProbeTrack12	8	ProbeTrack	11.3	WolfelabSpurzheim	20101025.160127	20101025.160237	8	0.011764	60	0	60-180	60	112	GapExp	1	6	2	0	1	target	1	473	764	115903	11.868	11.755	11.776
ProbeTrack12	8	ProbeTrack	11.3	WolfelabSpurzheim	20101025.160127	20101025.160244	8	0.011764	60	0	60-180	60	155	GapExp	1	7	2	3	1	target	1	591	705	116608	11.765	11.755	11.776
ProbeTrack12	8	ProbeTrack	11.3	WolfelabSpurzheim	20101025.160127	20101025.160253	8	0.011764	60	10	60-180	60	108	GapExp	1	8	2	3	1	target	1	590	705	117313	11.765	11.746	11.784
ProbeTrack12	8	ProbeTrack	11.3	WolfelabSpurzheim	20101025.160127	20101025.160301	8	0.011764	60	0	60-180	60	100	GapExp	1	9	2	0	0	distractor	1	708	646	117959	11.765	11.755	11.777
ProbeTrack12	8	ProbeTrack	11.3	WolfelabSpurzheim	20101025.160127	20101025.160312	8	0.011764	60	10	60-180	60	152	GapExp	1	10	2	1	1	target	1	567	717	118676	11.765	11.753	11.777
ProbeTrack12	8	ProbeTrack	11.3	WolfelabSpurzheim	20101025.160127	20101025.160322	8	0.011764	60	0	60-180	60	152	GapExp	0	11	2	0	1	target	1	497	752	119428	11.765	11.754	11.777
ProbeTrack12	8	ProbeTrack	11.3	WolfelabSpurzheim	20101025.160127	20101025.160330	8	0.011764	60	10	60-180	60	143	GapExp	0	12	2	0	0	distractor	1	508	746	120174	11.765	11.754	11.776
ProbeTrack12	8	ProbeTrack	11.3	WolfelabSpurzheim	20101025.160127	20101025.160338	8	0.011764	60	0	60-180	60	178	GapExp	0	13	2	0	1	target	1	837	582	120756	11.765	11.753	11.778
ProbeTrack12	8	ProbeTrack	11.3	WolfelabSpurzheim	20101025.160127	20101025.160347	8	0.011764	60	0	60-180	60	163	GapExp	0	14	2	1	0	distractor	1	661	670	121426	11.765	11.729	11.799
ProbeTrack12	8	ProbeTrack	11.3	WolfelabSpurzheim	20101025.160127	20101025.160356	8	0.011764	60	10	60-180	60	88	GapExp	0	15	2	0	0	target	0	1484	-1000	120426	11.765	11.754	11.777
ProbeTrack12	8	ProbeTrack	11.3	WolfelabSpurzheim	20101025.160127	20101025.160403	8	0.011764	60	0	60-180	60	89	GapExp	0	16	2	45	0	distractor	1	591	705	121131	11.765	11.741	11.786
ProbeTrack12	8	ProbeTrack	11.3	WolfelabSpurzheim	20101025.160127	20101025.160412	8	0.011764	60	10	60-180	60	84	GapExp	0	17	2	45	0	distractor	1	708	646	121777	11.765	11.752	11.777
ProbeTrack12	8	ProbeTrack	11.3	WolfelabSpurzheim	20101025.160127	20101025.160421	8	0.011764	60	10	60-180	60	68	GapExp	0	18	2	3	0	distractor	1	602	699	122476	11.765	11.754	11.776
ProbeTrack12	8	ProbeTrack	11.3	WolfelabSpurzheim	20101025.160127	20101025.160429	8	0.011764	60	0	60-180	60	104	GapExp	0	19	2	3	0	distractor	1	661	670	123146	11.765	11.742	11.782
ProbeTrack12	8	ProbeTrack	11.3	WolfelabSpurzheim	20101025.160127	20101025.160437	8	0.011764	60	0	60-180	60	122	GapExp	0	20	2	1	0	distractor	1	614	693	123839	11.765	11.755	11.777
ProbeTrack12	8	ProbeTrack	11.3	WolfelabSpurzheim	20101025.160127	20101025.160445	8	0.011764	60	10	60-180	60	166	GapExp	0	21	2	45	1	distractor	0	708	-1000	122839	11.765	11.753	11.777
ProbeTrack12	8	ProbeTrack	11.3	WolfelabSpurzheim	20101025.160127	20101025.160458	8	0.011764	60	0	60-180	60	170	GapExp	0	22	2	0	0	distractor	1	849	576	123415	11.765	11.754	11.776
ProbeTrack12	8	ProbeTrack	11.3	WolfelabSpurzheim	20101025.160127	20101025.160506	8	0.011764	60	10	60-180	60	74	GapExp	0	23	2	0	0	target	0	755	-1000	122415	11.765	11.753	11.775
ProbeTrack12	8	ProbeTrack	11.3	WolfelabSpurzheim	20101025.160127	20101025.160513	8	0.011764	60	0	60-180	60	169	GapExp	0	24	2	0	0	distractor	1	649	676	123091	11.765	11.754	11.778
ProbeTrack12	8	ProbeTrack	11.3	WolfelabSpurzheim	20101025.160127	20101025.160522	8	0.011764	60	10	60-180	60	133	GapExp	0	25	2	3	1	target	1	591	705	123796	11.765	11.755	11.776
ProbeTrack12	8	ProbeTrack	11.3	WolfelabSpurzheim	20101025.160127	20101025.160531	8	0.011764	60	10	60-180	60	154	GapExp	0	26	2	3	0	target	0	521	-1000	122796	11.765	11.754	11.775
ProbeTrack12	8	ProbeTrack	11.3	WolfelabSpurzheim	20101025.160127	20101025.160540	8	0.011764	60	0	60-180	60	135	GapExp	0	27	2	0	0	distractor	1	719	641	123437	11.765	11.744	11.787
ProbeTrack12	8	ProbeTrack	11.3	WolfelabSpurzheim	20101025.160127	20101025.160548	8	0.011764	60	10	60-180	60	66	GapExp	0	28	2	0	1	target	1	802	599	124036	11.765	11.755	11.775
ProbeTrack12	8	ProbeTrack	11.3	WolfelabSpurzheim	20101025.160127	20101025.160556	8	0.011764	60	10	60-180	60	136	GapExp	0	29	2	1	1	target	1	402	799	124835	11.765	11.726	11.802
ProbeTrack12	8	ProbeTrack	11.3	WolfelabSpurzheim	20101025.160127	20101025.160603	8	0.011764	60	0	60-180	60	149	GapExp	0	30	2	45	0	distractor	1	579	711	125546	11.765	11.754	11.777
ProbeTrack12	8	ProbeTrack	11.3	WolfelabSpurzheim	20101025.160127	20101025.160612	8	0.011764	60	0	60-180	60	139	GapExp	0	31	2	3	1	target	1	532	734	126280	11.765	11.754	11.777
ProbeTrack12	8	ProbeTrack	11.3	WolfelabSpurzheim	20101025.160127	20101025.160633	8	0.011764	60	0	60-180	60	158	GapExp	0	32	2	3	1	target	1	543	729	127009	11.765	11.755	11.776
ProbeTrack12	8	ProbeTrack	11.3	WolfelabSpurzheim	20101025.160127	20101025.160641	8	0.011764	60	10	60-180	60	82	GapExp	0	33	2	3	1	target	1	391	805	127814	11.765	11.755	11.775
ProbeTrack12	8	ProbeTrack	11.3	WolfelabSpurzheim	20101025.160127	20101025.160648	8	0.011764	60	0	60-180	60	131	GapExp	0	34	2	1	1	target	1	497	752	128566	11.765	11.754	11.776
ProbeTrack12	8	ProbeTrack	11.3	WolfelabSpurzheim	20101025.160127	20101025.160655	8	0.011764	60	10	60-180	60	131	GapExp	0	35	2	45	1	target	1	461	770	129336	11.765	11.742	11.792
ProbeTrack12	8	ProbeTrack	11.3	WolfelabSpurzheim	20101025.160127	20101025.160704	8	0.011764	60	10	60-180	60	178	GapExp	0	36	2	3	0	distractor	1	497	752	130088	11.765	11.754	11.776
ProbeTrack12	8	ProbeTrack	11.3	WolfelabSpurzheim	20101025.160127	20101025.160712	8	0.011764	60	0	60-180	60	142	GapExp	0	37	2	0	1	target	1	532	734	130822	11.765	11.754	11.778
ProbeTrack12	8	ProbeTrack	11.3	WolfelabSpurzheim	20101025.160127	20101025.160719	8	0.011764	60	10	60-180	60	136	GapExp	0	38	2	1	0	target	0	508	-1000	129822	11.765	11.753	11.776
ProbeTrack12	8	ProbeTrack	11.3	WolfelabSpurzheim	20101025.160127	20101025.160727	8	0.011764	60	10	60-180	60	147	GapExp	0	39	2	0	1	target	1	379	811	130633	11.765	11.741	11.794
ProbeTrack12	8	ProbeTrack	11.3	WolfelabSpurzheim	20101025.160127	20101025.160735	8	0.011764	60	10	60-180	60	140	GapExp	0	40	2	3	0	distractor	1	591	705	131338	11.765	11.754	11.777
ProbeTrack12	8	ProbeTrack	11.3	WolfelabSpurzheim	20101025.160127	20101025.160744	8	0.011764	60	0	60-180	60	142	GapExp	0	41	2	1	0	distractor	1	673	664	132002	11.765	11.753	11.775
ProbeTrack12	8	ProbeTrack	11.3	WolfelabSpurzheim	20101025.160127	20101025.160754	8	0.011764	60	0	60-180	60	145	GapExp	0	42	2	1	0	distractor	1	626	687	132689	11.765	11.754	11.775
ProbeTrack12	8	ProbeTrack	11.3	WolfelabSpurzheim	20101025.160127	20101025.160803	8	0.011764	60	0	60-180	60	108	GapExp	0	43	2	3	1	target	1	508	746	133435	11.765	11.755	11.777
ProbeTrack12	8	ProbeTrack	11.3	WolfelabSpurzheim	20101025.160127	20101025.160811	8	0.011764	60	10	60-180	60	134	GapExp	0	44	2	0	1	target	1	426	787	134222	11.765	11.754	11.775
ProbeTrack12	8	ProbeTrack	11.3	WolfelabSpurzheim	20101025.160127	20101025.160819	8	0.011764	60	0	60-180	60	72	GapExp	0	45	2	1	1	target	1	508	746	134968	11.765	11.754	11.778
ProbeTrack12	8	ProbeTrack	11.3	WolfelabSpurzheim	20101025.160127	20101025.160827	8	0.011764	60	0	60-180	60	86	GapExp	0	46	2	0	0	distractor	1	544	728	135696	11.765	11.754	11.776
ProbeTrack12	8	ProbeTrack	11.3	WolfelabSpurzheim	20101025.160127	20101025.160839	8	0.011764	60	10	60-180	60	131	GapExp	0	47	2	45	0	target	0	603	-1000	134696	11.765	11.754	11.775
ProbeTrack12	8	ProbeTrack	11.3	WolfelabSpurzheim	20101025.160127	20101025.160847	8	0.011764	60	10	60-180	60	126	GapExp	0	48	2	1	0	distractor	1	919	541	135237	11.765	11.753	11.776
ProbeTrack12	8	ProbeTrack	11.3	WolfelabSpurzheim	20101025.160127	20101025.160856	8	0.011764	60	10	60-180	60	64	GapExp	0	49	2	0	0	target	0	438	-1000	134237	11.765	11.754	11.777
ProbeTrack12	8	ProbeTrack	11.3	WolfelabSpurzheim	20101025.160127	20101025.160903	8	0.011764	60	0	60-180	60	66	GapExp	0	50	2	1	1	target	1	567	717	134954	11.765	11.754	11.776
ProbeTrack12	8	ProbeTrack	11.3	WolfelabSpurzheim	20101025.160127	20101025.160910	8	0.011764	60	0	60-180	60	61	GapExp	0	51	2	1	0	distractor	1	743	629	135583	11.765	11.754	11.777
ProbeTrack12	8	ProbeTrack	11.3	WolfelabSpurzheim	20101025.160127	20101025.160923	8	0.011764	60	10	60-180	60	82	GapExp	0	52	2	0	1	target	1	484	758	136341	11.765	11.755	11.775
ProbeTrack12	8	ProbeTrack	11.3	WolfelabSpurzheim	20101025.160127	20101025.160935	8	0.011764	60	0	60-180	60	116	GapExp	0	53	2	1	1	target	1	391	805	137146	11.765	11.753	11.777
ProbeTrack12	8	ProbeTrack	11.3	WolfelabSpurzheim	20101025.160127	20101025.160942	8	0.011764	60	10	60-180	60	94	GapExp	0	54	2	45	0	distractor	1	825	588	137734	11.765	11.755	11.775
ProbeTrack12	8	ProbeTrack	11.3	WolfelabSpurzheim	20101025.160127	20101025.160950	8	0.011764	60	0	60-180	60	83	GapExp	0	55	2	45	0	distractor	1	555	723	138457	11.765	11.754	11.776
ProbeTrack12	8	ProbeTrack	11.3	WolfelabSpurzheim	20101025.160127	20101025.160957	8	0.011764	60	10	60-180	60	110	GapExp	0	56	2	45	1	target	1	544	728	139185	11.765	11.752	11.777
ProbeTrack12	8	ProbeTrack	11.3	WolfelabSpurzheim	20101025.160127	20101025.161005	8	0.011764	60	0	60-180	60	119	GapExp	0	57	2	1	1	target	1	426	787	139972	11.765	11.751	11.782
ProbeTrack12	8	ProbeTrack	11.3	WolfelabSpurzheim	20101025.160127	20101025.161013	8	0.011764	60	10	60-180	60	76	GapExp	0	58	2	45	0	distractor	1	766	617	140589	11.765	11.755	11.775
ProbeTrack12	8	ProbeTrack	11.3	WolfelabSpurzheim	20101025.160127	20101025.161021	8	0.011764	60	10	60-180	60	147	GapExp	0	59	2	3	1	target	1	567	717	141306	11.765	11.754	11.776
ProbeTrack12	8	ProbeTrack	11.3	WolfelabSpurzheim	20101025.160127	20101025.161029	8	0.011764	60	0	60-180	60	122	GapExp	0	60	2	45	0	distractor	1	673	664	141970	11.765	11.754	11.777
ProbeTrack12	8	ProbeTrack	11.3	WolfelabSpurzheim	20101025.160127	20101025.161038	8	0.011764	60	10	60-180	60	106	GapExp	0	61	2	0	0	target	0	402	-1000	140970	11.765	11.754	11.775
ProbeTrack12	8	ProbeTrack	11.3	WolfelabSpurzheim	20101025.160127	20101025.161053	8	0.011764	60	0	60-180	60	127	GapExp	0	62	2	0	0	distractor	1	567	717	141687	11.765	11.754	11.776
ProbeTrack12	8	ProbeTrack	11.3	WolfelabSpurzheim	20101025.160127	20101025.161100	8	0.011764	60	0	60-180	60	142	GapExp	0	63	2	45	1	distractor	0	567	-1000	140687	11.765	11.753	11.778
ProbeTrack12	8	ProbeTrack	11.3	WolfelabSpurzheim	20101025.160127	20101025.161108	8	0.011764	60	10	60-180	60	106	GapExp	0	64	2	0	0	target	0	402	-1000	139687	11.765	11.752	11.776
ProbeTrack12	8	ProbeTrack	11.3	WolfelabSpurzheim	20101025.160127	20101025.161116	8	0.011764	60	0	60-180	60	120	GapExp	0	65	2	3	0	distractor	1	543	729	140416	11.765	11.720	11.809
ProbeTrack12	8	ProbeTrack	11.3	WolfelabSpurzheim	20101025.160127	20101025.161124	8	0.011764	60	0	60-180	60	180	GapExp	0	66	2	1	1	target	1	461	770	141186	11.765	11.754	11.775
ProbeTrack12	8	ProbeTrack	11.3	WolfelabSpurzheim	20101025.160127	20101025.161132	8	0.011764	60	10	60-180	60	78	GapExp	0	67	2	1	1	target	1	731	635	141821	11.765	11.753	11.776
ProbeTrack12	8	ProbeTrack	11.3	WolfelabSpurzheim	20101025.160127	20101025.161139	8	0.011764	60	10	60-180	60	109	GapExp	0	68	2	3	1	target	1	591	705	142526	11.765	11.754	11.776
ProbeTrack12	8	ProbeTrack	11.3	WolfelabSpurzheim	20101025.160127	20101025.161146	8	0.011764	60	10	60-180	60	118	GapExp	0	69	2	0	0	target	0	520	-1000	141526	11.765	11.755	11.776
ProbeTrack12	8	ProbeTrack	11.3	WolfelabSpurzheim	20101025.160127	20101025.161154	8	0.011764	60	0	60-180	60	95	GapExp	0	70	2	0	0	distractor	1	661	670	142196	11.765	11.756	11.776
ProbeTrack12	8	ProbeTrack	11.3	WolfelabSpurzheim	20101025.160127	20101025.161202	8	0.011764	60	0	60-180	60	120	GapExp	0	71	2	1	0	distractor	1	661	670	142866	11.765	11.755	11.776
ProbeTrack12	8	ProbeTrack	11.3	WolfelabSpurzheim	20101025.160127	20101025.161210	8	0.011764	60	10	60-180	60	147	GapExp	0	72	2	1	0	distractor	1	567	717	143583	11.765	11.753	11.776
ProbeTrack12	8	ProbeTrack	11.3	WolfelabSpurzheim	20101025.160127	20101025.161218	8	0.011764	60	0	60-180	60	110	GapExp	0	73	2	0	0	distractor	1	684	658	144241	11.765	11.754	11.776
ProbeTrack12	8	ProbeTrack	11.3	WolfelabSpurzheim	20101025.160127	20101025.161226	8	0.011764	60	10	60-180	60	106	GapExp	0	74	2	45	0	distractor	1	719	641	144882	11.765	11.753	11.776
ProbeTrack12	8	ProbeTrack	11.3	WolfelabSpurzheim	20101025.160127	20101025.161234	8	0.011764	60	0	60-180	60	65	GapExp	0	75	2	3	0	distractor	1	766	617	145499	11.765	11.755	11.776
ProbeTrack12	8	ProbeTrack	11.3	WolfelabSpurzheim	20101025.160127	20101025.161241	8	0.011764	60	10	60-180	60	142	GapExp	0	76	2	45	0	target	0	955	-1000	144499	11.765	11.754	11.777
ProbeTrack12	8	ProbeTrack	11.3	WolfelabSpurzheim	20101025.160127	20101025.161255	8	0.011764	60	10	60-180	60	127	GapExp	0	77	2	45	0	distractor	1	626	687	145186	11.765	11.753	11.776
ProbeTrack12	8	ProbeTrack	11.3	WolfelabSpurzheim	20101025.160127	20101025.161303	8	0.011764	60	10	60-180	60	81	GapExp	0	78	2	1	1	target	1	485	758	145944	11.765	11.754	11.780
ProbeTrack12	8	ProbeTrack	11.3	WolfelabSpurzheim	20101025.160127	20101025.161311	8	0.011764	60	0	60-180	60	79	GapExp	0	79	2	0	1	target	1	497	752	146696	11.765	11.753	11.776
ProbeTrack12	8	ProbeTrack	11.3	WolfelabSpurzheim	20101025.160127	20101025.161319	8	0.011764	60	10	60-180	60	93	GapExp	0	80	2	0	1	target	1	496	752	147448	11.765	11.754	11.776
ProbeTrack12	8	ProbeTrack	11.3	WolfelabSpurzheim	20101025.160127	20101025.161326	8	0.011764	60	10	60-180	60	83	GapExp	0	81	2	45	1	target	1	473	764	148212	11.765	11.754	11.777
ProbeTrack12	8	ProbeTrack	11.3	WolfelabSpurzheim	20101025.160127	20101025.161357	8	0.011764	60	10	60-180	60	104	GapExp	0	82	2	0	1	distractor	0	637	-1000	147212	11.765	11.752	11.776
ProbeTrack12	8	ProbeTrack	11.3	WolfelabSpurzheim	20101025.160127	20101025.161405	8	0.011764	60	0	60-180	60	146	GapExp	0	83	2	1	0	distractor	1	719	641	147853	11.765	11.740	11.790
ProbeTrack12	8	ProbeTrack	11.3	WolfelabSpurzheim	20101025.160127	20101025.161416	8	0.011764	60	0	60-180	60	161	GapExp	0	84	2	45	0	distractor	1	637	682	148535	11.765	11.754	11.777
ProbeTrack12	8	ProbeTrack	11.3	WolfelabSpurzheim	20101025.160127	20101025.161424	8	0.011764	60	0	60-180	60	147	GapExp	0	85	2	0	1	target	1	520	740	149275	11.765	11.748	11.782
ProbeTrack12	8	ProbeTrack	11.3	WolfelabSpurzheim	20101025.160127	20101025.161432	8	0.011764	60	10	60-180	60	160	GapExp	0	86	2	3	1	distractor	0	626	-1000	148275	11.765	11.754	11.776
ProbeTrack12	8	ProbeTrack	11.3	WolfelabSpurzheim	20101025.160127	20101025.161440	8	0.011764	60	0	60-180	60	145	GapExp	0	87	2	3	1	target	1	590	705	148980	11.765	11.754	11.777
ProbeTrack12	8	ProbeTrack	11.3	WolfelabSpurzheim	20101025.160127	20101025.161450	8	0.011764	60	0	60-180	60	77	GapExp	0	88	2	3	1	target	1	508	746	149726	11.765	11.754	11.777
ProbeTrack12	8	ProbeTrack	11.3	WolfelabSpurzheim	20101025.160127	20101025.161457	8	0.011764	60	10	60-180	60	86	GapExp	0	89	2	1	1	target	1	332	834	150560	11.765	11.753	11.776
ProbeTrack12	8	ProbeTrack	11.3	WolfelabSpurzheim	20101025.160127	20101025.161504	8	0.011764	60	0	60-180	60	67	GapExp	0	90	2	3	1	target	1	402	799	151359	11.765	11.754	11.777
ProbeTrack12	8	ProbeTrack	11.3	WolfelabSpurzheim	20101025.160127	20101025.161512	8	0.011764	60	10	60-180	60	154	GapExp	0	91	2	1	0	target	0	450	-1000	150359	11.765	11.754	11.777
ProbeTrack12	8	ProbeTrack	11.3	WolfelabSpurzheim	20101025.160127	20101025.161520	8	0.011764	60	0	60-180	60	178	GapExp	0	92	2	1	1	target	1	661	670	151029	11.765	11.753	11.776
ProbeTrack12	8	ProbeTrack	11.3	WolfelabSpurzheim	20101025.160127	20101025.161529	8	0.011764	60	10	60-180	60	122	GapExp	0	93	2	1	1	target	1	438	781	151810	11.765	11.754	11.776
ProbeTrack12	8	ProbeTrack	11.3	WolfelabSpurzheim	20101025.160127	20101025.161536	8	0.011764	60	10	60-180	60	96	GapExp	0	94	2	3	0	target	0	508	-1000	150810	11.765	11.753	11.778
ProbeTrack12	8	ProbeTrack	11.3	WolfelabSpurzheim	20101025.160127	20101025.161543	8	0.011764	60	10	60-180	60	137	GapExp	0	95	2	45	0	distractor	1	661	670	151480	11.765	11.753	11.776
ProbeTrack12	8	ProbeTrack	11.3	WolfelabSpurzheim	20101025.160127	20101025.161552	8	0.011764	60	10	60-180	60	124	GapExp	0	96	2	0	1	target	1	379	811	152291	11.765	11.753	11.776
ProbeTrack12	8	ProbeTrack	11.3	WolfelabSpurzheim	20101025.160127	20101025.161600	8	0.011764	60	10	60-180	60	129	GapExp	0	97	2	45	0	target	0	931	-1000	151291	11.765	11.754	11.777
ProbeTrack12	8	ProbeTrack	11.3	WolfelabSpurzheim	20101025.160127	20101025.161609	8	0.011764	60	0	60-180	60	157	GapExp	0	98	2	1	1	target	1	532	734	152025	11.765	11.754	11.777
ProbeTrack12	8	ProbeTrack	11.3	WolfelabSpurzheim	20101025.160127	20101025.161617	8	0.011764	60	10	60-180	60	165	GapExp	0	99	2	3	1	target	1	355	823	152848	11.765	11.754	11.777
ProbeTrack12	8	ProbeTrack	11.3	WolfelabSpurzheim	20101025.160127	20101025.161625	8	0.011764	60	10	60-180	60	168	GapExp	0	100	2	1	0	target	0	438	-1000	151848	11.765	11.753	11.782
ProbeTrack12	8	ProbeTrack	11.3	WolfelabSpurzheim	20101025.160127	20101025.161634	8	0.011764	60	0	60-180	60	88	GapExp	0	101	2	0	0	distractor	1	767	617	152465	11.765	11.752	11.776
ProbeTrack12	8	ProbeTrack	11.3	WolfelabSpurzheim	20101025.160127	20101025.161645	8	0.011764	60	0	60-180	60	102	GapExp	0	102	2	0	0	target	0	672	-1000	151465	11.765	11.754	11.776
ProbeTrack12	8	ProbeTrack	11.3	WolfelabSpurzheim	20101025.160127	20101025.161652	8	0.011764	60	10	60-180	60	93	GapExp	0	103	2	45	1	target	1	567	717	152182	11.765	11.750	11.776
ProbeTrack12	8	ProbeTrack	11.3	WolfelabSpurzheim	20101025.160127	20101025.161659	8	0.011764	60	0	60-180	60	90	GapExp	0	104	2	0	1	target	1	496	752	152934	11.765	11.753	11.776
ProbeTrack12	8	ProbeTrack	11.3	WolfelabSpurzheim	20101025.160127	20101025.161706	8	0.011764	60	10	60-180	60	81	GapExp	0	105	2	45	0	distractor	1	743	629	153563	11.765	11.753	11.776
ProbeTrack12	8	ProbeTrack	11.3	WolfelabSpurzheim	20101025.160127	20101025.161714	8	0.011764	60	0	60-180	60	86	GapExp	0	106	2	1	1	target	1	497	752	154315	11.765	11.754	11.776
ProbeTrack12	8	ProbeTrack	11.3	WolfelabSpurzheim	20101025.160127	20101025.161721	8	0.011764	60	0	60-180	60	123	GapExp	0	107	2	0	1	target	1	567	717	155032	11.765	11.754	11.778
ProbeTrack12	8	ProbeTrack	11.3	WolfelabSpurzheim	20101025.160127	20101025.161729	8	0.011764	60	0	60-180	60	141	GapExp	0	108	2	3	1	target	1	520	740	155772	11.765	11.754	11.778
ProbeTrack12	8	ProbeTrack	11.3	WolfelabSpurzheim	20101025.160127	20101025.161737	8	0.011764	60	10	60-180	60	97	GapExp	0	109	2	1	1	target	1	367	817	156589	11.765	11.753	11.776
ProbeTrack12	8	ProbeTrack	11.3	WolfelabSpurzheim	20101025.160127	20101025.161743	8	0.011764	60	0	60-180	60	103	GapExp	0	110	2	45	1	target	1	414	793	157382	11.765	11.754	11.776
ProbeTrack12	8	ProbeTrack	11.3	WolfelabSpurzheim	20101025.160127	20101025.161751	8	0.011764	60	0	60-180	60	129	GapExp	0	111	2	45	1	target	1	579	711	158093	11.765	11.754	11.776
ProbeTrack12	8	ProbeTrack	11.3	WolfelabSpurzheim	20101025.160127	20101025.161805	8	0.011764	60	0	60-180	60	178	GapExp	0	112	2	3	1	target	1	426	787	158880	11.765	11.754	11.777
ProbeTrack12	8	ProbeTrack	11.3	WolfelabSpurzheim	20101025.160127	20101025.161814	8	0.011764	60	0	60-180	60	81	GapExp	0	113	2	0	0	distractor	1	731	635	159515	11.765	11.754	11.777
ProbeTrack12	8	ProbeTrack	11.3	WolfelabSpurzheim	20101025.160127	20101025.161821	8	0.011764	60	10	60-180	60	87	GapExp	0	114	2	1	1	target	1	438	781	160296	11.765	11.754	11.777
ProbeTrack12	8	ProbeTrack	11.3	WolfelabSpurzheim	20101025.160127	20101025.161828	8	0.011764	60	10	60-180	60	179	GapExp	0	115	2	0	1	target	1	402	799	161095	11.765	11.754	11.776
ProbeTrack12	8	ProbeTrack	11.3	WolfelabSpurzheim	20101025.160127	20101025.161836	8	0.011764	60	0	60-180	60	167	GapExp	0	116	2	45	1	target	1	461	770	161865	11.765	11.733	11.794
ProbeTrack12	8	ProbeTrack	11.3	WolfelabSpurzheim	20101025.160127	20101025.161854	8	0.011764	60	0	60-180	60	132	GapExp	0	117	2	45	1	target	1	520	740	162605	11.765	11.753	11.775
ProbeTrack12	8	ProbeTrack	11.3	WolfelabSpurzheim	20101025.160127	20101025.161902	8	0.011764	60	0	60-180	60	107	GapExp	0	118	2	45	1	target	1	485	758	163363	11.765	11.754	11.777
ProbeTrack12	8	ProbeTrack	11.3	WolfelabSpurzheim	20101025.160127	20101025.161910	8	0.011764	60	0	60-180	60	97	GapExp	0	119	2	45	0	target	0	485	-1000	162363	11.765	11.736	11.786
ProbeTrack12	8	ProbeTrack	11.3	WolfelabSpurzheim	20101025.160127	20101025.161918	8	0.011764	60	0	60-180	60	66	GapExp	0	120	2	45	1	target	1	496	752	163115	11.765	11.754	11.776
ProbeTrack12	8	ProbeTrack	11.3	WolfelabSpurzheim	20101025.160127	20101025.161925	8	0.011764	60	0	60-180	60	153	GapExp	0	121	2	0	1	target	1	555	723	163838	11.765	11.734	11.806
ProbeTrack12	8	ProbeTrack	11.3	WolfelabSpurzheim	20101025.160127	20101025.162009	8	0.011764	60	0	60-180	60	159	GapExp	0	122	2	1	0	distractor	1	614	693	164531	11.765	11.742	11.792
ProbeTrack12	8	ProbeTrack	11.3	WolfelabSpurzheim	20101025.160127	20101025.162017	8	0.011764	60	10	60-180	60	172	GapExp	0	123	2	0	0	target	0	532	-1000	163531	11.765	11.754	11.776
ProbeTrack12	8	ProbeTrack	11.3	WolfelabSpurzheim	20101025.160127	20101025.162026	8	0.011764	60	10	60-180	60	173	GapExp	0	124	2	45	1	target	1	485	758	164289	11.765	11.753	11.777
ProbeTrack12	8	ProbeTrack	11.3	WolfelabSpurzheim	20101025.160127	20101025.162034	8	0.011764	60	10	60-180	60	111	GapExp	0	125	2	1	0	distractor	1	802	599	164888	11.765	11.754	11.776
ProbeTrack12	8	ProbeTrack	11.3	WolfelabSpurzheim	20101025.160127	20101025.162041	8	0.011764	60	10	60-180	60	146	GapExp	0	126	2	45	1	target	1	402	799	165687	11.765	11.749	11.776
ProbeTrack12	8	ProbeTrack	11.3	WolfelabSpurzheim	20101025.160127	20101025.162050	8	0.011764	60	0	60-180	60	82	GapExp	0	127	2	1	0	target	0	649	-1000	164687	11.765	11.731	11.801
ProbeTrack12	8	ProbeTrack	11.3	WolfelabSpurzheim	20101025.160127	20101025.162057	8	0.011764	60	10	60-180	60	178	GapExp	0	128	2	1	0	target	0	567	-1000	163687	11.765	11.755	11.779
ProbeTrack12	8	ProbeTrack	11.3	WolfelabSpurzheim	20101025.160127	20101025.162105	8	0.011764	60	10	60-180	60	108	GapExp	0	129	2	0	1	target	1	391	805	164492	11.765	11.754	11.777
ProbeTrack12	8	ProbeTrack	11.3	WolfelabSpurzheim	20101025.160127	20101025.162112	8	0.011764	60	10	60-180	60	172	GapExp	0	130	2	1	1	target	1	414	793	165285	11.765	11.725	11.810
ProbeTrack12	8	ProbeTrack	11.3	WolfelabSpurzheim	20101025.160127	20101025.162120	8	0.011764	60	10	60-180	60	168	GapExp	0	131	2	1	0	distractor	1	649	676	165961	11.765	11.754	11.778
ProbeTrack12	8	ProbeTrack	11.3	WolfelabSpurzheim	20101025.160127	20101025.162128	8	0.011764	60	0	60-180	60	171	GapExp	0	132	2	1	0	distractor	1	568	716	166677	11.765	11.755	11.776
ProbeTrack12	8	ProbeTrack	11.3	WolfelabSpurzheim	20101025.160127	20101025.162136	8	0.011764	60	10	60-180	60	77	GapExp	0	133	2	1	0	distractor	1	837	582	167259	11.765	11.755	11.776
ProbeTrack12	8	ProbeTrack	11.3	WolfelabSpurzheim	20101025.160127	20101025.162143	8	0.011764	60	10	60-180	60	75	GapExp	0	134	2	3	1	target	1	602	699	167958	11.765	11.754	11.775
ProbeTrack12	8	ProbeTrack	11.3	WolfelabSpurzheim	20101025.160127	20101025.162150	8	0.011764	60	10	60-180	60	90	GapExp	0	135	2	0	1	target	1	520	740	168698	11.765	11.754	11.776
ProbeTrack12	8	ProbeTrack	11.3	WolfelabSpurzheim	20101025.160127	20101025.162157	8	0.011764	60	10	60-180	60	105	GapExp	0	136	2	1	0	target	0	731	-1000	167698	11.765	11.753	11.776
ProbeTrack12	8	ProbeTrack	11.3	WolfelabSpurzheim	20101025.160127	20101025.162205	8	0.011764	60	10	60-180	60	125	GapExp	0	137	2	3	1	target	1	590	705	168403	11.765	11.754	11.777
ProbeTrack12	8	ProbeTrack	11.3	WolfelabSpurzheim	20101025.160127	20101025.162212	8	0.011764	60	0	60-180	60	117	GapExp	0	138	2	45	1	target	1	426	787	169190	11.765	11.754	11.776
ProbeTrack12	8	ProbeTrack	11.3	WolfelabSpurzheim	20101025.160127	20101025.162220	8	0.011764	60	10	60-180	60	67	GapExp	0	139	2	3	1	target	1	567	717	169907	11.765	11.753	11.776
ProbeTrack12	8	ProbeTrack	11.3	WolfelabSpurzheim	20101025.160127	20101025.162227	8	0.011764	60	0	60-180	60	134	GapExp	0	140	2	45	0	distractor	1	614	693	170600	11.765	11.754	11.777
ProbeTrack12	8	ProbeTrack	11.3	WolfelabSpurzheim	20101025.160127	20101025.162235	8	0.011764	60	0	60-180	60	154	GapExp	0	141	2	45	1	target	1	449	776	171376	11.765	11.754	11.777
ProbeTrack12	8	ProbeTrack	11.3	WolfelabSpurzheim	20101025.160127	20101025.162243	8	0.011764	60	10	60-180	60	81	GapExp	0	142	2	45	1	target	1	508	746	172122	11.765	11.753	11.776
ProbeTrack12	8	ProbeTrack	11.3	WolfelabSpurzheim	20101025.160127	20101025.162251	8	0.011764	60	10	60-180	60	157	GapExp	0	143	2	45	1	target	1	532	734	172856	11.765	11.753	11.778
ProbeTrack12	8	ProbeTrack	11.3	WolfelabSpurzheim	20101025.160127	20101025.162259	8	0.011764	60	10	60-180	60	153	GapExp	0	144	2	3	1	target	1	438	781	173637	11.765	11.754	11.776
ProbeTrack12	8	ProbeTrack	11.3	WolfelabSpurzheim	20101025.160127	20101025.162307	8	0.011764	60	0	60-180	60	150	GapExp	0	145	2	1	0	target	0	532	-1000	172637	11.765	11.754	11.776
ProbeTrack12	8	ProbeTrack	11.3	WolfelabSpurzheim	20101025.160127	20101025.162316	8	0.011764	60	10	60-180	60	74	GapExp	0	146	2	45	1	target	1	497	752	173389	11.765	11.754	11.776
ProbeTrack12	8	ProbeTrack	11.3	WolfelabSpurzheim	20101025.160127	20101025.162324	8	0.011764	60	10	60-180	60	67	GapExp	0	147	2	0	1	target	1	520	740	174129	11.765	11.753	11.777
ProbeTrack12	8	ProbeTrack	11.3	WolfelabSpurzheim	20101025.160127	20101025.162330	8	0.011764	60	0	60-180	60	71	GapExp	0	148	2	45	0	distractor	1	673	664	174793	11.765	11.754	11.775
ProbeTrack12	8	ProbeTrack	11.3	WolfelabSpurzheim	20101025.160127	20101025.162337	8	0.011764	60	0	60-180	60	116	GapExp	0	149	2	45	0	distractor	1	556	722	175515	11.765	11.753	11.777
ProbeTrack12	8	ProbeTrack	11.3	WolfelabSpurzheim	20101025.160127	20101025.162346	8	0.011764	60	10	60-180	60	169	GapExp	0	150	2	45	0	target	0	579	-1000	174515	11.765	11.754	11.775
ProbeTrack12	8	ProbeTrack	11.3	WolfelabSpurzheim	20101025.160127	20101025.162354	8	0.011764	60	10	60-180	60	62	GapExp	0	151	2	45	0	distractor	1	591	705	175220	11.765	11.736	11.801
ProbeTrack12	8	ProbeTrack	11.3	WolfelabSpurzheim	20101025.160127	20101025.162415	8	0.011764	60	0	60-180	60	177	GapExp	0	152	2	0	0	distractor	1	614	693	175913	11.765	11.753	11.776
ProbeTrack12	8	ProbeTrack	11.3	WolfelabSpurzheim	20101025.160127	20101025.162423	8	0.011764	60	0	60-180	60	121	GapExp	0	153	2	1	1	target	1	473	764	176677	11.765	11.754	11.776
ProbeTrack12	8	ProbeTrack	11.3	WolfelabSpurzheim	20101025.160127	20101025.162431	8	0.011764	60	0	60-180	60	174	GapExp	0	154	2	3	1	target	1	485	758	177435	11.765	11.751	11.780
ProbeTrack12	8	ProbeTrack	11.3	WolfelabSpurzheim	20101025.160127	20101025.162438	8	0.011764	60	0	60-180	60	164	GapExp	0	155	2	3	0	distractor	1	708	646	178081	11.765	11.754	11.778
ProbeTrack12	8	ProbeTrack	11.3	WolfelabSpurzheim	20101025.160127	20101025.162446	8	0.011764	60	0	60-180	60	154	GapExp	0	156	2	3	1	target	1	438	781	178862	11.765	11.746	11.780
ProbeTrack12	8	ProbeTrack	11.3	WolfelabSpurzheim	20101025.160127	20101025.162454	8	0.011764	60	10	60-180	60	136	GapExp	0	157	2	1	0	distractor	1	849	576	179438	11.765	11.752	11.776
ProbeTrack12	8	ProbeTrack	11.3	WolfelabSpurzheim	20101025.160127	20101025.162502	8	0.011764	60	0	60-180	60	95	GapExp	0	158	2	0	0	target	0	649	-1000	178438	11.765	11.754	11.776
ProbeTrack12	8	ProbeTrack	11.3	WolfelabSpurzheim	20101025.160127	20101025.162510	8	0.011764	60	10	60-180	60	147	GapExp	0	159	2	3	0	target	0	802	-1000	177438	11.765	11.753	11.777
ProbeTrack12	8	ProbeTrack	11.3	WolfelabSpurzheim	20101025.160127	20101025.162518	8	0.011764	60	10	60-180	60	67	GapExp	0	160	2	3	1	target	1	626	687	178125	11.765	11.726	11.797
ProbeTrack12	8	ProbeTrack	11.3	WolfelabSpurzheim	20101025.160127	20101025.162524	8	0.011764	60	10	60-180	60	121	GapExp	0	161	2	0	0	target	0	509	-1000	177125	11.765	11.753	11.777
ProbeTrack12	8	ProbeTrack	11.3	WolfelabSpurzheim	20101025.160127	20101025.162532	8	0.011764	60	10	60-180	60	76	GapExp	0	162	2	1	1	target	1	543	729	177854	11.765	11.755	11.776
ProbeTrack12	8	ProbeTrack	11.3	WolfelabSpurzheim	20101025.160127	20101025.162538	8	0.011764	60	10	60-180	60	73	GapExp	0	163	2	3	1	target	1	438	781	178635	11.765	11.753	11.775
ProbeTrack12	8	ProbeTrack	11.3	WolfelabSpurzheim	20101025.160127	20101025.162545	8	0.011764	60	0	60-180	60	131	GapExp	0	164	2	45	1	target	1	567	717	179352	11.765	11.753	11.778
ProbeTrack12	8	ProbeTrack	11.3	WolfelabSpurzheim	20101025.160127	20101025.162553	8	0.011764	60	0	60-180	60	173	GapExp	0	165	2	3	1	target	1	555	723	180075	11.765	11.736	11.792
ProbeTrack12	8	ProbeTrack	11.3	WolfelabSpurzheim	20101025.160127	20101025.162601	8	0.011764	60	10	60-180	60	85	GapExp	0	166	2	3	0	target	0	485	-1000	179075	11.765	11.753	11.776
ProbeTrack12	8	ProbeTrack	11.3	WolfelabSpurzheim	20101025.160127	20101025.162608	8	0.011764	60	10	60-180	60	61	GapExp	0	167	2	1	0	target	0	731	-1000	178075	11.765	11.754	11.776
ProbeTrack12	8	ProbeTrack	11.3	WolfelabSpurzheim	20101025.160127	20101025.162615	8	0.011764	60	10	60-180	60	169	GapExp	0	168	2	45	1	target	1	626	687	178762	11.765	11.754	11.776
ProbeTrack12	8	ProbeTrack	11.3	WolfelabSpurzheim	20101025.160127	20101025.162624	8	0.011764	60	10	60-180	60	122	GapExp	0	169	2	3	1	target	1	438	781	179543	11.765	11.754	11.777
ProbeTrack12	8	ProbeTrack	11.3	WolfelabSpurzheim	20101025.160127	20101025.162631	8	0.011764	60	0	60-180	60	166	GapExp	0	170	2	3	0	distractor	1	755	623	180166	11.765	11.753	11.776
ProbeTrack12	8	ProbeTrack	11.3	WolfelabSpurzheim	20101025.160127	20101025.162639	8	0.011764	60	0	60-180	60	61	GapExp	0	171	2	0	1	target	1	602	699	180865	11.765	11.754	11.776
ProbeTrack12	8	ProbeTrack	11.3	WolfelabSpurzheim	20101025.160127	20101025.162650	8	0.011764	60	0	60-180	60	126	GapExp	0	172	2	0	1	target	1	367	817	181682	11.765	11.754	11.776
ProbeTrack12	8	ProbeTrack	11.3	WolfelabSpurzheim	20101025.160127	20101025.162657	8	0.011764	60	10	60-180	60	107	GapExp	0	173	2	1	1	distractor	0	661	-1000	180682	11.765	11.726	11.807
ProbeTrack12	8	ProbeTrack	11.3	WolfelabSpurzheim	20101025.160127	20101025.162705	8	0.011764	60	10	60-180	60	148	GapExp	0	174	2	45	1	distractor	0	849	-1000	179682	11.765	11.753	11.777
ProbeTrack12	8	ProbeTrack	11.3	WolfelabSpurzheim	20101025.160127	20101025.162713	8	0.011764	60	0	60-180	60	77	GapExp	0	175	2	3	0	distractor	1	872	564	180246	11.765	11.753	11.774
ProbeTrack12	8	ProbeTrack	11.3	WolfelabSpurzheim	20101025.160127	20101025.162721	8	0.011764	60	0	60-180	60	67	GapExp	0	176	2	0	0	distractor	1	696	652	180898	11.765	11.755	11.777
ProbeTrack12	8	ProbeTrack	11.3	WolfelabSpurzheim	20101025.160127	20101025.162728	8	0.011764	60	10	60-180	60	103	GapExp	0	177	2	3	0	distractor	1	614	693	181591	11.765	11.752	11.777
ProbeTrack12	8	ProbeTrack	11.3	WolfelabSpurzheim	20101025.160127	20101025.162736	8	0.011764	60	0	60-180	60	148	GapExp	0	178	2	45	0	distractor	1	590	705	182296	11.765	11.754	11.776
ProbeTrack12	8	ProbeTrack	11.3	WolfelabSpurzheim	20101025.160127	20101025.162745	8	0.011764	60	10	60-180	60	159	GapExp	0	179	2	45	0	distractor	1	673	664	182960	11.765	11.755	11.776
ProbeTrack12	8	ProbeTrack	11.3	WolfelabSpurzheim	20101025.160127	20101025.162753	8	0.011764	60	10	60-180	60	126	GapExp	0	180	2	3	1	target	1	579	711	183671	11.765	11.755	11.776
ProbeTrack12	8	ProbeTrack	11.3	WolfelabSpurzheim	20101025.160127	20101025.162800	8	0.011764	60	0	60-180	60	104	GapExp	0	181	2	3	0	distractor	1	708	646	184317	11.765	11.754	11.776
ProbeTrack12	8	ProbeTrack	11.3	WolfelabSpurzheim	20101025.160127	20101025.162811	8	0.011764	60	0	60-180	60	81	GapExp	0	182	2	3	0	distractor	1	661	670	184987	11.765	11.754	11.776
ProbeTrack12	8	ProbeTrack	11.3	WolfelabSpurzheim	20101025.160127	20101025.162818	8	0.011764	60	10	60-180	60	179	GapExp	0	183	2	3	0	distractor	1	790	605	185592	11.765	11.754	11.778
ProbeTrack12	8	ProbeTrack	11.3	WolfelabSpurzheim	20101025.160127	20101025.162826	8	0.011764	60	10	60-180	60	99	GapExp	0	184	2	45	1	target	1	555	723	186315	11.765	11.753	11.777
ProbeTrack12	8	ProbeTrack	11.3	WolfelabSpurzheim	20101025.160127	20101025.162833	8	0.011764	60	0	60-180	60	157	GapExp	0	185	2	45	0	distractor	1	602	699	187014	11.765	11.754	11.777
ProbeTrack12	8	ProbeTrack	11.3	WolfelabSpurzheim	20101025.160127	20101025.162841	8	0.011764	60	10	60-180	60	110	GapExp	0	186	2	3	0	distractor	1	731	635	187649	11.765	11.752	11.775
ProbeTrack12	8	ProbeTrack	11.3	WolfelabSpurzheim	20101025.160127	20101025.162848	8	0.011764	60	0	60-180	60	167	GapExp	0	187	2	3	0	distractor	1	614	693	188342	11.765	11.754	11.776
ProbeTrack12	8	ProbeTrack	11.3	WolfelabSpurzheim	20101025.160127	20101025.162856	8	0.011764	60	0	60-180	60	84	GapExp	0	188	2	0	1	target	1	696	652	188994	11.765	11.753	11.776
ProbeTrack12	8	ProbeTrack	11.3	WolfelabSpurzheim	20101025.160127	20101025.162903	8	0.011764	60	10	60-180	60	68	GapExp	0	189	2	0	1	target	1	626	687	189681	11.765	11.750	11.776
ProbeTrack12	8	ProbeTrack	11.3	WolfelabSpurzheim	20101025.160127	20101025.162910	8	0.011764	60	0	60-180	60	81	GapExp	0	190	2	1	1	target	1	449	776	190457	11.765	11.753	11.777
ProbeTrack12	8	ProbeTrack	11.3	WolfelabSpurzheim	20101025.160127	20101025.162917	8	0.011764	60	0	60-180	60	131	GapExp	0	191	2	3	0	target	0	1037	-1000	189457	11.765	11.754	11.776
ProbeTrack12	8	ProbeTrack	11.3	WolfelabSpurzheim	20101025.160127	20101025.162925	8	0.011764	60	10	60-180	60	129	GapExp	0	192	2	0	1	target	1	426	787	190244	11.765	11.753	11.776
ProbeTrack12	8	ProbeTrack	11.3	WolfelabSpurzheim	20101025.160127	20101025.162932	8	0.011764	60	10	60-180	60	141	GapExp	0	193	2	0	1	target	1	449	776	191020	11.765	11.751	11.776
ProbeTrack12	8	ProbeTrack	11.3	WolfelabSpurzheim	20101025.160127	20101025.162940	8	0.011764	60	10	60-180	60	136	GapExp	0	194	2	1	0	target	0	802	-1000	190020	11.765	11.752	11.776
ProbeTrack12	8	ProbeTrack	11.3	WolfelabSpurzheim	20101025.160127	20101025.162948	8	0.011764	60	0	60-180	60	101	GapExp	0	195	2	3	0	distractor	1	825	588	190608	11.765	11.753	11.777
ProbeTrack12	8	ProbeTrack	11.3	WolfelabSpurzheim	20101025.160127	20101025.162955	8	0.011764	60	0	60-180	60	133	GapExp	0	196	2	3	0	distractor	1	649	676	191284	11.765	11.754	11.777
ProbeTrack12	8	ProbeTrack	11.3	WolfelabSpurzheim	20101025.160127	20101025.163003	8	0.011764	60	10	60-180	60	81	GapExp	0	197	2	1	1	target	1	873	564	191848	11.765	11.735	11.796
ProbeTrack12	8	ProbeTrack	11.3	WolfelabSpurzheim	20101025.160127	20101025.163010	8	0.011764	60	0	60-180	60	133	GapExp	0	198	2	45	1	target	1	590	705	192553	11.765	11.753	11.778
ProbeTrack12	8	ProbeTrack	11.3	WolfelabSpurzheim	20101025.160127	20101025.163019	8	0.011764	60	10	60-180	60	129	GapExp	0	199	2	1	1	target	1	532	734	193287	11.765	11.753	11.776
ProbeTrack12	8	ProbeTrack	11.3	WolfelabSpurzheim	20101025.160127	20101025.163027	8	0.011764	60	10	60-180	60	159	GapExp	0	200	2	1	0	target	0	649	-1000	192287	11.765	11.753	11.777
ProbeTrack12	8	ProbeTrack	11.3	WolfelabSpurzheim	20101025.160127	20101025.163036	8	0.011764	60	10	60-180	60	88	GapExp	0	201	2	0	1	target	1	426	787	193074	11.765	11.754	11.778
ProbeTrack12	8	ProbeTrack	11.3	WolfelabSpurzheim	20101025.160127	20101025.163046	8	0.011764	60	0	60-180	60	174	GapExp	0	202	2	1	1	target	1	461	770	193844	11.765	11.749	11.779
ProbeTrack12	8	ProbeTrack	11.3	WolfelabSpurzheim	20101025.160127	20101025.163055	8	0.011764	60	10	60-180	60	170	GapExp	0	203	2	45	0	target	0	544	-1000	192844	11.765	11.754	11.777
ProbeTrack12	8	ProbeTrack	11.3	WolfelabSpurzheim	20101025.160127	20101025.163104	8	0.011764	60	10	60-180	60	63	GapExp	0	204	2	3	0	target	0	614	-1000	191844	11.765	11.755	11.777
ProbeTrack12	8	ProbeTrack	11.3	WolfelabSpurzheim	20101025.160127	20101025.163110	8	0.011764	60	10	60-180	60	169	GapExp	0	205	2	3	0	target	0	626	-1000	190844	11.765	11.754	11.776
ProbeTrack12	8	ProbeTrack	11.3	WolfelabSpurzheim	20101025.160127	20101025.163125	8	0.011764	60	10	60-180	60	142	GapExp	0	206	2	1	1	target	1	520	740	191584	11.765	11.755	11.776
ProbeTrack12	8	ProbeTrack	11.3	WolfelabSpurzheim	20101025.160127	20101025.163134	8	0.011764	60	0	60-180	60	158	GapExp	0	207	2	0	1	target	1	437	782	192366	11.765	11.754	11.775
ProbeTrack12	8	ProbeTrack	11.3	WolfelabSpurzheim	20101025.160127	20101025.163141	8	0.011764	60	10	60-180	60	93	GapExp	0	208	2	0	0	target	0	532	-1000	191366	11.765	11.754	11.775
ProbeTrack12	8	ProbeTrack	11.3	WolfelabSpurzheim	20101025.160127	20101025.163148	8	0.011764	60	0	60-180	60	138	GapExp	0	209	2	45	0	distractor	1	673	664	192030	11.765	11.753	11.776
ProbeTrack12	8	ProbeTrack	11.3	WolfelabSpurzheim	20101025.160127	20101025.163156	8	0.011764	60	0	60-180	60	170	GapExp	0	210	2	3	1	target	1	473	764	192794	11.765	11.754	11.777
ProbeTrack12	8	ProbeTrack	11.3	WolfelabSpurzheim	20101025.160127	20101025.163204	8	0.011764	60	0	60-180	60	100	GapExp	0	211	2	0	0	distractor	1	684	658	193452	11.765	11.751	11.777
ProbeTrack12	8	ProbeTrack	11.3	WolfelabSpurzheim	20101025.160127	20101025.163225	8	0.011764	60	0	60-180	60	143	GapExp	0	212	2	1	0	distractor	1	719	641	194093	11.765	11.753	11.777
ProbeTrack12	8	ProbeTrack	11.3	WolfelabSpurzheim	20101025.160127	20101025.163233	8	0.011764	60	0	60-180	60	120	GapExp	0	213	2	45	0	distractor	1	649	676	194769	11.765	11.754	11.776
ProbeTrack12	8	ProbeTrack	11.3	WolfelabSpurzheim	20101025.160127	20101025.163241	8	0.011764	60	0	60-180	60	142	GapExp	0	214	2	0	1	target	1	555	723	195492	11.765	11.755	11.778
ProbeTrack12	8	ProbeTrack	11.3	WolfelabSpurzheim	20101025.160127	20101025.163249	8	0.011764	60	0	60-180	60	98	GapExp	0	215	2	3	1	target	1	508	746	196238	11.765	11.753	11.777
ProbeTrack12	8	ProbeTrack	11.3	WolfelabSpurzheim	20101025.160127	20101025.163256	8	0.011764	60	0	60-180	60	92	GapExp	0	216	2	45	0	distractor	1	579	711	196949	11.765	11.755	11.777
ProbeTrack12	8	ProbeTrack	11.3	WolfelabSpurzheim	20101025.160127	20101025.163303	8	0.011764	60	0	60-180	60	61	GapExp	0	217	2	1	1	target	1	590	705	197654	11.765	11.754	11.777
ProbeTrack12	8	ProbeTrack	11.3	WolfelabSpurzheim	20101025.160127	20101025.163310	8	0.011764	60	10	60-180	60	180	GapExp	0	218	2	1	1	target	1	461	770	198424	11.765	11.729	11.798
ProbeTrack12	8	ProbeTrack	11.3	WolfelabSpurzheim	20101025.160127	20101025.163318	8	0.011764	60	0	60-180	60	153	GapExp	0	219	2	3	1	target	1	978	511	198935	11.765	11.753	11.776
ProbeTrack12	8	ProbeTrack	11.3	WolfelabSpurzheim	20101025.160127	20101025.163326	8	0.011764	60	10	60-180	60	179	GapExp	0	220	2	0	0	distractor	1	767	617	199552	11.765	11.752	11.777
ProbeTrack12	8	ProbeTrack	11.3	WolfelabSpurzheim	20101025.160127	20101025.163335	8	0.011764	60	10	60-180	60	91	GapExp	0	221	2	3	1	target	1	391	805	200357	11.765	11.754	11.776
ProbeTrack12	8	ProbeTrack	11.3	WolfelabSpurzheim	20101025.160127	20101025.163343	8	0.011764	60	0	60-180	60	61	GapExp	0	222	2	1	0	distractor	1	790	605	200962	11.765	11.731	11.804
ProbeTrack12	8	ProbeTrack	11.3	WolfelabSpurzheim	20101025.160127	20101025.163349	8	0.011764	60	10	60-180	60	151	GapExp	0	223	2	1	1	target	1	449	776	201738	11.765	11.754	11.777
ProbeTrack12	8	ProbeTrack	11.3	WolfelabSpurzheim	20101025.160127	20101025.163358	8	0.011764	60	10	60-180	60	110	GapExp	0	224	2	3	0	distractor	1	650	675	202413	11.765	11.755	11.776
ProbeTrack12	8	ProbeTrack	11.3	WolfelabSpurzheim	20101025.160127	20101025.163405	8	0.011764	60	0	60-180	60	147	GapExp	0	225	2	45	1	target	1	520	740	203153	11.765	11.755	11.777
ProbeTrack12	8	ProbeTrack	11.3	WolfelabSpurzheim	20101025.160127	20101025.163413	8	0.011764	60	0	60-180	60	140	GapExp	0	226	2	1	1	target	1	673	664	203817	11.765	11.754	11.775
ProbeTrack12	8	ProbeTrack	11.3	WolfelabSpurzheim	20101025.160127	20101025.163420	8	0.011764	60	0	60-180	60	87	GapExp	0	227	2	1	0	target	0	708	-1000	202817	11.765	11.752	11.778
ProbeTrack12	8	ProbeTrack	11.3	WolfelabSpurzheim	20101025.160127	20101025.163427	8	0.011764	60	0	60-180	60	165	GapExp	0	228	2	45	1	target	1	661	670	203487	11.765	11.754	11.775
ProbeTrack12	8	ProbeTrack	11.3	WolfelabSpurzheim	20101025.160127	20101025.163435	8	0.011764	60	10	60-180	60	69	GapExp	0	229	2	0	0	target	0	673	-1000	202487	11.765	11.754	11.778
ProbeTrack12	8	ProbeTrack	11.3	WolfelabSpurzheim	20101025.160127	20101025.163442	8	0.011764	60	10	60-180	60	112	GapExp	0	230	2	0	0	target	0	555	-1000	201487	11.765	11.754	11.777
ProbeTrack12	8	ProbeTrack	11.3	WolfelabSpurzheim	20101025.160127	20101025.163448	8	0.011764	60	10	60-180	60	107	GapExp	0	231	2	3	0	distractor	1	544	728	202215	11.765	11.752	11.777
ProbeTrack12	8	ProbeTrack	11.3	WolfelabSpurzheim	20101025.160127	20101025.163458	8	0.011764	60	10	60-180	60	142	GapExp	0	232	2	3	0	distractor	1	497	752	202967	11.765	11.754	11.778
ProbeTrack12	8	ProbeTrack	11.3	WolfelabSpurzheim	20101025.160127	20101025.163505	8	0.011764	60	0	60-180	60	150	GapExp	0	233	2	0	0	distractor	1	637	682	203649	11.765	11.739	11.787
ProbeTrack12	8	ProbeTrack	11.3	WolfelabSpurzheim	20101025.160127	20101025.163515	8	0.011764	60	0	60-180	60	169	GapExp	0	234	2	0	1	target	1	461	770	204419	11.765	11.727	11.806
ProbeTrack12	8	ProbeTrack	11.3	WolfelabSpurzheim	20101025.160127	20101025.163522	8	0.011764	60	0	60-180	60	156	GapExp	0	235	2	3	0	target	0	579	-1000	203419	11.765	11.754	11.776
ProbeTrack12	8	ProbeTrack	11.3	WolfelabSpurzheim	20101025.160127	20101025.163529	8	0.011764	60	0	60-180	60	125	GapExp	0	236	2	0	1	target	1	544	728	204147	11.765	11.754	11.777
ProbeTrack12	8	ProbeTrack	11.3	WolfelabSpurzheim	20101025.160127	20101025.163536	8	0.011764	60	0	60-180	60	90	GapExp	0	237	2	45	1	target	1	591	705	204852	11.765	11.753	11.777
ProbeTrack12	8	ProbeTrack	11.3	WolfelabSpurzheim	20101025.160127	20101025.163543	8	0.011764	60	10	60-180	60	142	GapExp	0	238	2	45	1	target	1	520	740	205592	11.765	11.754	11.776
ProbeTrack12	8	ProbeTrack	11.3	WolfelabSpurzheim	20101025.160127	20101025.163551	8	0.011764	60	10	60-180	60	154	GapExp	0	239	2	0	0	target	0	532	-1000	204592	11.765	11.754	11.777
ProbeTrack12	8	ProbeTrack	11.3	WolfelabSpurzheim	20101025.160127	20101025.163559	8	0.011764	60	10	60-180	60	104	GapExp	0	240	2	45	1	target	1	719	641	205233	11.765	11.754	11.776
ProbeTrack12	8	ProbeTrack	11.3	WolfelabSpurzheim	20101025.160127	20101025.163606	8	0.011764	60	10	60-180	60	71	GapExp	0	241	2	45	0	target	0	614	-1000	204233	11.765	11.753	11.777
ProbeTrack12	8	ProbeTrack	11.3	WolfelabSpurzheim	20101025.160127	20101025.163613	8	0.011764	60	0	60-180	60	79	GapExp	0	242	2	1	1	target	1	496	752	204985	11.765	11.754	11.777
ProbeTrack12	8	ProbeTrack	11.3	WolfelabSpurzheim	20101025.160127	20101025.163618	8	0.011764	60	0	60-180	60	74	GapExp	0	243	2	3	0	distractor	1	837	582	205567	11.765	11.754	11.776
ProbeTrack12	8	ProbeTrack	11.3	WolfelabSpurzheim	20101025.160127	20101025.163626	8	0.011764	60	0	60-180	60	140	GapExp	0	244	2	45	0	distractor	1	579	711	206278	11.765	11.754	11.777
ProbeTrack12	8	ProbeTrack	11.3	WolfelabSpurzheim	20101025.160127	20101025.163634	8	0.011764	60	0	60-180	60	162	GapExp	0	245	2	45	1	target	1	473	764	207042	11.765	11.753	11.777
ProbeTrack12	8	ProbeTrack	11.3	WolfelabSpurzheim	20101025.160127	20101025.163641	8	0.011764	60	10	60-180	60	139	GapExp	0	246	2	0	0	target	0	532	-1000	206042	11.765	11.754	11.777
ProbeTrack12	8	ProbeTrack	11.3	WolfelabSpurzheim	20101025.160127	20101025.163649	8	0.011764	60	10	60-180	60	169	GapExp	0	247	2	1	0	distractor	1	637	682	206724	11.765	11.754	11.776
ProbeTrack12	8	ProbeTrack	11.3	WolfelabSpurzheim	20101025.160127	20101025.163658	8	0.011764	60	0	60-180	60	178	GapExp	0	248	2	1	0	distractor	1	708	646	207370	11.765	11.751	11.779
ProbeTrack12	8	ProbeTrack	11.3	WolfelabSpurzheim	20101025.160127	20101025.163706	8	0.011764	60	0	60-180	60	85	GapExp	0	249	2	3	0	target	0	637	-1000	206370	11.765	11.753	11.775
ProbeTrack12	8	ProbeTrack	11.3	WolfelabSpurzheim	20101025.160127	20101025.163713	8	0.011764	60	0	60-180	60	171	GapExp	0	250	2	3	1	target	1	555	723	207093	11.765	11.753	11.776
