exp	sub	code	rev	comp	runtime	trialtime	nstim	refreshdur	cuedur	gapdur	gapOnsetRange	durPostProbe	gapOnsetTime	blocktype	prac	trial	ntargets	soa	probeTarget	resp	acc	rt	pts	tpts	meanFrameDur	minFrameDur	maxFrameDur
ProbeTrack12	1	ProbeTrack	11.3	WolfelabSpurzheim	20101013.092316	20101013.092358	8	0.011765	60	0	60-180	60	92	NoGap	1	1	2	0	0	distractor	1	1107	447	120905	11.921	11.755	23.533
ProbeTrack12	1	ProbeTrack	11.3	WolfelabSpurzheim	20101013.092316	20101013.092411	8	0.011765	60	0	60-180	60	171	NoGap	1	2	2	1	1	target	1	320	840	121745	11.808	11.755	23.530
ProbeTrack12	1	ProbeTrack	11.3	WolfelabSpurzheim	20101013.092316	20101013.092420	8	0.011765	60	0	60-180	60	174	NoGap	1	3	2	0	0	distractor	1	461	770	122515	11.765	11.754	11.776
ProbeTrack12	1	ProbeTrack	11.3	WolfelabSpurzheim	20101013.092316	20101013.092430	8	0.011765	60	0	60-180	60	83	NoGap	1	4	2	45	0	distractor	1	391	805	123320	11.765	11.753	11.775
ProbeTrack12	1	ProbeTrack	11.3	WolfelabSpurzheim	20101013.092316	20101013.092436	8	0.011765	60	0	60-180	60	61	NoGap	1	5	2	3	0	distractor	1	496	752	124072	11.765	11.754	11.776
ProbeTrack12	1	ProbeTrack	11.3	WolfelabSpurzheim	20101013.092316	20101013.092442	8	0.011765	60	0	60-180	60	63	NoGap	1	6	2	3	1	target	1	379	811	124883	11.765	11.755	11.777
ProbeTrack12	1	ProbeTrack	11.3	WolfelabSpurzheim	20101013.092316	20101013.092447	8	0.011765	60	0	60-180	60	148	NoGap	1	7	2	1	1	target	1	391	805	125688	11.765	11.753	11.777
ProbeTrack12	1	ProbeTrack	11.3	WolfelabSpurzheim	20101013.092316	20101013.092453	8	0.011765	60	0	60-180	60	142	NoGap	1	8	2	0	1	target	1	296	852	126540	11.765	11.754	11.776
ProbeTrack12	1	ProbeTrack	11.3	WolfelabSpurzheim	20101013.092316	20101013.092459	8	0.011765	60	0	60-180	60	176	NoGap	1	9	2	0	1	target	1	296	852	127392	11.765	11.754	11.776
ProbeTrack12	1	ProbeTrack	11.3	WolfelabSpurzheim	20101013.092316	20101013.092506	8	0.011765	60	0	60-180	60	179	NoGap	1	10	2	3	0	distractor	1	426	787	128179	11.765	11.754	11.775
ProbeTrack12	1	ProbeTrack	11.3	WolfelabSpurzheim	20101013.092316	20101013.092513	8	0.011765	60	0	60-180	60	83	NoGap	1	11	2	1	0	distractor	1	496	752	128931	11.765	11.755	11.775
ProbeTrack12	1	ProbeTrack	11.3	WolfelabSpurzheim	20101013.092316	20101013.092519	8	0.011765	60	0	60-180	60	67	NoGap	1	12	2	1	1	target	1	390	805	129736	11.765	11.740	11.790
ProbeTrack12	1	ProbeTrack	11.3	WolfelabSpurzheim	20101013.092316	20101013.092524	8	0.011765	60	0	60-180	60	134	NoGap	1	13	2	45	0	distractor	1	320	840	130576	11.765	11.754	11.776
ProbeTrack12	1	ProbeTrack	11.3	WolfelabSpurzheim	20101013.092316	20101013.092530	8	0.011765	60	0	60-180	60	134	NoGap	1	14	2	45	1	target	1	320	840	131416	11.765	11.755	11.776
ProbeTrack12	1	ProbeTrack	11.3	WolfelabSpurzheim	20101013.092316	20101013.092537	8	0.011765	60	0	60-180	60	174	NoGap	1	15	2	1	0	distractor	1	426	787	132203	11.765	11.754	11.776
ProbeTrack12	1	ProbeTrack	11.3	WolfelabSpurzheim	20101013.092316	20101013.092543	8	0.011765	60	0	60-180	60	72	NoGap	1	16	2	1	0	distractor	1	308	846	133049	11.765	11.729	11.805
ProbeTrack12	1	ProbeTrack	11.3	WolfelabSpurzheim	20101013.092316	20101013.092548	8	0.011765	60	0	60-180	60	139	NoGap	1	17	2	1	1	distractor	0	367	-1000	132049	11.765	11.724	11.805
ProbeTrack12	1	ProbeTrack	11.3	WolfelabSpurzheim	20101013.092316	20101013.092555	8	0.011765	60	0	60-180	60	94	NoGap	1	18	2	1	0	distractor	1	402	799	132848	11.765	11.752	11.777
ProbeTrack12	1	ProbeTrack	11.3	WolfelabSpurzheim	20101013.092316	20101013.092603	8	0.011765	60	0	60-180	60	109	NoGap	1	19	2	0	0	distractor	1	426	787	133635	11.765	11.736	11.794
ProbeTrack12	1	ProbeTrack	11.3	WolfelabSpurzheim	20101013.092316	20101013.092610	8	0.011765	60	0	60-180	60	113	NoGap	1	20	2	0	1	target	1	626	687	134322	11.765	11.754	11.776
ProbeTrack12	1	ProbeTrack	11.3	WolfelabSpurzheim	20101013.092316	20101013.092616	8	0.011765	60	0	60-180	60	107	NoGap	1	21	2	1	1	distractor	0	402	-1000	133322	11.765	11.755	11.780
ProbeTrack12	1	ProbeTrack	11.3	WolfelabSpurzheim	20101013.092316	20101013.092622	8	0.011765	60	0	60-180	60	157	NoGap	1	22	2	45	1	target	1	402	799	134121	11.765	11.754	11.778
ProbeTrack12	1	ProbeTrack	11.3	WolfelabSpurzheim	20101013.092316	20101013.092629	8	0.011765	60	0	60-180	60	101	NoGap	1	23	2	45	0	distractor	1	437	782	134903	11.765	11.754	11.776
ProbeTrack12	1	ProbeTrack	11.3	WolfelabSpurzheim	20101013.092316	20101013.092635	8	0.011765	60	0	60-180	60	67	NoGap	1	24	2	3	1	target	1	496	752	135655	11.765	11.755	11.775
ProbeTrack12	1	ProbeTrack	11.3	WolfelabSpurzheim	20101013.092316	20101013.092641	8	0.011765	60	0	60-180	60	150	NoGap	1	25	2	3	0	distractor	1	473	764	136419	11.765	11.754	11.776
ProbeTrack12	1	ProbeTrack	11.3	WolfelabSpurzheim	20101013.092316	20101013.092647	8	0.011765	60	0	60-180	60	149	NoGap	1	26	2	3	0	distractor	1	426	787	137206	11.765	11.755	11.776
ProbeTrack12	1	ProbeTrack	11.3	WolfelabSpurzheim	20101013.092316	20101013.092653	8	0.011765	60	0	60-180	60	114	NoGap	1	27	2	0	1	target	1	461	770	137976	11.765	11.753	11.777
ProbeTrack12	1	ProbeTrack	11.3	WolfelabSpurzheim	20101013.092316	20101013.092659	8	0.011765	60	0	60-180	60	150	NoGap	1	28	2	3	1	target	1	308	846	138822	11.765	11.753	11.776
ProbeTrack12	1	ProbeTrack	11.3	WolfelabSpurzheim	20101013.092316	20101013.092705	8	0.011765	60	0	60-180	60	168	NoGap	1	29	2	3	1	target	1	332	834	139656	11.765	11.755	11.778
ProbeTrack12	1	ProbeTrack	11.3	WolfelabSpurzheim	20101013.092316	20101013.092712	8	0.011765	60	0	60-180	60	142	NoGap	1	30	2	45	0	distractor	1	343	829	140485	11.765	11.753	11.777
ProbeTrack12	1	ProbeTrack	11.3	WolfelabSpurzheim	20101013.092316	20101013.092718	8	0.011765	60	0	60-180	60	159	NoGap	1	31	2	0	1	target	1	414	793	141278	11.765	11.754	11.777
ProbeTrack12	1	ProbeTrack	11.3	WolfelabSpurzheim	20101013.092316	20101013.092725	8	0.011765	60	0	60-180	60	91	NoGap	1	32	2	3	1	target	1	296	852	142130	11.765	11.753	11.776
ProbeTrack12	1	ProbeTrack	11.3	WolfelabSpurzheim	20101013.092316	20101013.092731	8	0.011765	60	0	60-180	60	103	NoGap	1	33	2	45	0	distractor	1	332	834	142964	11.765	11.755	11.782
ProbeTrack12	1	ProbeTrack	11.3	WolfelabSpurzheim	20101013.092316	20101013.092736	8	0.011765	60	0	60-180	60	92	NoGap	1	34	2	1	0	distractor	1	485	758	143722	11.765	11.739	11.792
ProbeTrack12	1	ProbeTrack	11.3	WolfelabSpurzheim	20101013.092316	20101013.092742	8	0.011765	60	0	60-180	60	115	NoGap	1	35	2	0	0	distractor	1	390	805	144527	11.765	11.753	11.777
ProbeTrack12	1	ProbeTrack	11.3	WolfelabSpurzheim	20101013.092316	20101013.092748	8	0.011765	60	0	60-180	60	129	NoGap	1	36	2	3	0	target	0	449	-1000	143527	11.765	11.754	11.777
ProbeTrack12	1	ProbeTrack	11.3	WolfelabSpurzheim	20101013.092316	20101013.092754	8	0.011765	60	0	60-180	60	161	NoGap	1	37	2	0	0	distractor	1	343	829	144356	11.765	11.754	11.776
ProbeTrack12	1	ProbeTrack	11.3	WolfelabSpurzheim	20101013.092316	20101013.092800	8	0.011765	60	0	60-180	60	105	NoGap	1	38	2	45	1	target	1	415	793	145149	11.765	11.753	11.778
ProbeTrack12	1	ProbeTrack	11.3	WolfelabSpurzheim	20101013.092316	20101013.092806	8	0.011765	60	0	60-180	60	61	NoGap	1	39	2	45	1	distractor	0	332	-1000	144149	11.765	11.755	11.776
ProbeTrack12	1	ProbeTrack	11.3	WolfelabSpurzheim	20101013.092316	20101013.092812	8	0.011765	60	0	60-180	60	71	NoGap	1	40	2	45	1	target	1	414	793	144942	11.765	11.752	11.776
ProbeTrack12	1	ProbeTrack	11.3	WolfelabSpurzheim	20101013.092922	20101013.092936	8	0.011767	60	0	60-180	60	103	GapPrac	1	1	2	3	0	distractor	1	426	787	145729	11.980	11.754	35.296
ProbeTrack12	1	ProbeTrack	11.3	WolfelabSpurzheim	20101013.092922	20101013.092942	8	0.011767	60	10	60-180	60	161	GapPrac	1	2	2	45	0	distractor	1	638	681	146410	11.765	11.732	11.805
ProbeTrack12	1	ProbeTrack	11.3	WolfelabSpurzheim	20101013.092922	20101013.092949	8	0.011767	60	0	60-180	60	71	GapPrac	1	3	2	3	1	target	1	508	746	147156	11.947	11.753	23.524
ProbeTrack12	1	ProbeTrack	11.3	WolfelabSpurzheim	20101013.092922	20101013.092956	8	0.011767	60	0	60-180	60	156	GapPrac	1	4	2	45	1	target	1	343	829	147985	11.765	11.752	11.777
ProbeTrack12	1	ProbeTrack	11.3	WolfelabSpurzheim	20101013.092922	20101013.093004	8	0.011767	60	10	60-180	60	147	GapPrac	1	5	2	1	1	target	1	520	740	148725	11.765	11.736	11.791
ProbeTrack12	1	ProbeTrack	11.3	WolfelabSpurzheim	20101013.092922	20101013.093011	8	0.011767	60	10	60-180	60	103	GapPrac	1	6	2	3	0	distractor	1	614	693	149418	11.765	11.753	11.777
ProbeTrack12	1	ProbeTrack	11.3	WolfelabSpurzheim	20101013.092922	20101013.093017	8	0.011767	60	10	60-180	60	163	GapPrac	1	7	2	0	1	target	1	462	769	150187	11.765	11.754	11.777
ProbeTrack12	1	ProbeTrack	11.3	WolfelabSpurzheim	20101013.092922	20101013.093023	8	0.011767	60	0	60-180	60	61	GapPrac	1	8	2	3	1	target	1	379	811	150998	11.765	11.754	11.775
ProbeTrack12	1	ProbeTrack	11.3	WolfelabSpurzheim	20101013.092922	20101013.093029	8	0.011767	60	10	60-180	60	97	GapPrac	1	9	2	0	0	distractor	1	414	793	151791	11.765	11.753	11.778
ProbeTrack12	1	ProbeTrack	11.3	WolfelabSpurzheim	20101013.092922	20101013.093034	8	0.011767	60	0	60-180	60	75	GapPrac	1	10	2	0	0	distractor	1	391	805	152596	11.765	11.740	11.790
ProbeTrack12	1	ProbeTrack	11.3	WolfelabSpurzheim	20101013.092922	20101013.093039	8	0.011767	60	0	60-180	60	100	GapPrac	1	11	2	1	1	distractor	0	379	-1000	151596	11.765	11.754	11.776
ProbeTrack12	1	ProbeTrack	11.3	WolfelabSpurzheim	20101013.092922	20101013.093045	8	0.011767	60	0	60-180	60	76	GapPrac	1	12	2	45	0	distractor	1	603	699	152295	11.765	11.754	11.775
ProbeTrack12	1	ProbeTrack	11.3	WolfelabSpurzheim	20101013.092922	20101013.093051	8	0.011767	60	0	60-180	60	143	GapPrac	1	13	2	45	1	target	1	320	840	153135	11.765	11.745	11.776
ProbeTrack12	1	ProbeTrack	11.3	WolfelabSpurzheim	20101013.092922	20101013.093058	8	0.011767	60	10	60-180	60	179	GapPrac	1	14	2	3	1	target	1	485	758	153893	11.765	11.733	11.792
ProbeTrack12	1	ProbeTrack	11.3	WolfelabSpurzheim	20101013.092922	20101013.093105	8	0.011767	60	0	60-180	60	118	GapPrac	1	15	2	1	0	distractor	1	414	793	154686	11.765	11.753	11.776
ProbeTrack12	1	ProbeTrack	11.3	WolfelabSpurzheim	20101013.092922	20101013.093111	8	0.011767	60	10	60-180	60	151	GapPrac	1	16	2	45	1	distractor	0	343	-1000	153686	11.765	11.753	11.779
ProbeTrack12	1	ProbeTrack	11.3	WolfelabSpurzheim	20101013.092922	20101013.093119	8	0.011767	60	0	60-180	60	94	GapPrac	1	17	2	0	1	target	1	437	782	154468	11.765	11.745	11.787
ProbeTrack12	1	ProbeTrack	11.3	WolfelabSpurzheim	20101013.092922	20101013.093124	8	0.011767	60	10	60-180	60	75	GapPrac	1	18	2	1	0	distractor	1	579	711	155179	11.765	11.753	11.777
ProbeTrack12	1	ProbeTrack	11.3	WolfelabSpurzheim	20101013.092922	20101013.093130	8	0.011767	60	10	60-180	60	159	GapPrac	1	19	2	45	0	distractor	1	579	711	155890	11.765	11.754	11.776
ProbeTrack12	1	ProbeTrack	11.3	WolfelabSpurzheim	20101013.092922	20101013.093137	8	0.011767	60	0	60-180	60	154	GapPrac	1	20	2	3	0	distractor	1	708	646	156536	11.765	11.754	11.775
ProbeTrack12	1	ProbeTrack	11.3	WolfelabSpurzheim	20101013.093227	20101013.093242	8	0.011764	60	10	60-180	60	156	GapExp	1	1	2	0	1	target	1	543	729	157265	11.928	11.729	23.544
ProbeTrack12	1	ProbeTrack	11.3	WolfelabSpurzheim	20101013.093227	20101013.093249	8	0.011764	60	0	60-180	60	97	GapExp	1	2	2	3	1	target	1	532	734	157999	11.818	11.753	23.532
ProbeTrack12	1	ProbeTrack	11.3	WolfelabSpurzheim	20101013.093227	20101013.093255	8	0.011764	60	10	60-180	60	98	GapExp	1	3	2	0	0	distractor	1	614	693	158692	11.765	11.753	11.776
ProbeTrack12	1	ProbeTrack	11.3	WolfelabSpurzheim	20101013.093227	20101013.093302	8	0.011764	60	0	60-180	60	67	GapExp	1	4	2	1	0	distractor	1	543	729	159421	11.765	11.755	11.778
ProbeTrack12	1	ProbeTrack	11.3	WolfelabSpurzheim	20101013.093227	20101013.093307	8	0.011764	60	10	60-180	60	63	GapExp	1	5	2	1	0	distractor	1	496	752	160173	11.765	11.755	11.777
ProbeTrack12	1	ProbeTrack	11.3	WolfelabSpurzheim	20101013.093227	20101013.093312	8	0.011764	60	0	60-180	60	136	GapExp	1	6	2	0	1	target	1	426	787	160960	11.860	11.754	11.776
ProbeTrack12	1	ProbeTrack	11.3	WolfelabSpurzheim	20101013.093227	20101013.093318	8	0.011764	60	10	60-180	60	134	GapExp	1	7	2	3	1	target	1	355	823	161783	11.765	11.754	11.777
ProbeTrack12	1	ProbeTrack	11.3	WolfelabSpurzheim	20101013.093227	20101013.093324	8	0.011764	60	10	60-180	60	77	GapExp	1	8	2	1	1	target	1	461	770	162553	11.765	11.752	11.776
ProbeTrack12	1	ProbeTrack	11.3	WolfelabSpurzheim	20101013.093227	20101013.093330	8	0.011764	60	0	60-180	60	71	GapExp	1	9	2	0	0	distractor	1	414	793	163346	11.765	11.753	11.775
ProbeTrack12	1	ProbeTrack	11.3	WolfelabSpurzheim	20101013.093227	20101013.093335	8	0.011764	60	0	60-180	60	162	GapExp	1	10	2	1	1	target	1	496	752	164098	11.765	11.751	11.780
ProbeTrack12	1	ProbeTrack	11.3	WolfelabSpurzheim	20101013.093227	20101013.093342	8	0.011764	60	10	60-180	60	130	GapExp	0	11	2	3	1	target	1	508	746	164844	11.765	11.754	11.776
ProbeTrack12	1	ProbeTrack	11.3	WolfelabSpurzheim	20101013.093227	20101013.093348	8	0.011764	60	10	60-180	60	155	GapExp	0	12	2	0	1	target	1	485	758	165602	11.765	11.752	11.778
ProbeTrack12	1	ProbeTrack	11.3	WolfelabSpurzheim	20101013.093227	20101013.093355	8	0.011764	60	10	60-180	60	83	GapExp	0	13	2	3	1	target	1	344	828	166430	11.765	11.753	11.776
ProbeTrack12	1	ProbeTrack	11.3	WolfelabSpurzheim	20101013.093227	20101013.093400	8	0.011764	60	0	60-180	60	135	GapExp	0	14	2	45	1	target	1	390	805	167235	11.765	11.754	11.777
ProbeTrack12	1	ProbeTrack	11.3	WolfelabSpurzheim	20101013.093227	20101013.093406	8	0.011764	60	0	60-180	60	148	GapExp	0	15	2	1	1	target	1	461	770	168005	11.765	11.754	11.776
ProbeTrack12	1	ProbeTrack	11.3	WolfelabSpurzheim	20101013.093227	20101013.093412	8	0.011764	60	10	60-180	60	126	GapExp	0	16	2	0	1	target	1	355	823	168828	11.765	11.741	11.791
ProbeTrack12	1	ProbeTrack	11.3	WolfelabSpurzheim	20101013.093227	20101013.093419	8	0.011764	60	10	60-180	60	157	GapExp	0	17	2	1	0	distractor	1	508	746	169574	11.765	11.754	11.776
ProbeTrack12	1	ProbeTrack	11.3	WolfelabSpurzheim	20101013.093227	20101013.093426	8	0.011764	60	10	60-180	60	135	GapExp	0	18	2	0	1	target	1	532	734	170308	11.765	11.742	11.783
ProbeTrack12	1	ProbeTrack	11.3	WolfelabSpurzheim	20101013.093227	20101013.093432	8	0.011764	60	10	60-180	60	170	GapExp	0	19	2	0	1	target	1	355	823	171131	11.765	11.754	11.776
ProbeTrack12	1	ProbeTrack	11.3	WolfelabSpurzheim	20101013.093227	20101013.093440	8	0.011764	60	10	60-180	60	65	GapExp	0	20	2	45	0	distractor	1	484	758	171889	11.765	11.754	11.776
ProbeTrack12	1	ProbeTrack	11.3	WolfelabSpurzheim	20101013.093227	20101013.093446	8	0.011764	60	10	60-180	60	99	GapExp	0	21	2	1	0	distractor	1	497	752	172641	11.765	11.754	11.776
ProbeTrack12	1	ProbeTrack	11.3	WolfelabSpurzheim	20101013.093227	20101013.093452	8	0.011764	60	0	60-180	60	81	GapExp	0	22	2	0	1	target	1	555	723	173364	11.765	11.755	11.776
ProbeTrack12	1	ProbeTrack	11.3	WolfelabSpurzheim	20101013.093227	20101013.093458	8	0.011764	60	0	60-180	60	180	GapExp	0	23	2	45	0	distractor	1	543	729	174093	11.765	11.754	11.777
ProbeTrack12	1	ProbeTrack	11.3	WolfelabSpurzheim	20101013.093227	20101013.093505	8	0.011764	60	10	60-180	60	157	GapExp	0	24	2	1	1	target	1	496	752	174845	11.765	11.735	11.795
ProbeTrack12	1	ProbeTrack	11.3	WolfelabSpurzheim	20101013.093227	20101013.093511	8	0.011764	60	10	60-180	60	82	GapExp	0	25	2	3	0	distractor	1	402	799	175644	11.765	11.754	11.777
ProbeTrack12	1	ProbeTrack	11.3	WolfelabSpurzheim	20101013.093227	20101013.093517	8	0.011764	60	10	60-180	60	131	GapExp	0	26	2	0	0	distractor	1	520	740	176384	11.765	11.754	11.777
ProbeTrack12	1	ProbeTrack	11.3	WolfelabSpurzheim	20101013.093227	20101013.093523	8	0.011764	60	10	60-180	60	168	GapExp	0	27	2	1	1	target	1	414	793	177177	11.765	11.726	11.807
ProbeTrack12	1	ProbeTrack	11.3	WolfelabSpurzheim	20101013.093227	20101013.093529	8	0.011764	60	10	60-180	60	168	GapExp	0	28	2	3	1	target	1	449	776	177953	11.765	11.745	11.787
ProbeTrack12	1	ProbeTrack	11.3	WolfelabSpurzheim	20101013.093227	20101013.093536	8	0.011764	60	0	60-180	60	148	GapExp	0	29	2	3	0	distractor	1	508	746	178699	11.765	11.754	11.776
ProbeTrack12	1	ProbeTrack	11.3	WolfelabSpurzheim	20101013.093227	20101013.093542	8	0.011764	60	10	60-180	60	104	GapExp	0	30	2	0	0	distractor	1	473	764	179463	11.765	11.755	11.775
ProbeTrack12	1	ProbeTrack	11.3	WolfelabSpurzheim	20101013.093227	20101013.093548	8	0.011764	60	10	60-180	60	151	GapExp	0	31	2	45	1	target	1	414	793	180256	11.765	11.753	11.777
ProbeTrack12	1	ProbeTrack	11.3	WolfelabSpurzheim	20101013.093227	20101013.093555	8	0.011764	60	10	60-180	60	88	GapExp	0	32	2	0	1	target	1	484	758	181014	11.765	11.753	11.776
ProbeTrack12	1	ProbeTrack	11.3	WolfelabSpurzheim	20101013.093227	20101013.093601	8	0.011764	60	0	60-180	60	71	GapExp	0	33	2	0	1	target	1	473	764	181778	11.765	11.737	11.792
ProbeTrack12	1	ProbeTrack	11.3	WolfelabSpurzheim	20101013.093227	20101013.093606	8	0.011764	60	10	60-180	60	93	GapExp	0	34	2	45	1	target	1	426	787	182565	11.765	11.746	11.788
ProbeTrack12	1	ProbeTrack	11.3	WolfelabSpurzheim	20101013.093227	20101013.093613	8	0.011764	60	0	60-180	60	120	GapExp	0	35	2	1	1	target	1	543	729	183294	11.765	11.753	11.775
ProbeTrack12	1	ProbeTrack	11.3	WolfelabSpurzheim	20101013.093227	20101013.093619	8	0.011764	60	0	60-180	60	84	GapExp	0	36	2	3	1	target	1	461	770	184064	11.765	11.753	11.777
ProbeTrack12	1	ProbeTrack	11.3	WolfelabSpurzheim	20101013.093227	20101013.093625	8	0.011764	60	10	60-180	60	133	GapExp	0	37	2	3	1	target	1	402	799	184863	11.765	11.754	11.777
ProbeTrack12	1	ProbeTrack	11.3	WolfelabSpurzheim	20101013.093227	20101013.093630	8	0.011764	60	0	60-180	60	94	GapExp	0	38	2	45	0	distractor	1	532	734	185597	11.765	11.752	11.776
ProbeTrack12	1	ProbeTrack	11.3	WolfelabSpurzheim	20101013.093227	20101013.093637	8	0.011764	60	10	60-180	60	152	GapExp	0	39	2	45	0	distractor	1	509	746	186343	11.765	11.753	11.775
ProbeTrack12	1	ProbeTrack	11.3	WolfelabSpurzheim	20101013.093227	20101013.093645	8	0.011764	60	10	60-180	60	165	GapExp	0	40	2	3	1	target	1	379	811	187154	11.765	11.754	11.778
ProbeTrack12	1	ProbeTrack	11.3	WolfelabSpurzheim	20101013.093227	20101013.093654	8	0.011764	60	10	60-180	60	80	GapExp	0	41	2	3	0	distractor	1	544	728	187882	11.765	11.753	11.775
ProbeTrack12	1	ProbeTrack	11.3	WolfelabSpurzheim	20101013.093227	20101013.093700	8	0.011764	60	0	60-180	60	98	GapExp	0	42	2	0	0	distractor	1	614	693	188575	11.765	11.753	11.775
ProbeTrack12	1	ProbeTrack	11.3	WolfelabSpurzheim	20101013.093227	20101013.093709	8	0.011764	60	0	60-180	60	115	GapExp	0	43	2	3	0	distractor	1	579	711	189286	11.765	11.755	11.777
ProbeTrack12	1	ProbeTrack	11.3	WolfelabSpurzheim	20101013.093227	20101013.093715	8	0.011764	60	10	60-180	60	103	GapExp	0	44	2	0	0	distractor	1	414	793	190079	11.765	11.754	11.777
ProbeTrack12	1	ProbeTrack	11.3	WolfelabSpurzheim	20101013.093227	20101013.093723	8	0.011764	60	0	60-180	60	169	GapExp	0	45	2	45	1	target	1	391	805	190884	11.765	11.755	11.775
ProbeTrack12	1	ProbeTrack	11.3	WolfelabSpurzheim	20101013.093227	20101013.093730	8	0.011764	60	0	60-180	60	97	GapExp	0	46	2	3	1	target	1	426	787	191671	11.765	11.753	11.776
ProbeTrack12	1	ProbeTrack	11.3	WolfelabSpurzheim	20101013.093227	20101013.093736	8	0.011764	60	0	60-180	60	135	GapExp	0	47	2	45	0	distractor	1	415	793	192464	11.765	11.754	11.775
ProbeTrack12	1	ProbeTrack	11.3	WolfelabSpurzheim	20101013.093227	20101013.093743	8	0.011764	60	0	60-180	60	176	GapExp	0	48	2	0	0	distractor	1	390	805	193269	11.765	11.752	11.777
ProbeTrack12	1	ProbeTrack	11.3	WolfelabSpurzheim	20101013.093227	20101013.093749	8	0.011764	60	0	60-180	60	111	GapExp	0	49	2	0	1	target	1	402	799	194068	11.765	11.740	11.795
ProbeTrack12	1	ProbeTrack	11.3	WolfelabSpurzheim	20101013.093227	20101013.093755	8	0.011764	60	0	60-180	60	78	GapExp	0	50	2	0	1	target	1	367	817	194885	11.765	11.754	11.776
ProbeTrack12	1	ProbeTrack	11.3	WolfelabSpurzheim	20101013.093227	20101013.093801	8	0.011764	60	10	60-180	60	150	GapExp	0	51	2	3	1	target	1	379	811	195696	11.765	11.754	11.776
ProbeTrack12	1	ProbeTrack	11.3	WolfelabSpurzheim	20101013.093227	20101013.093807	8	0.011764	60	0	60-180	60	82	GapExp	0	52	2	0	1	target	1	414	793	196489	11.765	11.753	11.776
ProbeTrack12	1	ProbeTrack	11.3	WolfelabSpurzheim	20101013.093227	20101013.093812	8	0.011764	60	10	60-180	60	135	GapExp	0	53	2	0	1	target	1	355	823	197312	11.765	11.736	11.793
ProbeTrack12	1	ProbeTrack	11.3	WolfelabSpurzheim	20101013.093227	20101013.093818	8	0.011764	60	10	60-180	60	155	GapExp	0	54	2	45	1	target	1	344	828	198140	11.765	11.753	11.776
ProbeTrack12	1	ProbeTrack	11.3	WolfelabSpurzheim	20101013.093227	20101013.093825	8	0.011764	60	10	60-180	60	138	GapExp	0	55	2	0	0	distractor	1	861	570	198710	11.765	11.754	11.776
ProbeTrack12	1	ProbeTrack	11.3	WolfelabSpurzheim	20101013.093227	20101013.093832	8	0.011764	60	0	60-180	60	99	GapExp	0	56	2	45	0	distractor	1	520	740	199450	11.765	11.754	11.776
ProbeTrack12	1	ProbeTrack	11.3	WolfelabSpurzheim	20101013.093227	20101013.093839	8	0.011764	60	0	60-180	60	137	GapExp	0	57	2	0	0	distractor	1	426	787	200237	11.765	11.753	11.776
ProbeTrack12	1	ProbeTrack	11.3	WolfelabSpurzheim	20101013.093227	20101013.093845	8	0.011764	60	0	60-180	60	150	GapExp	0	58	2	3	1	target	1	520	740	200977	11.765	11.754	11.776
ProbeTrack12	1	ProbeTrack	11.3	WolfelabSpurzheim	20101013.093227	20101013.093851	8	0.011764	60	0	60-180	60	112	GapExp	0	59	2	1	1	target	1	285	858	201835	11.765	11.754	11.777
ProbeTrack12	1	ProbeTrack	11.3	WolfelabSpurzheim	20101013.093227	20101013.093905	8	0.011764	60	10	60-180	60	126	GapExp	0	60	2	1	0	distractor	1	355	823	202658	11.765	11.754	11.775
ProbeTrack12	1	ProbeTrack	11.3	WolfelabSpurzheim	20101013.093227	20101013.093911	8	0.011764	60	10	60-180	60	139	GapExp	0	61	2	3	0	distractor	1	391	805	203463	11.765	11.754	11.776
ProbeTrack12	1	ProbeTrack	11.3	WolfelabSpurzheim	20101013.093227	20101013.093917	8	0.011764	60	0	60-180	60	133	GapExp	0	62	2	0	0	distractor	1	426	787	204250	11.765	11.754	11.777
ProbeTrack12	1	ProbeTrack	11.3	WolfelabSpurzheim	20101013.093227	20101013.093923	8	0.011764	60	10	60-180	60	139	GapExp	0	63	2	45	0	distractor	1	508	746	204996	11.765	11.753	11.777
ProbeTrack12	1	ProbeTrack	11.3	WolfelabSpurzheim	20101013.093227	20101013.093937	8	0.011764	60	0	60-180	60	155	GapExp	0	64	2	3	0	distractor	1	461	770	205766	11.765	11.755	11.776
ProbeTrack12	1	ProbeTrack	11.3	WolfelabSpurzheim	20101013.093227	20101013.093943	8	0.011764	60	0	60-180	60	77	GapExp	0	65	2	0	0	distractor	1	391	805	206571	11.765	11.754	11.775
ProbeTrack12	1	ProbeTrack	11.3	WolfelabSpurzheim	20101013.093227	20101013.093948	8	0.011764	60	0	60-180	60	173	GapExp	0	66	2	1	1	target	1	402	799	207370	11.765	11.734	11.798
ProbeTrack12	1	ProbeTrack	11.3	WolfelabSpurzheim	20101013.093227	20101013.093955	8	0.011764	60	0	60-180	60	141	GapExp	0	67	2	0	0	distractor	1	449	776	208146	11.765	11.740	11.780
ProbeTrack12	1	ProbeTrack	11.3	WolfelabSpurzheim	20101013.093227	20101013.094001	8	0.011764	60	0	60-180	60	120	GapExp	0	68	2	45	0	distractor	1	367	817	208963	11.765	11.754	11.776
ProbeTrack12	1	ProbeTrack	11.3	WolfelabSpurzheim	20101013.093227	20101013.094007	8	0.011764	60	0	60-180	60	81	GapExp	0	69	2	0	1	target	1	590	705	209668	11.765	11.752	11.776
ProbeTrack12	1	ProbeTrack	11.3	WolfelabSpurzheim	20101013.093227	20101013.094013	8	0.011764	60	0	60-180	60	160	GapExp	0	70	2	3	0	distractor	1	379	811	210479	11.765	11.754	11.776
ProbeTrack12	1	ProbeTrack	11.3	WolfelabSpurzheim	20101013.093227	20101013.094022	8	0.011764	60	0	60-180	60	64	GapExp	0	71	2	3	0	distractor	1	438	781	211260	11.765	11.753	11.777
ProbeTrack12	1	ProbeTrack	11.3	WolfelabSpurzheim	20101013.093227	20101013.094027	8	0.011764	60	0	60-180	60	79	GapExp	0	72	2	3	1	target	1	332	834	212094	11.765	11.753	11.776
ProbeTrack12	1	ProbeTrack	11.3	WolfelabSpurzheim	20101013.093227	20101013.094033	8	0.011764	60	0	60-180	60	170	GapExp	0	73	2	1	0	distractor	1	379	811	212905	11.765	11.734	11.776
ProbeTrack12	1	ProbeTrack	11.3	WolfelabSpurzheim	20101013.093227	20101013.094040	8	0.011764	60	0	60-180	60	117	GapExp	0	74	2	3	0	distractor	1	532	734	213639	11.765	11.755	11.776
ProbeTrack12	1	ProbeTrack	11.3	WolfelabSpurzheim	20101013.093227	20101013.094046	8	0.011764	60	0	60-180	60	122	GapExp	0	75	2	0	0	distractor	1	390	805	214444	11.765	11.753	11.775
ProbeTrack12	1	ProbeTrack	11.3	WolfelabSpurzheim	20101013.093227	20101013.094053	8	0.011764	60	10	60-180	60	153	GapExp	0	76	2	3	0	distractor	1	402	799	215243	11.765	11.753	11.777
ProbeTrack12	1	ProbeTrack	11.3	WolfelabSpurzheim	20101013.093227	20101013.094102	8	0.011764	60	0	60-180	60	98	GapExp	0	77	2	45	0	distractor	1	461	770	216013	11.765	11.753	11.775
ProbeTrack12	1	ProbeTrack	11.3	WolfelabSpurzheim	20101013.093227	20101013.094109	8	0.011764	60	0	60-180	60	151	GapExp	0	78	2	0	0	distractor	1	367	817	216830	11.765	11.754	11.775
ProbeTrack12	1	ProbeTrack	11.3	WolfelabSpurzheim	20101013.093227	20101013.094115	8	0.011764	60	10	60-180	60	110	GapExp	0	79	2	0	0	distractor	1	496	752	217582	11.765	11.749	11.786
ProbeTrack12	1	ProbeTrack	11.3	WolfelabSpurzheim	20101013.093227	20101013.094121	8	0.011764	60	0	60-180	60	133	GapExp	0	80	2	0	0	distractor	1	367	817	218399	11.765	11.741	11.782
ProbeTrack12	1	ProbeTrack	11.3	WolfelabSpurzheim	20101013.093227	20101013.094127	8	0.011764	60	0	60-180	60	77	GapExp	0	81	2	45	0	distractor	1	543	729	219128	11.765	11.754	11.777
ProbeTrack12	1	ProbeTrack	11.3	WolfelabSpurzheim	20101013.093227	20101013.094135	8	0.011764	60	10	60-180	60	175	GapExp	0	82	2	3	0	distractor	1	308	846	219974	11.765	11.752	11.777
ProbeTrack12	1	ProbeTrack	11.3	WolfelabSpurzheim	20101013.093227	20101013.094145	8	0.011764	60	0	60-180	60	73	GapExp	0	83	2	3	0	distractor	1	473	764	220738	11.765	11.754	11.777
ProbeTrack12	1	ProbeTrack	11.3	WolfelabSpurzheim	20101013.093227	20101013.094206	8	0.011764	60	0	60-180	60	100	GapExp	0	84	2	45	1	target	1	320	840	221578	11.765	11.755	11.777
ProbeTrack12	1	ProbeTrack	11.3	WolfelabSpurzheim	20101013.093227	20101013.094212	8	0.011764	60	0	60-180	60	66	GapExp	0	85	2	45	1	target	1	391	805	222383	11.765	11.721	11.805
ProbeTrack12	1	ProbeTrack	11.3	WolfelabSpurzheim	20101013.093227	20101013.094218	8	0.011764	60	10	60-180	60	148	GapExp	0	86	2	3	0	distractor	1	449	776	223159	11.765	11.755	11.776
ProbeTrack12	1	ProbeTrack	11.3	WolfelabSpurzheim	20101013.093227	20101013.094224	8	0.011764	60	10	60-180	60	118	GapExp	0	87	2	45	1	target	1	331	835	223994	11.765	11.755	11.776
ProbeTrack12	1	ProbeTrack	11.3	WolfelabSpurzheim	20101013.093227	20101013.094230	8	0.011764	60	10	60-180	60	180	GapExp	0	88	2	45	1	distractor	0	614	-1000	222994	11.765	11.752	11.784
ProbeTrack12	1	ProbeTrack	11.3	WolfelabSpurzheim	20101013.093227	20101013.094238	8	0.011764	60	0	60-180	60	120	GapExp	0	89	2	3	1	target	1	367	817	223811	11.765	11.753	11.777
ProbeTrack12	1	ProbeTrack	11.3	WolfelabSpurzheim	20101013.093227	20101013.094244	8	0.011764	60	0	60-180	60	153	GapExp	0	90	2	1	0	distractor	1	861	570	224381	11.765	11.724	11.810
ProbeTrack12	1	ProbeTrack	11.3	WolfelabSpurzheim	20101013.093227	20101013.094251	8	0.011764	60	10	60-180	60	114	GapExp	0	91	2	45	0	distractor	1	414	793	225174	11.765	11.720	11.813
ProbeTrack12	1	ProbeTrack	11.3	WolfelabSpurzheim	20101013.093227	20101013.094257	8	0.011764	60	10	60-180	60	63	GapExp	0	92	2	0	0	distractor	1	508	746	225920	11.765	11.754	11.776
ProbeTrack12	1	ProbeTrack	11.3	WolfelabSpurzheim	20101013.093227	20101013.094302	8	0.011764	60	10	60-180	60	64	GapExp	0	93	2	45	0	distractor	1	367	817	226737	11.765	11.753	11.776
ProbeTrack12	1	ProbeTrack	11.3	WolfelabSpurzheim	20101013.093227	20101013.094308	8	0.011764	60	10	60-180	60	165	GapExp	0	94	2	1	1	target	1	496	752	227489	11.765	11.755	11.776
ProbeTrack12	1	ProbeTrack	11.3	WolfelabSpurzheim	20101013.093227	20101013.094315	8	0.011764	60	10	60-180	60	123	GapExp	0	95	2	45	0	distractor	1	520	740	228229	11.765	11.752	11.777
ProbeTrack12	1	ProbeTrack	11.3	WolfelabSpurzheim	20101013.093227	20101013.094322	8	0.011764	60	10	60-180	60	89	GapExp	0	96	2	45	1	target	1	414	793	229022	11.765	11.754	11.776
ProbeTrack12	1	ProbeTrack	11.3	WolfelabSpurzheim	20101013.093227	20101013.094328	8	0.011764	60	0	60-180	60	98	GapExp	0	97	2	3	1	target	1	649	676	229698	11.765	11.727	11.802
ProbeTrack12	1	ProbeTrack	11.3	WolfelabSpurzheim	20101013.093227	20101013.094334	8	0.011764	60	0	60-180	60	94	GapExp	0	98	2	0	1	target	1	696	652	230350	11.765	11.754	11.777
ProbeTrack12	1	ProbeTrack	11.3	WolfelabSpurzheim	20101013.093227	20101013.094341	8	0.011764	60	10	60-180	60	149	GapExp	0	99	2	0	0	distractor	1	414	793	231143	11.765	11.736	11.792
ProbeTrack12	1	ProbeTrack	11.3	WolfelabSpurzheim	20101013.093227	20101013.094350	8	0.011764	60	10	60-180	60	74	GapExp	0	100	2	45	0	distractor	1	321	840	231983	11.765	11.752	11.777
ProbeTrack12	1	ProbeTrack	11.3	WolfelabSpurzheim	20101013.093227	20101013.094356	8	0.011764	60	10	60-180	60	159	GapExp	0	101	2	1	0	distractor	1	402	799	232782	11.765	11.752	11.777
ProbeTrack12	1	ProbeTrack	11.3	WolfelabSpurzheim	20101013.093227	20101013.094402	8	0.011764	60	10	60-180	60	157	GapExp	0	102	2	3	1	distractor	0	426	-1000	231782	11.765	11.754	11.778
ProbeTrack12	1	ProbeTrack	11.3	WolfelabSpurzheim	20101013.093227	20101013.094409	8	0.011764	60	10	60-180	60	110	GapExp	0	103	2	1	1	target	1	461	770	232552	11.765	11.755	11.776
ProbeTrack12	1	ProbeTrack	11.3	WolfelabSpurzheim	20101013.093227	20101013.094414	8	0.011764	60	0	60-180	60	157	GapExp	0	104	2	1	1	target	1	426	787	233339	11.765	11.754	11.776
ProbeTrack12	1	ProbeTrack	11.3	WolfelabSpurzheim	20101013.093227	20101013.094420	8	0.011764	60	0	60-180	60	123	GapExp	0	105	2	1	0	distractor	1	461	770	234109	11.765	11.753	11.776
ProbeTrack12	1	ProbeTrack	11.3	WolfelabSpurzheim	20101013.093227	20101013.094427	8	0.011764	60	10	60-180	60	115	GapExp	0	106	2	3	0	distractor	1	461	770	234879	11.765	11.754	11.776
ProbeTrack12	1	ProbeTrack	11.3	WolfelabSpurzheim	20101013.093227	20101013.094435	8	0.011764	60	10	60-180	60	70	GapExp	0	107	2	1	0	distractor	1	461	770	235649	11.765	11.755	11.774
ProbeTrack12	1	ProbeTrack	11.3	WolfelabSpurzheim	20101013.093227	20101013.094445	8	0.011764	60	0	60-180	60	165	GapExp	0	108	2	1	0	distractor	1	461	770	236419	11.765	11.754	11.777
ProbeTrack12	1	ProbeTrack	11.3	WolfelabSpurzheim	20101013.093227	20101013.094452	8	0.011764	60	10	60-180	60	78	GapExp	0	109	2	1	0	distractor	1	426	787	237206	11.765	11.754	11.776
ProbeTrack12	1	ProbeTrack	11.3	WolfelabSpurzheim	20101013.093227	20101013.094518	8	0.011764	60	0	60-180	60	159	GapExp	0	110	2	3	1	target	1	390	805	238011	11.765	11.754	11.777
ProbeTrack12	1	ProbeTrack	11.3	WolfelabSpurzheim	20101013.093227	20101013.094524	8	0.011764	60	10	60-180	60	95	GapExp	0	111	2	0	1	distractor	0	367	-1000	237011	11.765	11.753	11.775
ProbeTrack12	1	ProbeTrack	11.3	WolfelabSpurzheim	20101013.093227	20101013.094529	8	0.011764	60	10	60-180	60	74	GapExp	0	112	2	3	1	distractor	0	343	-1000	236011	11.765	11.752	11.776
ProbeTrack12	1	ProbeTrack	11.3	WolfelabSpurzheim	20101013.093227	20101013.094535	8	0.011764	60	10	60-180	60	78	GapExp	0	113	2	45	0	distractor	1	696	652	236663	11.765	11.753	11.776
ProbeTrack12	1	ProbeTrack	11.3	WolfelabSpurzheim	20101013.093227	20101013.094541	8	0.011764	60	0	60-180	60	66	GapExp	0	114	2	0	1	target	1	449	776	237439	11.765	11.755	11.775
ProbeTrack12	1	ProbeTrack	11.3	WolfelabSpurzheim	20101013.093227	20101013.094547	8	0.011764	60	10	60-180	60	147	GapExp	0	115	2	3	0	distractor	1	473	764	238203	11.765	11.753	11.777
ProbeTrack12	1	ProbeTrack	11.3	WolfelabSpurzheim	20101013.093227	20101013.094553	8	0.011764	60	0	60-180	60	102	GapExp	0	116	2	45	1	target	1	567	717	238920	11.765	11.754	11.776
ProbeTrack12	1	ProbeTrack	11.3	WolfelabSpurzheim	20101013.093227	20101013.094559	8	0.011764	60	10	60-180	60	85	GapExp	0	117	2	45	1	target	1	402	799	239719	11.765	11.754	11.775
ProbeTrack12	1	ProbeTrack	11.3	WolfelabSpurzheim	20101013.093227	20101013.094605	8	0.011764	60	10	60-180	60	168	GapExp	0	118	2	0	0	distractor	1	402	799	240518	11.765	11.750	11.776
ProbeTrack12	1	ProbeTrack	11.3	WolfelabSpurzheim	20101013.093227	20101013.094611	8	0.011764	60	10	60-180	60	110	GapExp	0	119	2	3	0	distractor	1	473	764	241282	11.765	11.754	11.777
ProbeTrack12	1	ProbeTrack	11.3	WolfelabSpurzheim	20101013.093227	20101013.094617	8	0.011764	60	10	60-180	60	92	GapExp	0	120	2	1	1	target	1	391	805	242087	11.765	11.754	11.777
ProbeTrack12	1	ProbeTrack	11.3	WolfelabSpurzheim	20101013.093227	20101013.094622	8	0.011764	60	0	60-180	60	179	GapExp	0	121	2	3	1	target	1	355	823	242910	11.765	11.754	11.775
ProbeTrack12	1	ProbeTrack	11.3	WolfelabSpurzheim	20101013.093227	20101013.094629	8	0.011764	60	0	60-180	60	159	GapExp	0	122	2	1	0	distractor	1	496	752	243662	11.765	11.753	11.776
ProbeTrack12	1	ProbeTrack	11.3	WolfelabSpurzheim	20101013.093227	20101013.094635	8	0.011764	60	0	60-180	60	127	GapExp	0	123	2	45	1	target	1	426	787	244449	11.765	11.752	11.777
ProbeTrack12	1	ProbeTrack	11.3	WolfelabSpurzheim	20101013.093227	20101013.094643	8	0.011764	60	10	60-180	60	177	GapExp	0	124	2	0	1	target	1	473	764	245213	11.765	11.753	11.776
ProbeTrack12	1	ProbeTrack	11.3	WolfelabSpurzheim	20101013.093227	20101013.094650	8	0.011764	60	0	60-180	60	124	GapExp	0	125	2	45	0	distractor	1	520	740	245953	11.765	11.732	11.794
ProbeTrack12	1	ProbeTrack	11.3	WolfelabSpurzheim	20101013.093227	20101013.094657	8	0.011764	60	10	60-180	60	75	GapExp	0	126	2	0	0	distractor	1	485	758	246711	11.765	11.754	11.777
ProbeTrack12	1	ProbeTrack	11.3	WolfelabSpurzheim	20101013.093227	20101013.094702	8	0.011764	60	0	60-180	60	99	GapExp	0	127	2	1	1	target	1	426	787	247498	11.765	11.733	11.799
ProbeTrack12	1	ProbeTrack	11.3	WolfelabSpurzheim	20101013.093227	20101013.094708	8	0.011764	60	0	60-180	60	103	GapExp	0	128	2	1	1	target	1	461	770	248268	11.765	11.755	11.775
ProbeTrack12	1	ProbeTrack	11.3	WolfelabSpurzheim	20101013.093227	20101013.094716	8	0.011764	60	10	60-180	60	122	GapExp	0	129	2	45	0	distractor	1	390	805	249073	11.765	11.754	11.777
ProbeTrack12	1	ProbeTrack	11.3	WolfelabSpurzheim	20101013.093227	20101013.094723	8	0.011764	60	10	60-180	60	178	GapExp	0	130	2	1	0	distractor	1	485	758	249831	11.765	11.755	11.777
ProbeTrack12	1	ProbeTrack	11.3	WolfelabSpurzheim	20101013.093227	20101013.094732	8	0.011764	60	10	60-180	60	104	GapExp	0	131	2	1	1	target	1	579	711	250542	11.765	11.754	11.777
ProbeTrack12	1	ProbeTrack	11.3	WolfelabSpurzheim	20101013.093227	20101013.094738	8	0.011764	60	10	60-180	60	154	GapExp	0	132	2	45	1	target	1	532	734	251276	11.765	11.740	11.790
ProbeTrack12	1	ProbeTrack	11.3	WolfelabSpurzheim	20101013.093227	20101013.094749	8	0.011764	60	0	60-180	60	89	GapExp	0	133	2	0	1	target	1	332	834	252110	11.765	11.755	11.775
ProbeTrack12	1	ProbeTrack	11.3	WolfelabSpurzheim	20101013.093227	20101013.094756	8	0.011764	60	10	60-180	60	80	GapExp	0	134	2	3	0	distractor	1	520	740	252850	11.765	11.756	11.776
ProbeTrack12	1	ProbeTrack	11.3	WolfelabSpurzheim	20101013.093227	20101013.094801	8	0.011764	60	0	60-180	60	146	GapExp	0	135	2	1	1	target	1	367	817	253667	11.765	11.754	11.776
ProbeTrack12	1	ProbeTrack	11.3	WolfelabSpurzheim	20101013.093227	20101013.094807	8	0.011764	60	10	60-180	60	108	GapExp	0	136	2	0	0	distractor	1	461	770	254437	11.765	11.753	11.777
ProbeTrack12	1	ProbeTrack	11.3	WolfelabSpurzheim	20101013.093227	20101013.094813	8	0.011764	60	0	60-180	60	88	GapExp	0	137	2	1	1	target	1	414	793	255230	11.765	11.753	11.776
ProbeTrack12	1	ProbeTrack	11.3	WolfelabSpurzheim	20101013.093227	20101013.094818	8	0.011764	60	10	60-180	60	92	GapExp	0	138	2	3	1	target	1	391	805	256035	11.765	11.741	11.786
ProbeTrack12	1	ProbeTrack	11.3	WolfelabSpurzheim	20101013.093227	20101013.094824	8	0.011764	60	10	60-180	60	92	GapExp	0	139	2	0	1	target	1	355	823	256858	11.765	11.755	11.775
ProbeTrack12	1	ProbeTrack	11.3	WolfelabSpurzheim	20101013.093227	20101013.094829	8	0.011764	60	10	60-180	60	115	GapExp	0	140	2	0	0	target	0	414	-1000	255858	11.765	11.754	11.775
ProbeTrack12	1	ProbeTrack	11.3	WolfelabSpurzheim	20101013.093227	20101013.094835	8	0.011764	60	10	60-180	60	64	GapExp	0	141	2	0	0	distractor	1	497	752	256610	11.765	11.754	11.775
ProbeTrack12	1	ProbeTrack	11.3	WolfelabSpurzheim	20101013.093227	20101013.094840	8	0.011764	60	0	60-180	60	134	GapExp	0	142	2	3	1	target	1	461	770	257380	11.765	11.756	11.777
ProbeTrack12	1	ProbeTrack	11.3	WolfelabSpurzheim	20101013.093227	20101013.094846	8	0.011764	60	10	60-180	60	65	GapExp	0	143	2	1	0	distractor	1	473	764	258144	11.765	11.754	11.776
ProbeTrack12	1	ProbeTrack	11.3	WolfelabSpurzheim	20101013.093227	20101013.094853	8	0.011764	60	0	60-180	60	69	GapExp	0	144	2	45	1	target	1	402	799	258943	11.765	11.754	11.777
ProbeTrack12	1	ProbeTrack	11.3	WolfelabSpurzheim	20101013.093227	20101013.094900	8	0.011764	60	10	60-180	60	132	GapExp	0	145	2	3	0	distractor	1	461	770	259713	11.765	11.754	11.777
ProbeTrack12	1	ProbeTrack	11.3	WolfelabSpurzheim	20101013.093227	20101013.094906	8	0.011764	60	0	60-180	60	73	GapExp	0	146	2	0	1	target	1	390	805	260518	11.765	11.754	11.776
ProbeTrack12	1	ProbeTrack	11.3	WolfelabSpurzheim	20101013.093227	20101013.094911	8	0.011764	60	10	60-180	60	168	GapExp	0	147	2	1	1	target	1	332	834	261352	11.765	11.753	11.780
ProbeTrack12	1	ProbeTrack	11.3	WolfelabSpurzheim	20101013.093227	20101013.094918	8	0.011764	60	0	60-180	60	149	GapExp	0	148	2	3	1	target	1	332	834	262186	11.765	11.749	11.782
ProbeTrack12	1	ProbeTrack	11.3	WolfelabSpurzheim	20101013.093227	20101013.094924	8	0.011764	60	10	60-180	60	157	GapExp	0	149	2	3	1	target	1	332	834	263020	11.765	11.754	11.776
ProbeTrack12	1	ProbeTrack	11.3	WolfelabSpurzheim	20101013.093227	20101013.094930	8	0.011764	60	10	60-180	60	167	GapExp	0	150	2	1	0	distractor	1	520	740	263760	11.765	11.753	11.777
ProbeTrack12	1	ProbeTrack	11.3	WolfelabSpurzheim	20101013.093227	20101013.094937	8	0.011764	60	0	60-180	60	140	GapExp	0	151	2	3	0	distractor	1	496	752	264512	11.765	11.754	11.776
ProbeTrack12	1	ProbeTrack	11.3	WolfelabSpurzheim	20101013.093227	20101013.094943	8	0.011764	60	10	60-180	60	164	GapExp	0	152	2	45	1	target	1	332	834	265346	11.765	11.754	11.777
ProbeTrack12	1	ProbeTrack	11.3	WolfelabSpurzheim	20101013.093227	20101013.095004	8	0.011764	60	0	60-180	60	153	GapExp	0	153	2	1	0	distractor	1	450	775	266121	11.765	11.753	11.776
ProbeTrack12	1	ProbeTrack	11.3	WolfelabSpurzheim	20101013.093227	20101013.095010	8	0.011764	60	0	60-180	60	150	GapExp	0	154	2	3	0	distractor	1	379	811	266932	11.765	11.753	11.777
ProbeTrack12	1	ProbeTrack	11.3	WolfelabSpurzheim	20101013.093227	20101013.095015	8	0.011764	60	0	60-180	60	162	GapExp	0	155	2	3	1	target	1	426	787	267719	11.765	11.754	11.776
ProbeTrack12	1	ProbeTrack	11.3	WolfelabSpurzheim	20101013.093227	20101013.095022	8	0.011764	60	10	60-180	60	180	GapExp	0	156	2	45	1	target	1	332	834	268553	11.765	11.754	11.778
ProbeTrack12	1	ProbeTrack	11.3	WolfelabSpurzheim	20101013.093227	20101013.095028	8	0.011764	60	10	60-180	60	142	GapExp	0	157	2	1	1	target	1	438	781	269334	11.765	11.755	11.776
ProbeTrack12	1	ProbeTrack	11.3	WolfelabSpurzheim	20101013.093227	20101013.095035	8	0.011764	60	10	60-180	60	175	GapExp	0	158	2	1	0	distractor	1	391	805	270139	11.765	11.751	11.777
ProbeTrack12	1	ProbeTrack	11.3	WolfelabSpurzheim	20101013.093227	20101013.095041	8	0.011764	60	0	60-180	60	172	GapExp	0	159	2	45	0	distractor	1	497	752	270891	11.765	11.755	11.777
ProbeTrack12	1	ProbeTrack	11.3	WolfelabSpurzheim	20101013.093227	20101013.095049	8	0.011764	60	10	60-180	60	155	GapExp	0	160	2	0	0	distractor	1	450	775	271666	11.765	11.753	11.780
ProbeTrack12	1	ProbeTrack	11.3	WolfelabSpurzheim	20101013.093227	20101013.095056	8	0.011764	60	10	60-180	60	63	GapExp	0	161	2	3	0	distractor	1	473	764	272430	11.765	11.752	11.776
ProbeTrack12	1	ProbeTrack	11.3	WolfelabSpurzheim	20101013.093227	20101013.095101	8	0.011764	60	0	60-180	60	74	GapExp	0	162	2	45	0	distractor	1	414	793	273223	11.765	11.754	11.776
ProbeTrack12	1	ProbeTrack	11.3	WolfelabSpurzheim	20101013.093227	20101013.095107	8	0.011764	60	10	60-180	60	128	GapExp	0	163	2	3	0	distractor	1	355	823	274046	11.765	11.733	11.791
ProbeTrack12	1	ProbeTrack	11.3	WolfelabSpurzheim	20101013.093227	20101013.095113	8	0.011764	60	0	60-180	60	135	GapExp	0	164	2	0	0	distractor	1	473	764	274810	11.765	11.754	11.776
ProbeTrack12	1	ProbeTrack	11.3	WolfelabSpurzheim	20101013.093227	20101013.095120	8	0.011764	60	0	60-180	60	98	GapExp	0	165	2	1	1	target	1	485	758	275568	11.765	11.754	11.777
ProbeTrack12	1	ProbeTrack	11.3	WolfelabSpurzheim	20101013.093227	20101013.095127	8	0.011764	60	10	60-180	60	72	GapExp	0	166	2	45	0	distractor	1	332	834	276402	11.765	11.755	11.776
ProbeTrack12	1	ProbeTrack	11.3	WolfelabSpurzheim	20101013.093227	20101013.095139	8	0.011764	60	0	60-180	60	167	GapExp	0	167	2	3	0	distractor	1	402	799	277201	11.765	11.754	11.776
ProbeTrack12	1	ProbeTrack	11.3	WolfelabSpurzheim	20101013.093227	20101013.095145	8	0.011764	60	0	60-180	60	105	GapExp	0	168	2	45	0	distractor	1	461	770	277971	11.765	11.754	11.778
ProbeTrack12	1	ProbeTrack	11.3	WolfelabSpurzheim	20101013.093227	20101013.095151	8	0.011764	60	10	60-180	60	69	GapExp	0	169	2	1	1	target	1	426	787	278758	11.765	11.755	11.778
ProbeTrack12	1	ProbeTrack	11.3	WolfelabSpurzheim	20101013.093227	20101013.095157	8	0.011764	60	10	60-180	60	68	GapExp	0	170	2	1	0	distractor	1	637	682	279440	11.765	11.754	11.776
ProbeTrack12	1	ProbeTrack	11.3	WolfelabSpurzheim	20101013.093227	20101013.095202	8	0.011764	60	0	60-180	60	82	GapExp	0	171	2	45	1	target	1	473	764	280204	11.765	11.755	11.776
ProbeTrack12	1	ProbeTrack	11.3	WolfelabSpurzheim	20101013.093227	20101013.095208	8	0.011764	60	0	60-180	60	110	GapExp	0	172	2	0	1	target	1	320	840	281044	11.765	11.754	11.777
ProbeTrack12	1	ProbeTrack	11.3	WolfelabSpurzheim	20101013.093227	20101013.095214	8	0.011764	60	10	60-180	60	164	GapExp	0	173	2	3	1	distractor	0	332	-1000	280044	11.765	11.753	11.776
ProbeTrack12	1	ProbeTrack	11.3	WolfelabSpurzheim	20101013.093227	20101013.095221	8	0.011764	60	10	60-180	60	72	GapExp	0	174	2	3	0	distractor	1	637	682	280726	11.765	11.753	11.778
ProbeTrack12	1	ProbeTrack	11.3	WolfelabSpurzheim	20101013.093227	20101013.095226	8	0.011764	60	0	60-180	60	62	GapExp	0	175	2	0	1	target	1	390	805	281531	11.765	11.754	11.776
ProbeTrack12	1	ProbeTrack	11.3	WolfelabSpurzheim	20101013.093227	20101013.095231	8	0.011764	60	0	60-180	60	135	GapExp	0	176	2	0	0	target	0	614	-1000	280531	11.765	11.754	11.778
ProbeTrack12	1	ProbeTrack	11.3	WolfelabSpurzheim	20101013.093227	20101013.095238	8	0.011764	60	0	60-180	60	145	GapExp	0	177	2	45	0	distractor	1	473	764	281295	11.765	11.754	11.776
ProbeTrack12	1	ProbeTrack	11.3	WolfelabSpurzheim	20101013.093227	20101013.095244	8	0.011764	60	0	60-180	60	175	GapExp	0	178	2	0	0	distractor	1	602	699	281994	11.765	11.754	11.776
ProbeTrack12	1	ProbeTrack	11.3	WolfelabSpurzheim	20101013.093227	20101013.095251	8	0.011764	60	0	60-180	60	163	GapExp	0	179	2	1	0	distractor	1	508	746	282740	11.765	11.753	11.777
ProbeTrack12	1	ProbeTrack	11.3	WolfelabSpurzheim	20101013.093227	20101013.095258	8	0.011764	60	10	60-180	60	126	GapExp	0	180	2	0	1	distractor	0	473	-1000	281740	11.765	11.752	11.776
ProbeTrack12	1	ProbeTrack	11.3	WolfelabSpurzheim	20101013.093227	20101013.095321	8	0.011764	60	0	60-180	60	127	GapExp	0	181	2	0	0	distractor	1	461	770	282510	11.765	11.723	11.808
ProbeTrack12	1	ProbeTrack	11.3	WolfelabSpurzheim	20101013.093227	20101013.095326	8	0.011764	60	0	60-180	60	163	GapExp	0	182	2	45	0	distractor	1	461	770	283280	11.765	11.753	11.776
ProbeTrack12	1	ProbeTrack	11.3	WolfelabSpurzheim	20101013.093227	20101013.095334	8	0.011764	60	0	60-180	60	165	GapExp	0	183	2	3	1	target	1	308	846	284126	11.765	11.753	11.775
ProbeTrack12	1	ProbeTrack	11.3	WolfelabSpurzheim	20101013.093227	20101013.095340	8	0.011764	60	10	60-180	60	134	GapExp	0	184	2	45	1	distractor	0	343	-1000	283126	11.765	11.752	11.776
ProbeTrack12	1	ProbeTrack	11.3	WolfelabSpurzheim	20101013.093227	20101013.095347	8	0.011764	60	0	60-180	60	103	GapExp	0	185	2	3	0	distractor	1	638	681	283807	11.765	11.753	11.776
ProbeTrack12	1	ProbeTrack	11.3	WolfelabSpurzheim	20101013.093227	20101013.095352	8	0.011764	60	0	60-180	60	126	GapExp	0	186	2	1	1	target	1	367	817	284624	11.765	11.686	11.843
ProbeTrack12	1	ProbeTrack	11.3	WolfelabSpurzheim	20101013.093227	20101013.095358	8	0.011764	60	0	60-180	60	178	GapExp	0	187	2	1	0	distractor	1	414	793	285417	11.765	11.754	11.778
ProbeTrack12	1	ProbeTrack	11.3	WolfelabSpurzheim	20101013.093227	20101013.095406	8	0.011764	60	10	60-180	60	126	GapExp	0	188	2	3	1	target	1	520	740	286157	11.765	11.755	11.777
ProbeTrack12	1	ProbeTrack	11.3	WolfelabSpurzheim	20101013.093227	20101013.095415	8	0.011764	60	10	60-180	60	122	GapExp	0	189	2	45	0	target	0	649	-1000	285157	11.765	11.754	11.776
ProbeTrack12	1	ProbeTrack	11.3	WolfelabSpurzheim	20101013.093227	20101013.095422	8	0.011764	60	10	60-180	60	156	GapExp	0	190	2	1	0	distractor	1	426	787	285944	11.765	11.740	11.785
ProbeTrack12	1	ProbeTrack	11.3	WolfelabSpurzheim	20101013.093227	20101013.095430	8	0.011764	60	0	60-180	60	152	GapExp	0	191	2	1	0	distractor	1	637	682	286626	11.765	11.740	11.785
ProbeTrack12	1	ProbeTrack	11.3	WolfelabSpurzheim	20101013.093227	20101013.095436	8	0.011764	60	0	60-180	60	177	GapExp	0	192	2	1	0	distractor	1	343	829	287455	11.765	11.754	11.776
ProbeTrack12	1	ProbeTrack	11.3	WolfelabSpurzheim	20101013.093227	20101013.095443	8	0.011764	60	10	60-180	60	161	GapExp	0	193	2	0	0	distractor	1	802	599	288054	11.765	11.753	11.776
ProbeTrack12	1	ProbeTrack	11.3	WolfelabSpurzheim	20101013.093227	20101013.095449	8	0.011764	60	0	60-180	60	166	GapExp	0	194	2	0	1	target	1	449	776	288830	11.765	11.754	11.776
ProbeTrack12	1	ProbeTrack	11.3	WolfelabSpurzheim	20101013.093227	20101013.095455	8	0.011764	60	0	60-180	60	148	GapExp	0	195	2	1	1	target	1	308	846	289676	11.765	11.755	11.777
ProbeTrack12	1	ProbeTrack	11.3	WolfelabSpurzheim	20101013.093227	20101013.095501	8	0.011764	60	10	60-180	60	175	GapExp	0	196	2	0	1	target	1	332	834	290510	11.765	11.746	11.777
ProbeTrack12	1	ProbeTrack	11.3	WolfelabSpurzheim	20101013.093227	20101013.095508	8	0.011764	60	0	60-180	60	73	GapExp	0	197	2	3	0	distractor	1	449	776	291286	11.765	11.755	11.776
ProbeTrack12	1	ProbeTrack	11.3	WolfelabSpurzheim	20101013.093227	20101013.095519	8	0.011764	60	0	60-180	60	88	GapExp	0	198	2	1	1	target	1	355	823	292109	11.765	11.731	11.791
ProbeTrack12	1	ProbeTrack	11.3	WolfelabSpurzheim	20101013.093227	20101013.095524	8	0.011764	60	0	60-180	60	126	GapExp	0	199	2	0	1	target	1	320	840	292949	11.765	11.755	11.776
ProbeTrack12	1	ProbeTrack	11.3	WolfelabSpurzheim	20101013.093227	20101013.095530	8	0.011764	60	0	60-180	60	97	GapExp	0	200	2	0	0	distractor	1	367	817	293766	11.765	11.724	11.799
ProbeTrack12	1	ProbeTrack	11.3	WolfelabSpurzheim	20101013.093227	20101013.095545	8	0.011764	60	0	60-180	60	100	GapExp	0	201	2	1	0	distractor	1	379	811	294577	11.765	11.728	11.803
ProbeTrack12	1	ProbeTrack	11.3	WolfelabSpurzheim	20101013.093227	20101013.095550	8	0.011764	60	0	60-180	60	109	GapExp	0	202	2	3	0	distractor	1	367	817	295394	11.765	11.754	11.777
ProbeTrack12	1	ProbeTrack	11.3	WolfelabSpurzheim	20101013.093227	20101013.095556	8	0.011764	60	10	60-180	60	80	GapExp	0	203	2	3	1	distractor	0	367	-1000	294394	11.765	11.755	11.776
ProbeTrack12	1	ProbeTrack	11.3	WolfelabSpurzheim	20101013.093227	20101013.095601	8	0.011764	60	10	60-180	60	122	GapExp	0	204	2	3	0	distractor	1	438	781	295175	11.765	11.754	11.776
ProbeTrack12	1	ProbeTrack	11.3	WolfelabSpurzheim	20101013.093227	20101013.095607	8	0.011764	60	10	60-180	60	124	GapExp	0	205	2	1	1	target	1	402	799	295974	11.765	11.752	11.776
ProbeTrack12	1	ProbeTrack	11.3	WolfelabSpurzheim	20101013.093227	20101013.095614	8	0.011764	60	0	60-180	60	158	GapExp	0	206	2	45	1	target	1	402	799	296773	11.765	11.753	11.776
ProbeTrack12	1	ProbeTrack	11.3	WolfelabSpurzheim	20101013.093227	20101013.095623	8	0.011764	60	10	60-180	60	112	GapExp	0	207	2	1	1	target	1	379	811	297584	11.765	11.753	11.776
ProbeTrack12	1	ProbeTrack	11.3	WolfelabSpurzheim	20101013.093227	20101013.095631	8	0.011764	60	10	60-180	60	111	GapExp	0	208	2	45	1	target	1	367	817	298401	11.765	11.754	11.775
ProbeTrack12	1	ProbeTrack	11.3	WolfelabSpurzheim	20101013.093227	20101013.095640	8	0.011764	60	10	60-180	60	156	GapExp	0	209	2	3	1	target	1	426	787	299188	11.765	11.754	11.776
ProbeTrack12	1	ProbeTrack	11.3	WolfelabSpurzheim	20101013.093227	20101013.095647	8	0.011764	60	0	60-180	60	130	GapExp	0	210	2	3	1	target	1	284	858	300046	11.765	11.753	11.778
ProbeTrack12	1	ProbeTrack	11.3	WolfelabSpurzheim	20101013.093227	20101013.095658	8	0.011764	60	10	60-180	60	152	GapExp	0	211	2	1	1	target	1	308	846	300892	11.765	11.755	11.775
ProbeTrack12	1	ProbeTrack	11.3	WolfelabSpurzheim	20101013.093227	20101013.095704	8	0.011764	60	0	60-180	60	147	GapExp	0	212	2	1	1	target	1	414	793	301685	11.765	11.754	11.777
ProbeTrack12	1	ProbeTrack	11.3	WolfelabSpurzheim	20101013.093227	20101013.095710	8	0.011764	60	0	60-180	60	76	GapExp	0	213	2	1	1	target	1	308	846	302531	11.765	11.754	11.776
ProbeTrack12	1	ProbeTrack	11.3	WolfelabSpurzheim	20101013.093227	20101013.095719	8	0.011764	60	0	60-180	60	68	GapExp	0	214	2	45	1	target	1	320	840	303371	11.765	11.748	11.778
ProbeTrack12	1	ProbeTrack	11.3	WolfelabSpurzheim	20101013.093227	20101013.095724	8	0.011764	60	10	60-180	60	68	GapExp	0	215	2	45	1	target	1	461	770	304141	11.765	11.754	11.776
ProbeTrack12	1	ProbeTrack	11.3	WolfelabSpurzheim	20101013.093227	20101013.095729	8	0.011764	60	0	60-180	60	70	GapExp	0	216	2	45	1	target	1	308	846	304987	11.765	11.708	11.815
ProbeTrack12	1	ProbeTrack	11.3	WolfelabSpurzheim	20101013.093227	20101013.095736	8	0.011764	60	0	60-180	60	100	GapExp	0	217	2	1	0	distractor	1	438	781	305768	11.765	11.754	11.776
ProbeTrack12	1	ProbeTrack	11.3	WolfelabSpurzheim	20101013.093227	20101013.095744	8	0.011764	60	0	60-180	60	134	GapExp	0	218	2	45	0	distractor	1	450	775	306543	11.765	11.754	11.776
ProbeTrack12	1	ProbeTrack	11.3	WolfelabSpurzheim	20101013.093227	20101013.095751	8	0.011764	60	10	60-180	60	173	GapExp	0	219	2	1	1	target	1	296	852	307395	11.765	11.752	11.777
ProbeTrack12	1	ProbeTrack	11.3	WolfelabSpurzheim	20101013.093227	20101013.095757	8	0.011764	60	0	60-180	60	143	GapExp	0	220	2	1	0	distractor	1	649	676	308071	11.765	11.755	11.775
ProbeTrack12	1	ProbeTrack	11.3	WolfelabSpurzheim	20101013.093227	20101013.095803	8	0.011764	60	10	60-180	60	158	GapExp	0	221	2	0	1	target	1	355	823	308894	11.765	11.752	11.775
ProbeTrack12	1	ProbeTrack	11.3	WolfelabSpurzheim	20101013.093227	20101013.095809	8	0.011764	60	10	60-180	60	171	GapExp	0	222	2	1	0	distractor	1	521	740	309634	11.765	11.754	11.776
ProbeTrack12	1	ProbeTrack	11.3	WolfelabSpurzheim	20101013.093227	20101013.095816	8	0.011764	60	10	60-180	60	112	GapExp	0	223	2	45	1	target	1	320	840	310474	11.765	11.753	11.778
ProbeTrack12	1	ProbeTrack	11.3	WolfelabSpurzheim	20101013.093227	20101013.095824	8	0.011764	60	10	60-180	60	104	GapExp	0	224	2	45	0	target	0	426	-1000	309474	11.765	11.755	11.776
ProbeTrack12	1	ProbeTrack	11.3	WolfelabSpurzheim	20101013.093227	20101013.095830	8	0.011764	60	0	60-180	60	151	GapExp	0	225	2	45	1	target	1	379	811	310285	11.765	11.754	11.777
ProbeTrack12	1	ProbeTrack	11.3	WolfelabSpurzheim	20101013.093227	20101013.095837	8	0.011764	60	10	60-180	60	69	GapExp	0	226	2	45	0	distractor	1	449	776	311061	11.765	11.737	11.791
ProbeTrack12	1	ProbeTrack	11.3	WolfelabSpurzheim	20101013.093227	20101013.095843	8	0.011764	60	10	60-180	60	137	GapExp	0	227	2	0	1	target	1	508	746	311807	11.765	11.754	11.776
ProbeTrack12	1	ProbeTrack	11.3	WolfelabSpurzheim	20101013.093227	20101013.095850	8	0.011764	60	0	60-180	60	151	GapExp	0	228	2	1	0	distractor	1	414	793	312600	11.765	11.746	11.789
ProbeTrack12	1	ProbeTrack	11.3	WolfelabSpurzheim	20101013.093227	20101013.095859	8	0.011764	60	0	60-180	60	107	GapExp	0	229	2	3	0	distractor	1	402	799	313399	11.765	11.721	11.815
ProbeTrack12	1	ProbeTrack	11.3	WolfelabSpurzheim	20101013.093227	20101013.095904	8	0.011764	60	10	60-180	60	129	GapExp	0	230	2	1	0	distractor	1	414	793	314192	11.765	11.755	11.777
ProbeTrack12	1	ProbeTrack	11.3	WolfelabSpurzheim	20101013.093227	20101013.095910	8	0.011764	60	0	60-180	60	137	GapExp	0	231	2	3	1	target	1	344	828	315020	11.765	11.754	11.775
ProbeTrack12	1	ProbeTrack	11.3	WolfelabSpurzheim	20101013.093227	20101013.095916	8	0.011764	60	0	60-180	60	83	GapExp	0	232	2	3	1	target	1	567	717	315737	11.765	11.754	11.775
ProbeTrack12	1	ProbeTrack	11.3	WolfelabSpurzheim	20101013.093227	20101013.095921	8	0.011764	60	10	60-180	60	64	GapExp	0	233	2	1	1	distractor	0	438	-1000	314737	11.765	11.755	11.775
ProbeTrack12	1	ProbeTrack	11.3	WolfelabSpurzheim	20101013.093227	20101013.095929	8	0.011764	60	10	60-180	60	118	GapExp	0	234	2	1	1	target	1	297	852	315589	11.765	11.755	11.776
ProbeTrack12	1	ProbeTrack	11.3	WolfelabSpurzheim	20101013.093227	20101013.095935	8	0.011764	60	10	60-180	60	86	GapExp	0	235	2	0	0	distractor	1	496	752	316341	11.765	11.753	11.777
ProbeTrack12	1	ProbeTrack	11.3	WolfelabSpurzheim	20101013.093227	20101013.095940	8	0.011764	60	0	60-180	60	155	GapExp	0	236	2	45	1	target	1	390	805	317146	11.765	11.746	11.788
ProbeTrack12	1	ProbeTrack	11.3	WolfelabSpurzheim	20101013.093227	20101013.095947	8	0.011764	60	0	60-180	60	123	GapExp	0	237	2	45	1	target	1	379	811	317957	11.765	11.753	11.776
ProbeTrack12	1	ProbeTrack	11.3	WolfelabSpurzheim	20101013.093227	20101013.095955	8	0.011764	60	0	60-180	60	173	GapExp	0	238	2	0	1	target	1	343	829	318786	11.765	11.754	11.777
ProbeTrack12	1	ProbeTrack	11.3	WolfelabSpurzheim	20101013.093227	20101013.100003	8	0.011764	60	0	60-180	60	103	GapExp	0	239	2	3	0	distractor	1	567	717	319503	11.765	11.721	11.805
ProbeTrack12	1	ProbeTrack	11.3	WolfelabSpurzheim	20101013.093227	20101013.100009	8	0.011764	60	0	60-180	60	137	GapExp	0	240	2	45	0	distractor	1	461	770	320273	11.765	11.755	11.776
ProbeTrack12	1	ProbeTrack	11.3	WolfelabSpurzheim	20101013.093227	20101013.100016	8	0.011764	60	10	60-180	60	110	GapExp	0	241	2	45	1	distractor	0	414	-1000	319273	11.765	11.753	11.777
ProbeTrack12	1	ProbeTrack	11.3	WolfelabSpurzheim	20101013.093227	20101013.100022	8	0.011764	60	0	60-180	60	75	GapExp	0	242	2	0	0	distractor	1	496	752	320025	11.765	11.754	11.776
ProbeTrack12	1	ProbeTrack	11.3	WolfelabSpurzheim	20101013.093227	20101013.100028	8	0.011764	60	0	60-180	60	152	GapExp	0	243	2	1	0	distractor	1	414	793	320818	11.765	11.753	11.776
ProbeTrack12	1	ProbeTrack	11.3	WolfelabSpurzheim	20101013.093227	20101013.100034	8	0.011764	60	10	60-180	60	178	GapExp	0	244	2	0	1	target	1	673	664	321482	11.765	11.754	11.777
ProbeTrack12	1	ProbeTrack	11.3	WolfelabSpurzheim	20101013.093227	20101013.100041	8	0.011764	60	10	60-180	60	140	GapExp	0	245	2	0	1	target	1	543	729	322211	11.765	11.728	11.798
ProbeTrack12	1	ProbeTrack	11.3	WolfelabSpurzheim	20101013.093227	20101013.100047	8	0.011764	60	10	60-180	60	102	GapExp	0	246	2	45	0	distractor	1	555	723	322934	11.765	11.750	11.778
ProbeTrack12	1	ProbeTrack	11.3	WolfelabSpurzheim	20101013.093227	20101013.100054	8	0.011764	60	10	60-180	60	146	GapExp	0	247	2	1	0	distractor	1	567	717	323651	11.765	11.754	11.777
ProbeTrack12	1	ProbeTrack	11.3	WolfelabSpurzheim	20101013.093227	20101013.100102	8	0.011764	60	10	60-180	60	154	GapExp	0	248	2	3	1	target	1	391	805	324456	11.765	11.753	11.778
ProbeTrack12	1	ProbeTrack	11.3	WolfelabSpurzheim	20101013.093227	20101013.100109	8	0.011764	60	0	60-180	60	167	GapExp	0	249	2	45	1	target	1	391	805	325261	11.765	11.738	11.790
ProbeTrack12	1	ProbeTrack	11.3	WolfelabSpurzheim	20101013.093227	20101013.100116	8	0.011764	60	10	60-180	60	149	GapExp	0	250	2	45	0	distractor	1	508	746	326007	11.765	11.754	11.776
ProbeTrack12	1	ProbeTrack	11.3	WolfelabSpurzheim	20101013.100205	20101013.100219	8	0.011766	60	0	60-180	60	172	GapExp	1	1	2	45	1	target	1	402	799	326806	11.909	11.753	35.290
ProbeTrack12	1	ProbeTrack	11.3	WolfelabSpurzheim	20101013.100205	20101013.100229	8	0.011766	60	10	60-180	60	104	GapExp	1	2	2	3	1	target	1	414	793	327599	11.765	11.755	11.776
ProbeTrack12	1	ProbeTrack	11.3	WolfelabSpurzheim	20101013.100205	20101013.100235	8	0.011766	60	0	60-180	60	72	GapExp	1	3	2	1	1	target	1	390	805	328404	11.958	11.754	23.535
ProbeTrack12	1	ProbeTrack	11.3	WolfelabSpurzheim	20101013.100205	20101013.100240	8	0.011766	60	10	60-180	60	131	GapExp	1	4	2	1	1	target	1	320	840	329244	11.765	11.730	11.806
ProbeTrack12	1	ProbeTrack	11.3	WolfelabSpurzheim	20101013.100205	20101013.100246	8	0.011766	60	10	60-180	60	95	GapExp	1	5	2	1	0	distractor	1	390	805	330049	11.765	11.751	11.779
ProbeTrack12	1	ProbeTrack	11.3	WolfelabSpurzheim	20101013.100205	20101013.100251	8	0.011766	60	10	60-180	60	102	GapExp	1	6	2	0	1	target	1	426	787	330836	11.817	11.738	23.541
ProbeTrack12	1	ProbeTrack	11.3	WolfelabSpurzheim	20101013.100205	20101013.100256	8	0.011766	60	0	60-180	60	131	GapExp	1	7	2	0	0	distractor	1	332	834	331670	11.765	11.743	11.782
ProbeTrack12	1	ProbeTrack	11.3	WolfelabSpurzheim	20101013.100205	20101013.100301	8	0.011766	60	10	60-180	60	106	GapExp	1	8	2	45	0	distractor	1	497	752	332422	11.765	11.734	11.804
ProbeTrack12	1	ProbeTrack	11.3	WolfelabSpurzheim	20101013.100205	20101013.100307	8	0.011766	60	0	60-180	60	74	GapExp	1	9	2	45	0	distractor	1	485	758	333180	11.765	11.754	11.776
ProbeTrack12	1	ProbeTrack	11.3	WolfelabSpurzheim	20101013.100205	20101013.100313	8	0.011766	60	0	60-180	60	83	GapExp	1	10	2	3	0	distractor	1	414	793	333973	11.765	11.756	11.776
ProbeTrack12	1	ProbeTrack	11.3	WolfelabSpurzheim	20101013.100205	20101013.100318	8	0.011766	60	10	60-180	60	104	GapExp	0	11	2	3	1	target	1	473	764	334737	11.765	11.753	11.777
ProbeTrack12	1	ProbeTrack	11.3	WolfelabSpurzheim	20101013.100205	20101013.100324	8	0.011766	60	10	60-180	60	72	GapExp	0	12	2	1	1	target	1	402	799	335536	11.765	11.753	11.777
ProbeTrack12	1	ProbeTrack	11.3	WolfelabSpurzheim	20101013.100205	20101013.100329	8	0.011766	60	10	60-180	60	164	GapExp	0	13	2	0	0	distractor	1	602	699	336235	11.765	11.751	11.777
ProbeTrack12	1	ProbeTrack	11.3	WolfelabSpurzheim	20101013.100205	20101013.100336	8	0.011766	60	10	60-180	60	142	GapExp	0	14	2	45	1	target	1	391	805	337040	11.765	11.753	11.777
ProbeTrack12	1	ProbeTrack	11.3	WolfelabSpurzheim	20101013.100205	20101013.100343	8	0.011766	60	10	60-180	60	90	GapExp	0	15	2	3	0	distractor	1	367	817	337857	11.765	11.754	11.775
ProbeTrack12	1	ProbeTrack	11.3	WolfelabSpurzheim	20101013.100205	20101013.100348	8	0.011766	60	0	60-180	60	170	GapExp	0	16	2	3	0	distractor	1	355	823	338680	11.765	11.754	11.777
ProbeTrack12	1	ProbeTrack	11.3	WolfelabSpurzheim	20101013.100205	20101013.100354	8	0.011766	60	0	60-180	60	105	GapExp	0	17	2	45	1	distractor	0	320	-1000	337680	11.765	11.754	11.778
ProbeTrack12	1	ProbeTrack	11.3	WolfelabSpurzheim	20101013.100205	20101013.100400	8	0.011766	60	0	60-180	60	158	GapExp	0	18	2	0	0	distractor	1	438	781	338461	11.765	11.726	11.795
ProbeTrack12	1	ProbeTrack	11.3	WolfelabSpurzheim	20101013.100205	20101013.100406	8	0.011766	60	10	60-180	60	64	GapExp	0	19	2	1	1	target	1	426	787	339248	11.765	11.755	11.776
ProbeTrack12	1	ProbeTrack	11.3	WolfelabSpurzheim	20101013.100205	20101013.100414	8	0.011766	60	0	60-180	60	144	GapExp	0	20	2	0	1	target	1	343	829	340077	11.765	11.753	11.776
ProbeTrack12	1	ProbeTrack	11.3	WolfelabSpurzheim	20101013.100205	20101013.100420	8	0.011766	60	0	60-180	60	133	GapExp	0	21	2	45	0	distractor	1	485	758	340835	11.765	11.743	11.781
ProbeTrack12	1	ProbeTrack	11.3	WolfelabSpurzheim	20101013.100205	20101013.100427	8	0.011766	60	10	60-180	60	113	GapExp	0	22	2	1	1	target	1	367	817	341652	11.765	11.739	11.793
ProbeTrack12	1	ProbeTrack	11.3	WolfelabSpurzheim	20101013.100205	20101013.100442	8	0.011766	60	10	60-180	60	64	GapExp	0	23	2	1	0	distractor	1	544	728	342380	11.765	11.753	11.776
ProbeTrack12	1	ProbeTrack	11.3	WolfelabSpurzheim	20101013.100205	20101013.100447	8	0.011766	60	0	60-180	60	64	GapExp	0	24	2	3	1	target	1	437	782	343162	11.765	11.754	11.776
ProbeTrack12	1	ProbeTrack	11.3	WolfelabSpurzheim	20101013.100205	20101013.100452	8	0.011766	60	0	60-180	60	156	GapExp	0	25	2	0	1	target	1	414	793	343955	11.765	11.750	11.779
ProbeTrack12	1	ProbeTrack	11.3	WolfelabSpurzheim	20101013.100205	20101013.100458	8	0.011766	60	10	60-180	60	81	GapExp	0	26	2	45	1	target	1	355	823	344778	11.765	11.753	11.777
ProbeTrack12	1	ProbeTrack	11.3	WolfelabSpurzheim	20101013.100205	20101013.100504	8	0.011766	60	10	60-180	60	74	GapExp	0	27	2	45	1	target	1	332	834	345612	11.765	11.755	11.776
ProbeTrack12	1	ProbeTrack	11.3	WolfelabSpurzheim	20101013.100205	20101013.100510	8	0.011766	60	10	60-180	60	129	GapExp	0	28	2	3	1	target	1	367	817	346429	11.765	11.753	11.776
ProbeTrack12	1	ProbeTrack	11.3	WolfelabSpurzheim	20101013.100205	20101013.100517	8	0.011766	60	10	60-180	60	115	GapExp	0	29	2	3	1	target	1	379	811	347240	11.765	11.754	11.777
ProbeTrack12	1	ProbeTrack	11.3	WolfelabSpurzheim	20101013.100205	20101013.100523	8	0.011766	60	10	60-180	60	139	GapExp	0	30	2	1	0	distractor	1	520	740	347980	11.765	11.752	11.777
ProbeTrack12	1	ProbeTrack	11.3	WolfelabSpurzheim	20101013.100205	20101013.100529	8	0.011766	60	0	60-180	60	88	GapExp	0	31	2	1	0	distractor	1	438	781	348761	11.765	11.730	11.801
ProbeTrack12	1	ProbeTrack	11.3	WolfelabSpurzheim	20101013.100205	20101013.100534	8	0.011766	60	0	60-180	60	123	GapExp	0	32	2	1	1	target	1	496	752	349513	11.765	11.754	11.777
ProbeTrack12	1	ProbeTrack	11.3	WolfelabSpurzheim	20101013.100205	20101013.100539	8	0.011766	60	0	60-180	60	123	GapExp	0	33	2	45	0	distractor	1	461	770	350283	11.765	11.753	11.777
ProbeTrack12	1	ProbeTrack	11.3	WolfelabSpurzheim	20101013.100205	20101013.100545	8	0.011766	60	0	60-180	60	155	GapExp	0	34	2	45	1	target	1	379	811	351094	11.765	11.754	11.777
ProbeTrack12	1	ProbeTrack	11.3	WolfelabSpurzheim	20101013.100205	20101013.100553	8	0.011766	60	10	60-180	60	117	GapExp	0	35	2	1	0	distractor	1	485	758	351852	11.765	11.755	11.776
ProbeTrack12	1	ProbeTrack	11.3	WolfelabSpurzheim	20101013.100205	20101013.100558	8	0.011766	60	0	60-180	60	177	GapExp	0	36	2	3	1	target	1	402	799	352651	11.765	11.755	11.776
ProbeTrack12	1	ProbeTrack	11.3	WolfelabSpurzheim	20101013.100205	20101013.100607	8	0.011766	60	0	60-180	60	99	GapExp	0	37	2	1	0	distractor	1	461	770	353421	11.765	11.751	11.777
ProbeTrack12	1	ProbeTrack	11.3	WolfelabSpurzheim	20101013.100205	20101013.100613	8	0.011766	60	10	60-180	60	138	GapExp	0	38	2	3	0	distractor	1	438	781	354202	11.765	11.754	11.775
ProbeTrack12	1	ProbeTrack	11.3	WolfelabSpurzheim	20101013.100205	20101013.100701	8	0.011766	60	0	60-180	60	148	GapExp	0	39	2	3	0	distractor	1	437	782	354984	11.765	11.751	11.787
ProbeTrack12	1	ProbeTrack	11.3	WolfelabSpurzheim	20101013.100205	20101013.100707	8	0.011766	60	10	60-180	60	96	GapExp	0	40	2	1	1	target	1	344	828	355812	11.765	11.753	11.776
ProbeTrack12	1	ProbeTrack	11.3	WolfelabSpurzheim	20101013.100205	20101013.100712	8	0.011766	60	0	60-180	60	170	GapExp	0	41	2	3	1	target	1	332	834	356646	11.765	11.751	11.783
ProbeTrack12	1	ProbeTrack	11.3	WolfelabSpurzheim	20101013.100205	20101013.100718	8	0.011766	60	10	60-180	60	131	GapExp	0	42	2	0	1	target	1	426	787	357433	11.765	11.753	11.777
ProbeTrack12	1	ProbeTrack	11.3	WolfelabSpurzheim	20101013.100205	20101013.100724	8	0.011766	60	10	60-180	60	133	GapExp	0	43	2	0	1	target	1	250	875	358308	11.765	11.753	11.776
ProbeTrack12	1	ProbeTrack	11.3	WolfelabSpurzheim	20101013.100205	20101013.100730	8	0.011766	60	0	60-180	60	116	GapExp	0	44	2	45	0	distractor	1	568	716	359024	11.765	11.753	11.776
ProbeTrack12	1	ProbeTrack	11.3	WolfelabSpurzheim	20101013.100205	20101013.100736	8	0.011766	60	10	60-180	60	176	GapExp	0	45	2	45	0	distractor	1	355	823	359847	11.765	11.754	11.777
ProbeTrack12	1	ProbeTrack	11.3	WolfelabSpurzheim	20101013.100205	20101013.100743	8	0.011766	60	10	60-180	60	171	GapExp	0	46	2	0	0	distractor	1	403	799	360646	11.765	11.754	11.776
ProbeTrack12	1	ProbeTrack	11.3	WolfelabSpurzheim	20101013.100205	20101013.100749	8	0.011766	60	0	60-180	60	101	GapExp	0	47	2	3	1	target	1	438	781	361427	11.765	11.753	11.777
ProbeTrack12	1	ProbeTrack	11.3	WolfelabSpurzheim	20101013.100205	20101013.100755	8	0.011766	60	10	60-180	60	163	GapExp	0	48	2	1	0	distractor	1	450	775	362202	11.765	11.753	11.775
ProbeTrack12	1	ProbeTrack	11.3	WolfelabSpurzheim	20101013.100205	20101013.100801	8	0.011766	60	10	60-180	60	103	GapExp	0	49	2	1	0	distractor	1	438	781	362983	11.765	11.755	11.775
ProbeTrack12	1	ProbeTrack	11.3	WolfelabSpurzheim	20101013.100205	20101013.100807	8	0.011766	60	10	60-180	60	180	GapExp	0	50	2	1	1	target	1	308	846	363829	11.765	11.754	11.776
ProbeTrack12	1	ProbeTrack	11.3	WolfelabSpurzheim	20101013.100205	20101013.100813	8	0.011766	60	0	60-180	60	101	GapExp	0	51	2	3	0	distractor	1	603	699	364528	11.765	11.754	11.777
ProbeTrack12	1	ProbeTrack	11.3	WolfelabSpurzheim	20101013.100205	20101013.100819	8	0.011766	60	10	60-180	60	142	GapExp	0	52	2	1	1	target	1	532	734	365262	11.765	11.754	11.777
ProbeTrack12	1	ProbeTrack	11.3	WolfelabSpurzheim	20101013.100205	20101013.100827	8	0.011766	60	10	60-180	60	154	GapExp	0	53	2	3	1	target	1	367	817	366079	11.765	11.753	11.776
ProbeTrack12	1	ProbeTrack	11.3	WolfelabSpurzheim	20101013.100205	20101013.100838	8	0.011766	60	0	60-180	60	124	GapExp	0	54	2	3	1	target	1	461	770	366849	11.765	11.755	11.776
ProbeTrack12	1	ProbeTrack	11.3	WolfelabSpurzheim	20101013.100205	20101013.100846	8	0.011766	60	10	60-180	60	159	GapExp	0	55	2	45	1	target	1	343	829	367678	11.765	11.754	11.776
ProbeTrack12	1	ProbeTrack	11.3	WolfelabSpurzheim	20101013.100205	20101013.100853	8	0.011766	60	10	60-180	60	108	GapExp	0	56	2	45	0	distractor	1	461	770	368448	11.765	11.755	11.777
ProbeTrack12	1	ProbeTrack	11.3	WolfelabSpurzheim	20101013.100205	20101013.100858	8	0.011766	60	10	60-180	60	115	GapExp	0	57	2	3	0	distractor	1	485	758	369206	11.765	11.755	11.777
ProbeTrack12	1	ProbeTrack	11.3	WolfelabSpurzheim	20101013.100205	20101013.100904	8	0.011766	60	0	60-180	60	85	GapExp	0	58	2	1	1	distractor	0	449	-1000	368206	11.765	11.753	11.776
ProbeTrack12	1	ProbeTrack	11.3	WolfelabSpurzheim	20101013.100205	20101013.100910	8	0.011766	60	10	60-180	60	139	GapExp	0	59	2	0	1	target	1	449	776	368982	11.765	11.754	11.775
ProbeTrack12	1	ProbeTrack	11.3	WolfelabSpurzheim	20101013.100205	20101013.100916	8	0.011766	60	0	60-180	60	160	GapExp	0	60	2	1	0	distractor	1	543	729	369711	11.765	11.753	11.777
ProbeTrack12	1	ProbeTrack	11.3	WolfelabSpurzheim	20101013.100205	20101013.100922	8	0.011766	60	10	60-180	60	108	GapExp	0	61	2	0	1	target	1	473	764	370475	11.765	11.753	11.776
ProbeTrack12	1	ProbeTrack	11.3	WolfelabSpurzheim	20101013.100205	20101013.100928	8	0.011766	60	10	60-180	60	168	GapExp	0	62	2	1	1	target	1	415	793	371268	11.765	11.752	11.774
ProbeTrack12	1	ProbeTrack	11.3	WolfelabSpurzheim	20101013.100205	20101013.100935	8	0.011766	60	0	60-180	60	110	GapExp	0	63	2	0	1	target	1	296	852	372120	11.765	11.754	11.778
ProbeTrack12	1	ProbeTrack	11.3	WolfelabSpurzheim	20101013.100205	20101013.100941	8	0.011766	60	10	60-180	60	177	GapExp	0	64	2	45	0	distractor	1	649	676	372796	11.765	11.753	11.776
ProbeTrack12	1	ProbeTrack	11.3	WolfelabSpurzheim	20101013.100205	20101013.100949	8	0.011766	60	0	60-180	60	169	GapExp	0	65	2	3	1	target	1	355	823	373619	11.765	11.753	11.777
ProbeTrack12	1	ProbeTrack	11.3	WolfelabSpurzheim	20101013.100205	20101013.100955	8	0.011766	60	10	60-180	60	132	GapExp	0	66	2	45	0	distractor	1	602	699	374318	11.765	11.744	11.785
ProbeTrack12	1	ProbeTrack	11.3	WolfelabSpurzheim	20101013.100205	20101013.101001	8	0.011766	60	0	60-180	60	159	GapExp	0	67	2	3	0	distractor	1	520	740	375058	11.765	11.753	11.777
ProbeTrack12	1	ProbeTrack	11.3	WolfelabSpurzheim	20101013.100205	20101013.101007	8	0.011766	60	10	60-180	60	61	GapExp	0	68	2	0	0	distractor	1	602	699	375757	11.765	11.754	11.776
ProbeTrack12	1	ProbeTrack	11.3	WolfelabSpurzheim	20101013.100205	20101013.101012	8	0.011766	60	10	60-180	60	180	GapExp	0	69	2	0	1	target	1	356	822	376579	11.765	11.754	11.776
ProbeTrack12	1	ProbeTrack	11.3	WolfelabSpurzheim	20101013.100205	20101013.101019	8	0.011766	60	10	60-180	60	153	GapExp	0	70	2	45	1	target	1	449	776	377355	11.765	11.735	11.791
ProbeTrack12	1	ProbeTrack	11.3	WolfelabSpurzheim	20101013.100205	20101013.101027	8	0.011766	60	0	60-180	60	84	GapExp	0	71	2	0	0	distractor	1	438	781	378136	11.765	11.754	11.775
ProbeTrack12	1	ProbeTrack	11.3	WolfelabSpurzheim	20101013.100205	20101013.101032	8	0.011766	60	0	60-180	60	166	GapExp	0	72	2	0	1	target	1	543	729	378865	11.765	11.754	11.776
ProbeTrack12	1	ProbeTrack	11.3	WolfelabSpurzheim	20101013.100205	20101013.101039	8	0.011766	60	0	60-180	60	100	GapExp	0	73	2	1	1	target	1	484	758	379623	11.765	11.754	11.776
ProbeTrack12	1	ProbeTrack	11.3	WolfelabSpurzheim	20101013.100205	20101013.101109	8	0.011766	60	0	60-180	60	95	GapExp	0	74	2	45	1	target	1	379	811	380434	11.765	11.754	11.778
ProbeTrack12	1	ProbeTrack	11.3	WolfelabSpurzheim	20101013.100205	20101013.101115	8	0.011766	60	0	60-180	60	151	GapExp	0	75	2	1	0	distractor	1	509	746	381180	11.765	11.755	11.776
ProbeTrack12	1	ProbeTrack	11.3	WolfelabSpurzheim	20101013.100205	20101013.101121	8	0.011766	60	0	60-180	60	98	GapExp	0	76	2	0	1	target	1	308	846	382026	11.765	11.754	11.777
ProbeTrack12	1	ProbeTrack	11.3	WolfelabSpurzheim	20101013.100205	20101013.101128	8	0.011766	60	0	60-180	60	149	GapExp	0	77	2	1	0	distractor	1	402	799	382825	11.765	11.755	11.776
ProbeTrack12	1	ProbeTrack	11.3	WolfelabSpurzheim	20101013.100205	20101013.101134	8	0.011766	60	0	60-180	60	112	GapExp	0	78	2	0	0	distractor	1	555	723	383548	11.765	11.755	11.777
ProbeTrack12	1	ProbeTrack	11.3	WolfelabSpurzheim	20101013.100205	20101013.101140	8	0.011766	60	10	60-180	60	170	GapExp	0	79	2	0	0	distractor	1	496	752	384300	11.765	11.752	11.785
ProbeTrack12	1	ProbeTrack	11.3	WolfelabSpurzheim	20101013.100205	20101013.101146	8	0.011766	60	10	60-180	60	81	GapExp	0	80	2	3	0	distractor	1	391	805	385105	11.765	11.755	11.777
ProbeTrack12	1	ProbeTrack	11.3	WolfelabSpurzheim	20101013.100205	20101013.101151	8	0.011766	60	10	60-180	60	153	GapExp	0	81	2	1	0	distractor	1	426	787	385892	11.765	11.752	11.777
ProbeTrack12	1	ProbeTrack	11.3	WolfelabSpurzheim	20101013.100205	20101013.101157	8	0.011766	60	0	60-180	60	111	GapExp	0	82	2	3	0	distractor	1	473	764	386656	11.765	11.755	11.776
ProbeTrack12	1	ProbeTrack	11.3	WolfelabSpurzheim	20101013.100205	20101013.101203	8	0.011766	60	10	60-180	60	109	GapExp	0	83	2	1	0	distractor	1	367	817	387473	11.765	11.754	11.776
ProbeTrack12	1	ProbeTrack	11.3	WolfelabSpurzheim	20101013.100205	20101013.101209	8	0.011766	60	10	60-180	60	123	GapExp	0	84	2	0	1	target	1	437	782	388255	11.765	11.754	11.776
ProbeTrack12	1	ProbeTrack	11.3	WolfelabSpurzheim	20101013.100205	20101013.101215	8	0.011766	60	0	60-180	60	160	GapExp	0	85	2	45	1	target	1	284	858	389113	11.765	11.755	11.777
ProbeTrack12	1	ProbeTrack	11.3	WolfelabSpurzheim	20101013.100205	20101013.101240	8	0.011766	60	0	60-180	60	176	GapExp	0	86	2	45	0	distractor	1	438	781	389894	11.765	11.741	11.797
ProbeTrack12	1	ProbeTrack	11.3	WolfelabSpurzheim	20101013.100205	20101013.101247	8	0.011766	60	0	60-180	60	137	GapExp	0	87	2	1	0	distractor	1	461	770	390664	11.765	11.741	11.795
ProbeTrack12	1	ProbeTrack	11.3	WolfelabSpurzheim	20101013.100205	20101013.101253	8	0.011766	60	10	60-180	60	154	GapExp	0	88	2	1	0	distractor	1	438	781	391445	11.765	11.728	11.799
ProbeTrack12	1	ProbeTrack	11.3	WolfelabSpurzheim	20101013.100205	20101013.101259	8	0.011766	60	10	60-180	60	99	GapExp	0	89	2	0	0	distractor	1	484	758	392203	11.765	11.754	11.776
ProbeTrack12	1	ProbeTrack	11.3	WolfelabSpurzheim	20101013.100205	20101013.101304	8	0.011766	60	0	60-180	60	77	GapExp	0	90	2	1	0	distractor	1	390	805	393008	11.765	11.755	11.776
ProbeTrack12	1	ProbeTrack	11.3	WolfelabSpurzheim	20101013.100205	20101013.101309	8	0.011766	60	10	60-180	60	76	GapExp	0	91	2	0	0	distractor	1	485	758	393766	11.765	11.754	11.776
ProbeTrack12	1	ProbeTrack	11.3	WolfelabSpurzheim	20101013.100205	20101013.101315	8	0.011766	60	10	60-180	60	85	GapExp	0	92	2	1	1	target	1	402	799	394565	11.765	11.754	11.775
ProbeTrack12	1	ProbeTrack	11.3	WolfelabSpurzheim	20101013.100205	20101013.101320	8	0.011766	60	10	60-180	60	172	GapExp	0	93	2	1	1	target	1	296	852	395417	11.765	11.740	11.796
ProbeTrack12	1	ProbeTrack	11.3	WolfelabSpurzheim	20101013.100205	20101013.101326	8	0.011766	60	0	60-180	60	88	GapExp	0	94	2	3	0	target	0	355	-1000	394417	11.765	11.753	11.776
ProbeTrack12	1	ProbeTrack	11.3	WolfelabSpurzheim	20101013.100205	20101013.101331	8	0.011766	60	10	60-180	60	133	GapExp	0	95	2	0	1	target	1	367	817	395234	11.765	11.754	11.776
ProbeTrack12	1	ProbeTrack	11.3	WolfelabSpurzheim	20101013.100205	20101013.101337	8	0.011766	60	0	60-180	60	121	GapExp	0	96	2	45	0	distractor	1	508	746	395980	11.765	11.753	11.777
ProbeTrack12	1	ProbeTrack	11.3	WolfelabSpurzheim	20101013.100205	20101013.101343	8	0.011766	60	0	60-180	60	164	GapExp	0	97	2	0	1	target	1	426	787	396767	11.765	11.753	11.777
ProbeTrack12	1	ProbeTrack	11.3	WolfelabSpurzheim	20101013.100205	20101013.101350	8	0.011766	60	0	60-180	60	118	GapExp	0	98	2	3	0	distractor	1	473	764	397531	11.765	11.754	11.776
ProbeTrack12	1	ProbeTrack	11.3	WolfelabSpurzheim	20101013.100205	20101013.101355	8	0.011766	60	10	60-180	60	152	GapExp	0	99	2	0	1	target	1	602	699	398230	11.765	11.754	11.776
ProbeTrack12	1	ProbeTrack	11.3	WolfelabSpurzheim	20101013.100205	20101013.101402	8	0.011766	60	10	60-180	60	169	GapExp	0	100	2	3	0	distractor	1	414	793	399023	11.765	11.755	11.776
ProbeTrack12	1	ProbeTrack	11.3	WolfelabSpurzheim	20101013.100205	20101013.101409	8	0.011766	60	0	60-180	60	123	GapExp	0	101	2	1	1	target	1	402	799	399822	11.765	11.746	11.779
ProbeTrack12	1	ProbeTrack	11.3	WolfelabSpurzheim	20101013.100205	20101013.101414	8	0.011766	60	0	60-180	60	78	GapExp	0	102	2	0	1	target	1	414	793	400615	11.765	11.753	11.777
ProbeTrack12	1	ProbeTrack	11.3	WolfelabSpurzheim	20101013.100205	20101013.101420	8	0.011766	60	0	60-180	60	134	GapExp	0	103	2	45	1	target	1	473	764	401379	11.765	11.753	11.778
ProbeTrack12	1	ProbeTrack	11.3	WolfelabSpurzheim	20101013.100205	20101013.101427	8	0.011766	60	0	60-180	60	75	GapExp	0	104	2	3	1	target	1	343	829	402208	11.765	11.753	11.778
ProbeTrack12	1	ProbeTrack	11.3	WolfelabSpurzheim	20101013.100205	20101013.101433	8	0.011766	60	0	60-180	60	137	GapExp	0	105	2	0	1	target	1	320	840	403048	11.765	11.753	11.777
ProbeTrack12	1	ProbeTrack	11.3	WolfelabSpurzheim	20101013.100205	20101013.101438	8	0.011766	60	10	60-180	60	163	GapExp	0	106	2	3	1	target	1	308	846	403894	11.765	11.754	11.777
ProbeTrack12	1	ProbeTrack	11.3	WolfelabSpurzheim	20101013.100205	20101013.101445	8	0.011766	60	10	60-180	60	83	GapExp	0	107	2	0	0	distractor	1	426	787	404681	11.765	11.753	11.775
ProbeTrack12	1	ProbeTrack	11.3	WolfelabSpurzheim	20101013.100205	20101013.101450	8	0.011766	60	0	60-180	60	112	GapExp	0	108	2	45	0	distractor	1	426	787	405468	11.765	11.753	11.777
ProbeTrack12	1	ProbeTrack	11.3	WolfelabSpurzheim	20101013.100205	20101013.101456	8	0.011766	60	0	60-180	60	74	GapExp	0	109	2	0	1	target	1	438	781	406249	11.765	11.755	11.776
ProbeTrack12	1	ProbeTrack	11.3	WolfelabSpurzheim	20101013.100205	20101013.101501	8	0.011766	60	10	60-180	60	130	GapExp	0	110	2	0	1	target	1	273	864	407113	11.765	11.755	11.777
ProbeTrack12	1	ProbeTrack	11.3	WolfelabSpurzheim	20101013.100205	20101013.101507	8	0.011766	60	0	60-180	60	125	GapExp	0	111	2	45	0	distractor	1	403	799	407912	11.765	11.754	11.776
ProbeTrack12	1	ProbeTrack	11.3	WolfelabSpurzheim	20101013.100205	20101013.101513	8	0.011766	60	10	60-180	60	95	GapExp	0	112	2	1	0	distractor	1	544	728	408640	11.765	11.754	11.776
ProbeTrack12	1	ProbeTrack	11.3	WolfelabSpurzheim	20101013.100205	20101013.101518	8	0.011766	60	0	60-180	60	121	GapExp	0	113	2	1	0	distractor	1	449	776	409416	11.765	11.755	11.776
ProbeTrack12	1	ProbeTrack	11.3	WolfelabSpurzheim	20101013.100205	20101013.101524	8	0.011766	60	10	60-180	60	129	GapExp	0	114	2	1	0	distractor	1	379	811	410227	11.765	11.750	11.776
ProbeTrack12	1	ProbeTrack	11.3	WolfelabSpurzheim	20101013.100205	20101013.101530	8	0.011766	60	0	60-180	60	100	GapExp	0	115	2	45	0	distractor	1	473	764	410991	11.765	11.754	11.777
ProbeTrack12	1	ProbeTrack	11.3	WolfelabSpurzheim	20101013.100205	20101013.101536	8	0.011766	60	10	60-180	60	139	GapExp	0	116	2	0	0	distractor	1	355	823	411814	11.765	11.756	11.775
ProbeTrack12	1	ProbeTrack	11.3	WolfelabSpurzheim	20101013.100205	20101013.101544	8	0.011766	60	10	60-180	60	133	GapExp	0	117	2	0	0	distractor	1	367	817	412631	11.765	11.755	11.777
ProbeTrack12	1	ProbeTrack	11.3	WolfelabSpurzheim	20101013.100205	20101013.101550	8	0.011766	60	0	60-180	60	110	GapExp	0	118	2	0	1	target	1	508	746	413377	11.765	11.754	11.775
ProbeTrack12	1	ProbeTrack	11.3	WolfelabSpurzheim	20101013.100205	20101013.101555	8	0.011766	60	0	60-180	60	155	GapExp	0	119	2	1	1	target	1	438	781	414158	11.765	11.753	11.775
ProbeTrack12	1	ProbeTrack	11.3	WolfelabSpurzheim	20101013.100205	20101013.101601	8	0.011766	60	10	60-180	60	88	GapExp	0	120	2	3	0	distractor	1	437	782	414940	11.765	11.753	11.777
ProbeTrack12	1	ProbeTrack	11.3	WolfelabSpurzheim	20101013.100205	20101013.101606	8	0.011766	60	0	60-180	60	140	GapExp	0	121	2	1	0	distractor	1	520	740	415680	11.765	11.753	11.777
ProbeTrack12	1	ProbeTrack	11.3	WolfelabSpurzheim	20101013.100205	20101013.101612	8	0.011766	60	0	60-180	60	74	GapExp	0	122	2	1	1	target	1	497	752	416432	11.765	11.757	11.777
ProbeTrack12	1	ProbeTrack	11.3	WolfelabSpurzheim	20101013.100205	20101013.101617	8	0.011766	60	0	60-180	60	122	GapExp	0	123	2	0	1	target	1	273	864	417296	11.765	11.754	11.775
ProbeTrack12	1	ProbeTrack	11.3	WolfelabSpurzheim	20101013.100205	20101013.101623	8	0.011766	60	0	60-180	60	131	GapExp	0	124	2	1	0	distractor	1	379	811	418107	11.765	11.754	11.775
ProbeTrack12	1	ProbeTrack	11.3	WolfelabSpurzheim	20101013.100205	20101013.101628	8	0.011766	60	10	60-180	60	176	GapExp	0	125	2	1	1	distractor	0	179	-1000	417107	11.765	11.754	11.775
ProbeTrack12	1	ProbeTrack	11.3	WolfelabSpurzheim	20101013.100205	20101013.101634	8	0.011766	60	10	60-180	60	87	GapExp	0	126	2	0	1	target	1	320	840	417947	11.765	11.754	11.777
ProbeTrack12	1	ProbeTrack	11.3	WolfelabSpurzheim	20101013.100205	20101013.101640	8	0.011766	60	10	60-180	60	129	GapExp	0	127	2	45	0	distractor	1	403	799	418746	11.765	11.753	11.776
ProbeTrack12	1	ProbeTrack	11.3	WolfelabSpurzheim	20101013.100205	20101013.101646	8	0.011766	60	10	60-180	60	82	GapExp	0	128	2	1	0	distractor	1	402	799	419545	11.765	11.753	11.777
ProbeTrack12	1	ProbeTrack	11.3	WolfelabSpurzheim	20101013.100205	20101013.101651	8	0.011766	60	0	60-180	60	69	GapExp	0	129	2	1	0	target	0	426	-1000	418545	11.765	11.753	11.776
ProbeTrack12	1	ProbeTrack	11.3	WolfelabSpurzheim	20101013.100205	20101013.101656	8	0.011766	60	0	60-180	60	126	GapExp	0	130	2	3	1	target	1	320	840	419385	11.765	11.754	11.776
ProbeTrack12	1	ProbeTrack	11.3	WolfelabSpurzheim	20101013.100205	20101013.101703	8	0.011766	60	0	60-180	60	104	GapExp	0	131	2	1	1	target	1	414	793	420178	11.765	11.743	11.786
ProbeTrack12	1	ProbeTrack	11.3	WolfelabSpurzheim	20101013.100205	20101013.101708	8	0.011766	60	0	60-180	60	126	GapExp	0	132	2	3	0	distractor	1	485	758	420936	11.765	11.754	11.775
ProbeTrack12	1	ProbeTrack	11.3	WolfelabSpurzheim	20101013.100205	20101013.101713	8	0.011766	60	0	60-180	60	144	GapExp	0	133	2	45	0	distractor	1	343	829	421765	11.765	11.754	11.776
ProbeTrack12	1	ProbeTrack	11.3	WolfelabSpurzheim	20101013.100205	20101013.101724	8	0.011766	60	0	60-180	60	75	GapExp	0	134	2	1	1	target	1	402	799	422564	11.765	11.754	11.779
ProbeTrack12	1	ProbeTrack	11.3	WolfelabSpurzheim	20101013.100205	20101013.101729	8	0.011766	60	0	60-180	60	167	GapExp	0	135	2	0	0	distractor	1	520	740	423304	11.765	11.752	11.777
ProbeTrack12	1	ProbeTrack	11.3	WolfelabSpurzheim	20101013.100205	20101013.101735	8	0.011766	60	10	60-180	60	126	GapExp	0	136	2	3	1	target	1	284	858	424162	11.765	11.755	11.775
ProbeTrack12	1	ProbeTrack	11.3	WolfelabSpurzheim	20101013.100205	20101013.101800	8	0.011766	60	10	60-180	60	177	GapExp	0	137	2	45	0	distractor	1	496	752	424914	11.765	11.752	11.776
ProbeTrack12	1	ProbeTrack	11.3	WolfelabSpurzheim	20101013.100205	20101013.101807	8	0.011766	60	10	60-180	60	79	GapExp	0	138	2	45	1	target	1	438	781	425695	11.765	11.750	11.788
ProbeTrack12	1	ProbeTrack	11.3	WolfelabSpurzheim	20101013.100205	20101013.101813	8	0.011766	60	10	60-180	60	122	GapExp	0	139	2	45	1	target	1	320	840	426535	11.765	11.755	11.776
ProbeTrack12	1	ProbeTrack	11.3	WolfelabSpurzheim	20101013.100205	20101013.101819	8	0.011766	60	0	60-180	60	112	GapExp	0	140	2	0	0	distractor	1	520	740	427275	11.765	11.753	11.777
ProbeTrack12	1	ProbeTrack	11.3	WolfelabSpurzheim	20101013.100205	20101013.101824	8	0.011766	60	0	60-180	60	163	GapExp	0	141	2	0	0	distractor	1	496	752	428027	11.765	11.753	11.780
ProbeTrack12	1	ProbeTrack	11.3	WolfelabSpurzheim	20101013.100205	20101013.101831	8	0.011766	60	0	60-180	60	124	GapExp	0	142	2	0	1	target	1	320	840	428867	11.765	11.754	11.776
ProbeTrack12	1	ProbeTrack	11.3	WolfelabSpurzheim	20101013.100205	20101013.101931	8	0.011766	60	10	60-180	60	143	GapExp	0	143	2	45	1	target	1	355	823	429690	11.765	11.753	11.776
ProbeTrack12	1	ProbeTrack	11.3	WolfelabSpurzheim	20101013.100205	20101013.101937	8	0.011766	60	10	60-180	60	98	GapExp	0	144	2	1	1	target	1	296	852	430542	11.765	11.754	11.776
ProbeTrack12	1	ProbeTrack	11.3	WolfelabSpurzheim	20101013.100205	20101013.101942	8	0.011766	60	10	60-180	60	156	GapExp	0	145	2	45	0	distractor	1	532	734	431276	11.765	11.755	11.775
ProbeTrack12	1	ProbeTrack	11.3	WolfelabSpurzheim	20101013.100205	20101013.101949	8	0.011766	60	10	60-180	60	147	GapExp	0	146	2	3	0	distractor	1	414	793	432069	11.765	11.754	11.776
ProbeTrack12	1	ProbeTrack	11.3	WolfelabSpurzheim	20101013.100205	20101013.101955	8	0.011766	60	0	60-180	60	128	GapExp	0	147	2	1	1	target	1	17202	0	432069	11.765	11.754	11.776
ProbeTrack12	1	ProbeTrack	11.3	WolfelabSpurzheim	20101013.100205	20101013.102017	8	0.011766	60	10	60-180	60	173	GapExp	0	148	2	0	0	distractor	1	461	770	432839	11.765	11.755	11.776
ProbeTrack12	1	ProbeTrack	11.3	WolfelabSpurzheim	20101013.100205	20101013.102029	8	0.011766	60	0	60-180	60	113	GapExp	0	149	2	0	0	distractor	1	473	764	433603	11.765	11.753	11.776
ProbeTrack12	1	ProbeTrack	11.3	WolfelabSpurzheim	20101013.100205	20101013.102034	8	0.011766	60	0	60-180	60	131	GapExp	0	150	2	0	1	target	1	308	846	434449	11.765	11.753	11.777
ProbeTrack12	1	ProbeTrack	11.3	WolfelabSpurzheim	20101013.100205	20101013.102039	8	0.011766	60	10	60-180	60	101	GapExp	0	151	2	45	0	distractor	1	414	793	435242	11.765	11.754	11.777
ProbeTrack12	1	ProbeTrack	11.3	WolfelabSpurzheim	20101013.100205	20101013.102045	8	0.011766	60	0	60-180	60	107	GapExp	0	152	2	0	1	target	1	367	817	436059	11.765	11.754	11.776
ProbeTrack12	1	ProbeTrack	11.3	WolfelabSpurzheim	20101013.100205	20101013.102050	8	0.011766	60	10	60-180	60	164	GapExp	0	153	2	3	1	target	1	402	799	436858	11.765	11.754	11.776
ProbeTrack12	1	ProbeTrack	11.3	WolfelabSpurzheim	20101013.100205	20101013.102056	8	0.011766	60	0	60-180	60	165	GapExp	0	154	2	45	0	distractor	1	391	805	437663	11.765	11.752	11.777
ProbeTrack12	1	ProbeTrack	11.3	WolfelabSpurzheim	20101013.100205	20101013.102103	8	0.011766	60	0	60-180	60	96	GapExp	0	155	2	1	1	target	1	426	787	438450	11.765	11.754	11.776
ProbeTrack12	1	ProbeTrack	11.3	WolfelabSpurzheim	20101013.100205	20101013.102108	8	0.011766	60	10	60-180	60	175	GapExp	0	156	2	3	1	target	1	391	805	439255	11.765	11.753	11.775
ProbeTrack12	1	ProbeTrack	11.3	WolfelabSpurzheim	20101013.100205	20101013.102114	8	0.011766	60	10	60-180	60	89	GapExp	0	157	2	45	1	target	1	320	840	440095	11.765	11.754	11.776
ProbeTrack12	1	ProbeTrack	11.3	WolfelabSpurzheim	20101013.100205	20101013.102120	8	0.011766	60	10	60-180	60	168	GapExp	0	158	2	0	0	target	0	449	-1000	439095	11.765	11.753	11.777
ProbeTrack12	1	ProbeTrack	11.3	WolfelabSpurzheim	20101013.100205	20101013.102126	8	0.011766	60	10	60-180	60	150	GapExp	0	159	2	3	1	target	1	414	793	439888	11.765	11.754	11.777
ProbeTrack12	1	ProbeTrack	11.3	WolfelabSpurzheim	20101013.100205	20101013.102134	8	0.011766	60	10	60-180	60	131	GapExp	0	160	2	45	0	distractor	1	567	717	440605	11.765	11.754	11.776
ProbeTrack12	1	ProbeTrack	11.3	WolfelabSpurzheim	20101013.100205	20101013.102141	8	0.011766	60	0	60-180	60	151	GapExp	0	161	2	45	1	distractor	0	391	-1000	439605	11.765	11.754	11.777
ProbeTrack12	1	ProbeTrack	11.3	WolfelabSpurzheim	20101013.100205	20101013.102147	8	0.011766	60	0	60-180	60	94	GapExp	0	162	2	3	0	distractor	1	814	593	440198	11.765	11.743	11.780
ProbeTrack12	1	ProbeTrack	11.3	WolfelabSpurzheim	20101013.100205	20101013.102152	8	0.011766	60	10	60-180	60	138	GapExp	0	163	2	3	0	distractor	1	320	840	441038	11.765	11.753	11.776
ProbeTrack12	1	ProbeTrack	11.3	WolfelabSpurzheim	20101013.100205	20101013.102158	8	0.011766	60	0	60-180	60	63	GapExp	0	164	2	45	1	target	1	414	793	441831	11.765	11.754	11.777
ProbeTrack12	1	ProbeTrack	11.3	WolfelabSpurzheim	20101013.100205	20101013.102203	8	0.011766	60	10	60-180	60	143	GapExp	0	165	2	3	1	target	1	320	840	442671	11.765	11.754	11.776
ProbeTrack12	1	ProbeTrack	11.3	WolfelabSpurzheim	20101013.100205	20101013.102208	8	0.011766	60	10	60-180	60	99	GapExp	0	166	2	1	0	distractor	1	496	752	443423	11.765	11.755	11.776
ProbeTrack12	1	ProbeTrack	11.3	WolfelabSpurzheim	20101013.100205	20101013.102214	8	0.011766	60	0	60-180	60	83	GapExp	0	167	2	45	0	distractor	1	450	775	444198	11.765	11.753	11.776
ProbeTrack12	1	ProbeTrack	11.3	WolfelabSpurzheim	20101013.100205	20101013.102219	8	0.011766	60	10	60-180	60	83	GapExp	0	168	2	0	1	target	1	343	829	445027	11.765	11.755	11.776
ProbeTrack12	1	ProbeTrack	11.3	WolfelabSpurzheim	20101013.100205	20101013.102224	8	0.011766	60	10	60-180	60	159	GapExp	0	169	2	3	1	target	1	402	799	445826	11.765	11.755	11.777
ProbeTrack12	1	ProbeTrack	11.3	WolfelabSpurzheim	20101013.100205	20101013.102231	8	0.011766	60	10	60-180	60	153	GapExp	0	170	2	3	1	target	1	367	817	446643	11.765	11.754	11.777
ProbeTrack12	1	ProbeTrack	11.3	WolfelabSpurzheim	20101013.100205	20101013.102238	8	0.011766	60	10	60-180	60	149	GapExp	0	171	2	3	0	distractor	1	450	775	447418	11.765	11.755	11.777
ProbeTrack12	1	ProbeTrack	11.3	WolfelabSpurzheim	20101013.100205	20101013.102244	8	0.011766	60	0	60-180	60	134	GapExp	0	172	2	45	1	target	1	344	828	448246	11.765	11.755	11.777
ProbeTrack12	1	ProbeTrack	11.3	WolfelabSpurzheim	20101013.100205	20101013.102251	8	0.011766	60	0	60-180	60	150	GapExp	0	173	2	1	1	distractor	0	320	-1000	447246	11.765	11.753	11.775
ProbeTrack12	1	ProbeTrack	11.3	WolfelabSpurzheim	20101013.100205	20101013.102257	8	0.011766	60	10	60-180	60	113	GapExp	0	174	2	3	0	distractor	1	837	582	447828	11.765	11.753	11.777
ProbeTrack12	1	ProbeTrack	11.3	WolfelabSpurzheim	20101013.100205	20101013.102304	8	0.011766	60	10	60-180	60	163	GapExp	0	175	2	45	0	distractor	1	473	764	448592	11.765	11.754	11.777
ProbeTrack12	1	ProbeTrack	11.3	WolfelabSpurzheim	20101013.100205	20101013.102311	8	0.011766	60	0	60-180	60	131	GapExp	0	176	2	0	0	distractor	1	426	787	449379	11.765	11.753	11.776
ProbeTrack12	1	ProbeTrack	11.3	WolfelabSpurzheim	20101013.100205	20101013.102317	8	0.011766	60	0	60-180	60	92	GapExp	0	177	2	45	1	target	1	602	699	450078	11.765	11.754	11.777
ProbeTrack12	1	ProbeTrack	11.3	WolfelabSpurzheim	20101013.100205	20101013.102323	8	0.011766	60	0	60-180	60	142	GapExp	0	178	2	3	0	distractor	1	673	664	450742	11.765	11.754	11.775
ProbeTrack12	1	ProbeTrack	11.3	WolfelabSpurzheim	20101013.100205	20101013.102329	8	0.011766	60	10	60-180	60	173	GapExp	0	179	2	45	0	distractor	1	673	664	451406	11.765	11.754	11.776
ProbeTrack12	1	ProbeTrack	11.3	WolfelabSpurzheim	20101013.100205	20101013.102340	8	0.011766	60	10	60-180	60	178	GapExp	0	180	2	3	1	target	1	367	817	452223	11.765	11.754	11.778
ProbeTrack12	1	ProbeTrack	11.3	WolfelabSpurzheim	20101013.100205	20101013.102346	8	0.011766	60	10	60-180	60	106	GapExp	0	181	2	3	1	target	1	414	793	453016	11.765	11.748	11.777
ProbeTrack12	1	ProbeTrack	11.3	WolfelabSpurzheim	20101013.100205	20101013.102352	8	0.011766	60	10	60-180	60	102	GapExp	0	182	2	0	0	target	0	1496	-1000	452016	11.765	11.754	11.776
ProbeTrack12	1	ProbeTrack	11.3	WolfelabSpurzheim	20101013.100205	20101013.102359	8	0.011766	60	0	60-180	60	137	GapExp	0	183	2	3	1	target	1	402	799	452815	11.765	11.755	11.776
ProbeTrack12	1	ProbeTrack	11.3	WolfelabSpurzheim	20101013.100205	20101013.102404	8	0.011766	60	0	60-180	60	90	GapExp	0	184	2	3	0	distractor	1	449	776	453591	11.765	11.754	11.777
ProbeTrack12	1	ProbeTrack	11.3	WolfelabSpurzheim	20101013.100205	20101013.102410	8	0.011766	60	10	60-180	60	125	GapExp	0	185	2	3	0	distractor	1	332	834	454425	11.765	11.754	11.776
ProbeTrack12	1	ProbeTrack	11.3	WolfelabSpurzheim	20101013.100205	20101013.102415	8	0.011766	60	0	60-180	60	121	GapExp	0	186	2	3	0	distractor	1	509	746	455171	11.765	11.754	11.776
ProbeTrack12	1	ProbeTrack	11.3	WolfelabSpurzheim	20101013.100205	20101013.102421	8	0.011766	60	0	60-180	60	169	GapExp	0	187	2	45	0	distractor	1	367	817	455988	11.765	11.754	11.776
ProbeTrack12	1	ProbeTrack	11.3	WolfelabSpurzheim	20101013.100205	20101013.102427	8	0.011766	60	10	60-180	60	106	GapExp	0	188	2	0	1	target	1	543	729	456717	11.765	11.753	11.776
ProbeTrack12	1	ProbeTrack	11.3	WolfelabSpurzheim	20101013.100205	20101013.102434	8	0.011766	60	0	60-180	60	72	GapExp	0	189	2	45	1	target	1	379	811	457528	11.765	11.754	11.777
ProbeTrack12	1	ProbeTrack	11.3	WolfelabSpurzheim	20101013.100205	20101013.102440	8	0.011766	60	0	60-180	60	176	GapExp	0	190	2	1	1	target	1	273	864	458392	11.765	11.753	11.776
ProbeTrack12	1	ProbeTrack	11.3	WolfelabSpurzheim	20101013.100205	20101013.102447	8	0.011766	60	0	60-180	60	113	GapExp	0	191	2	0	0	distractor	1	402	799	459191	11.765	11.754	11.776
ProbeTrack12	1	ProbeTrack	11.3	WolfelabSpurzheim	20101013.100205	20101013.102452	8	0.011766	60	0	60-180	60	73	GapExp	0	192	2	45	1	target	1	426	787	459978	11.765	11.745	11.782
ProbeTrack12	1	ProbeTrack	11.3	WolfelabSpurzheim	20101013.100205	20101013.102457	8	0.011766	60	0	60-180	60	173	GapExp	0	193	2	3	0	distractor	1	343	829	460807	11.765	11.753	11.776
ProbeTrack12	1	ProbeTrack	11.3	WolfelabSpurzheim	20101013.100205	20101013.102504	8	0.011766	60	10	60-180	60	106	GapExp	0	194	2	1	1	distractor	0	332	-1000	459807	11.765	11.755	11.776
ProbeTrack12	1	ProbeTrack	11.3	WolfelabSpurzheim	20101013.100205	20101013.102509	8	0.011766	60	10	60-180	60	157	GapExp	0	195	2	0	0	distractor	1	473	764	460571	11.765	11.754	11.776
ProbeTrack12	1	ProbeTrack	11.3	WolfelabSpurzheim	20101013.100205	20101013.102515	8	0.011766	60	10	60-180	60	119	GapExp	0	196	2	1	1	target	1	450	775	461346	11.765	11.753	11.776
ProbeTrack12	1	ProbeTrack	11.3	WolfelabSpurzheim	20101013.100205	20101013.102521	8	0.011766	60	0	60-180	60	175	GapExp	0	197	2	45	1	distractor	0	508	-1000	460346	11.765	11.753	11.776
ProbeTrack12	1	ProbeTrack	11.3	WolfelabSpurzheim	20101013.100205	20101013.102527	8	0.011766	60	10	60-180	60	166	GapExp	0	198	2	0	0	distractor	1	437	782	461128	11.765	11.754	11.776
ProbeTrack12	1	ProbeTrack	11.3	WolfelabSpurzheim	20101013.100205	20101013.102533	8	0.011766	60	10	60-180	60	128	GapExp	0	199	2	0	0	distractor	1	496	752	461880	11.765	11.753	11.777
ProbeTrack12	1	ProbeTrack	11.3	WolfelabSpurzheim	20101013.100205	20101013.102539	8	0.011766	60	0	60-180	60	127	GapExp	0	200	2	0	0	distractor	1	649	676	462556	11.765	11.752	11.776
ProbeTrack12	1	ProbeTrack	11.3	WolfelabSpurzheim	20101013.100205	20101013.102545	8	0.011766	60	0	60-180	60	104	GapExp	0	201	2	0	0	distractor	1	402	799	463355	11.765	11.753	11.775
ProbeTrack12	1	ProbeTrack	11.3	WolfelabSpurzheim	20101013.100205	20101013.102559	8	0.011766	60	0	60-180	60	158	GapExp	0	202	2	1	1	target	1	309	846	464201	11.765	11.755	11.776
ProbeTrack12	1	ProbeTrack	11.3	WolfelabSpurzheim	20101013.100205	20101013.102605	8	0.011766	60	0	60-180	60	178	GapExp	0	203	2	3	1	target	1	379	811	465012	11.765	11.753	11.776
ProbeTrack12	1	ProbeTrack	11.3	WolfelabSpurzheim	20101013.100205	20101013.102611	8	0.011766	60	10	60-180	60	154	GapExp	0	204	2	1	0	distractor	1	461	770	465782	11.765	11.753	11.777
ProbeTrack12	1	ProbeTrack	11.3	WolfelabSpurzheim	20101013.100205	20101013.102617	8	0.011766	60	0	60-180	60	122	GapExp	0	205	2	1	0	distractor	1	602	699	466481	11.765	11.750	11.778
ProbeTrack12	1	ProbeTrack	11.3	WolfelabSpurzheim	20101013.100205	20101013.102623	8	0.011766	60	0	60-180	60	119	GapExp	0	206	2	3	1	target	1	426	787	467268	11.765	11.754	11.776
ProbeTrack12	1	ProbeTrack	11.3	WolfelabSpurzheim	20101013.100205	20101013.102628	8	0.011766	60	0	60-180	60	149	GapExp	0	207	2	1	1	target	1	367	817	468085	11.765	11.755	11.778
ProbeTrack12	1	ProbeTrack	11.3	WolfelabSpurzheim	20101013.100205	20101013.102634	8	0.011766	60	10	60-180	60	61	GapExp	0	208	2	1	1	target	1	391	805	468890	11.765	11.741	11.795
ProbeTrack12	1	ProbeTrack	11.3	WolfelabSpurzheim	20101013.100205	20101013.102640	8	0.011766	60	0	60-180	60	158	GapExp	0	209	2	45	1	target	1	296	852	469742	11.765	11.754	11.777
ProbeTrack12	1	ProbeTrack	11.3	WolfelabSpurzheim	20101013.100205	20101013.102647	8	0.011766	60	0	60-180	60	154	GapExp	0	210	2	1	0	distractor	1	673	664	470406	11.765	11.748	11.787
ProbeTrack12	1	ProbeTrack	11.3	WolfelabSpurzheim	20101013.100205	20101013.102653	8	0.011766	60	10	60-180	60	173	GapExp	0	211	2	3	0	distractor	1	414	793	471199	11.765	11.753	11.777
ProbeTrack12	1	ProbeTrack	11.3	WolfelabSpurzheim	20101013.100205	20101013.102659	8	0.011766	60	0	60-180	60	167	GapExp	0	212	2	45	1	target	1	343	829	472028	11.765	11.728	11.804
ProbeTrack12	1	ProbeTrack	11.3	WolfelabSpurzheim	20101013.100205	20101013.102709	8	0.011766	60	0	60-180	60	77	GapExp	0	213	2	3	1	target	1	402	799	472827	11.765	11.754	11.777
ProbeTrack12	1	ProbeTrack	11.3	WolfelabSpurzheim	20101013.100205	20101013.102714	8	0.011766	60	0	60-180	60	154	GapExp	0	214	2	0	0	distractor	1	390	805	473632	11.765	11.754	11.775
ProbeTrack12	1	ProbeTrack	11.3	WolfelabSpurzheim	20101013.100205	20101013.102720	8	0.011766	60	0	60-180	60	122	GapExp	0	215	2	1	0	distractor	1	426	787	474419	11.765	11.751	11.780
ProbeTrack12	1	ProbeTrack	11.3	WolfelabSpurzheim	20101013.100205	20101013.102725	8	0.011766	60	0	60-180	60	175	GapExp	0	216	2	1	1	target	1	731	635	475054	11.765	11.754	11.777
ProbeTrack12	1	ProbeTrack	11.3	WolfelabSpurzheim	20101013.100205	20101013.102733	8	0.011766	60	10	60-180	60	107	GapExp	0	217	2	3	0	distractor	1	332	834	475888	11.765	11.745	11.786
ProbeTrack12	1	ProbeTrack	11.3	WolfelabSpurzheim	20101013.100205	20101013.102747	8	0.011766	60	10	60-180	60	82	GapExp	0	218	2	45	1	target	1	438	781	476669	11.765	11.736	11.805
ProbeTrack12	1	ProbeTrack	11.3	WolfelabSpurzheim	20101013.100205	20101013.102753	8	0.011766	60	0	60-180	60	63	GapExp	0	219	2	0	0	distractor	1	461	770	477439	11.765	11.754	11.776
ProbeTrack12	1	ProbeTrack	11.3	WolfelabSpurzheim	20101013.100205	20101013.102758	8	0.011766	60	0	60-180	60	148	GapExp	0	220	2	45	0	distractor	1	449	776	478215	11.765	11.748	11.777
ProbeTrack12	1	ProbeTrack	11.3	WolfelabSpurzheim	20101013.100205	20101013.102804	8	0.011766	60	0	60-180	60	167	GapExp	0	221	2	0	0	distractor	1	520	740	478955	11.765	11.719	11.814
ProbeTrack12	1	ProbeTrack	11.3	WolfelabSpurzheim	20101013.100205	20101013.102810	8	0.011766	60	0	60-180	60	89	GapExp	0	222	2	45	0	distractor	1	426	787	479742	11.765	11.755	11.776
ProbeTrack12	1	ProbeTrack	11.3	WolfelabSpurzheim	20101013.100205	20101013.102816	8	0.011766	60	0	60-180	60	180	GapExp	0	223	2	3	1	target	1	285	858	480600	11.765	11.753	11.777
ProbeTrack12	1	ProbeTrack	11.3	WolfelabSpurzheim	20101013.100205	20101013.102822	8	0.011766	60	0	60-180	60	62	GapExp	0	224	2	3	0	distractor	1	426	787	481387	11.765	11.742	11.792
ProbeTrack12	1	ProbeTrack	11.3	WolfelabSpurzheim	20101013.100205	20101013.102826	8	0.011766	60	0	60-180	60	137	GapExp	0	225	2	45	0	distractor	1	450	775	482162	11.765	11.754	11.775
ProbeTrack12	1	ProbeTrack	11.3	WolfelabSpurzheim	20101013.100205	20101013.102833	8	0.011766	60	0	60-180	60	75	GapExp	0	226	2	3	1	target	1	790	605	482767	11.765	11.752	11.777
ProbeTrack12	1	ProbeTrack	11.3	WolfelabSpurzheim	20101013.100205	20101013.102838	8	0.011766	60	0	60-180	60	177	GapExp	0	227	2	1	0	distractor	1	379	811	483578	11.765	11.753	11.776
ProbeTrack12	1	ProbeTrack	11.3	WolfelabSpurzheim	20101013.100205	20101013.102845	8	0.011766	60	10	60-180	60	111	GapExp	0	228	2	45	0	target	0	884	-1000	482578	11.765	11.753	11.776
ProbeTrack12	1	ProbeTrack	11.3	WolfelabSpurzheim	20101013.100205	20101013.102851	8	0.011766	60	0	60-180	60	138	GapExp	0	229	2	0	1	target	1	355	823	483401	11.765	11.754	11.775
ProbeTrack12	1	ProbeTrack	11.3	WolfelabSpurzheim	20101013.100205	20101013.102857	8	0.011766	60	0	60-180	60	100	GapExp	0	230	2	3	1	target	1	379	811	484212	11.765	11.755	11.776
ProbeTrack12	1	ProbeTrack	11.3	WolfelabSpurzheim	20101013.100205	20101013.102902	8	0.011766	60	10	60-180	60	172	GapExp	0	231	2	45	0	distractor	1	438	781	484993	11.765	11.754	11.777
ProbeTrack12	1	ProbeTrack	11.3	WolfelabSpurzheim	20101013.100205	20101013.102909	8	0.011766	60	10	60-180	60	154	GapExp	0	232	2	3	0	distractor	1	332	834	485827	11.765	11.741	11.795
ProbeTrack12	1	ProbeTrack	11.3	WolfelabSpurzheim	20101013.100205	20101013.102915	8	0.011766	60	10	60-180	60	92	GapExp	0	233	2	1	0	target	0	696	-1000	484827	11.765	11.754	11.777
ProbeTrack12	1	ProbeTrack	11.3	WolfelabSpurzheim	20101013.100205	20101013.102920	8	0.011766	60	10	60-180	60	111	GapExp	0	234	2	1	0	distractor	1	403	799	485626	11.765	11.753	11.775
ProbeTrack12	1	ProbeTrack	11.3	WolfelabSpurzheim	20101013.100205	20101013.102926	8	0.011766	60	10	60-180	60	179	GapExp	0	235	2	1	1	distractor	0	332	-1000	484626	11.765	11.728	11.806
ProbeTrack12	1	ProbeTrack	11.3	WolfelabSpurzheim	20101013.100205	20101013.102932	8	0.011766	60	10	60-180	60	135	GapExp	0	236	2	3	0	distractor	1	355	823	485449	11.765	11.754	11.776
ProbeTrack12	1	ProbeTrack	11.3	WolfelabSpurzheim	20101013.100205	20101013.102938	8	0.011766	60	10	60-180	60	83	GapExp	0	237	2	45	1	target	1	344	828	486277	11.765	11.753	11.775
ProbeTrack12	1	ProbeTrack	11.3	WolfelabSpurzheim	20101013.100205	20101013.102943	8	0.011766	60	10	60-180	60	145	GapExp	0	238	2	45	1	target	1	285	858	487135	11.765	11.741	11.784
ProbeTrack12	1	ProbeTrack	11.3	WolfelabSpurzheim	20101013.100205	20101013.102950	8	0.011766	60	10	60-180	60	98	GapExp	0	239	2	3	1	target	1	379	811	487946	11.765	11.753	11.776
ProbeTrack12	1	ProbeTrack	11.3	WolfelabSpurzheim	20101013.100205	20101013.102955	8	0.011766	60	10	60-180	60	84	GapExp	0	240	2	45	0	distractor	1	367	817	488763	11.765	11.754	11.775
ProbeTrack12	1	ProbeTrack	11.3	WolfelabSpurzheim	20101013.100205	20101013.103001	8	0.011766	60	10	60-180	60	111	GapExp	0	241	2	45	1	target	1	390	805	489568	11.765	11.753	11.777
ProbeTrack12	1	ProbeTrack	11.3	WolfelabSpurzheim	20101013.100205	20101013.103007	8	0.011766	60	10	60-180	60	125	GapExp	0	242	2	45	1	target	1	367	817	490385	11.765	11.754	11.775
ProbeTrack12	1	ProbeTrack	11.3	WolfelabSpurzheim	20101013.100205	20101013.103013	8	0.011766	60	10	60-180	60	148	GapExp	0	243	2	0	1	target	1	331	835	491220	11.765	11.754	11.777
ProbeTrack12	1	ProbeTrack	11.3	WolfelabSpurzheim	20101013.100205	20101013.103019	8	0.011766	60	0	60-180	60	62	GapExp	0	244	2	0	0	distractor	1	555	723	491943	11.765	11.755	11.776
ProbeTrack12	1	ProbeTrack	11.3	WolfelabSpurzheim	20101013.100205	20101013.103024	8	0.011766	60	10	60-180	60	108	GapExp	0	245	2	0	1	target	1	320	840	492783	11.765	11.753	11.775
ProbeTrack12	1	ProbeTrack	11.3	WolfelabSpurzheim	20101013.100205	20101013.103030	8	0.011766	60	10	60-180	60	154	GapExp	0	246	2	45	1	target	1	285	858	493641	11.765	11.753	11.776
ProbeTrack12	1	ProbeTrack	11.3	WolfelabSpurzheim	20101013.100205	20101013.103036	8	0.011766	60	10	60-180	60	74	GapExp	0	247	2	0	1	target	1	508	746	494387	11.765	11.753	11.775
ProbeTrack12	1	ProbeTrack	11.3	WolfelabSpurzheim	20101013.100205	20101013.103041	8	0.011766	60	0	60-180	60	136	GapExp	0	248	2	3	0	distractor	1	438	781	495168	11.765	11.755	11.775
ProbeTrack12	1	ProbeTrack	11.3	WolfelabSpurzheim	20101013.100205	20101013.103048	8	0.011766	60	10	60-180	60	104	GapExp	0	249	2	45	0	distractor	1	438	781	495949	11.765	11.753	11.776
ProbeTrack12	1	ProbeTrack	11.3	WolfelabSpurzheim	20101013.100205	20101013.103057	8	0.011766	60	0	60-180	60	126	GapExp	0	250	2	45	1	target	1	367	817	496766	11.765	11.755	11.776
