exp	sub	code	rev	comp	runtime	trialtime	nstim	refreshdur	cuedur	gapdur	gapOnsetRange	durPostProbe	gapOnsetTime	blocktype	prac	trial	ntargets	soa	probeTarget	resp	acc	rt	pts	tpts	meanFrameDur	minFrameDur	maxFrameDur
ProbeTrack12	4	ProbeTrack	11.3	WolfelabSpurzheim	20101019.113842	20101019.113942	8	0.011765	60	0	60-180	60	70	NoGap	1	1	2	1	1	target	1	1449	276	276	11.936	11.755	23.524
ProbeTrack12	4	ProbeTrack	11.3	WolfelabSpurzheim	20101019.113842	20101019.113953	8	0.011765	60	0	60-180	60	104	NoGap	1	2	2	1	1	target	1	343	829	1105	11.765	11.754	11.776
ProbeTrack12	4	ProbeTrack	11.3	WolfelabSpurzheim	20101019.113842	20101019.114003	8	0.011765	60	0	60-180	60	83	NoGap	1	3	2	3	0	distractor	1	649	676	1781	11.765	11.754	11.776
ProbeTrack12	4	ProbeTrack	11.3	WolfelabSpurzheim	20101019.113842	20101019.114013	8	0.011765	60	0	60-180	60	128	NoGap	1	4	2	0	1	target	1	390	805	2586	11.765	11.754	11.777
ProbeTrack12	4	ProbeTrack	11.3	WolfelabSpurzheim	20101019.113842	20101019.114021	8	0.011765	60	0	60-180	60	151	NoGap	1	5	2	1	0	target	0	555	-1000	1586	11.765	11.754	11.776
ProbeTrack12	4	ProbeTrack	11.3	WolfelabSpurzheim	20101019.113842	20101019.114028	8	0.011765	60	0	60-180	60	149	NoGap	1	6	2	45	1	target	1	332	834	2420	11.765	11.753	11.777
ProbeTrack12	4	ProbeTrack	11.3	WolfelabSpurzheim	20101019.113842	20101019.114035	8	0.011765	60	0	60-180	60	179	NoGap	1	7	2	0	1	distractor	0	473	-1000	1420	11.765	11.754	11.776
ProbeTrack12	4	ProbeTrack	11.3	WolfelabSpurzheim	20101019.113842	20101019.114041	8	0.011765	60	0	60-180	60	105	NoGap	1	8	2	0	0	distractor	1	473	764	2184	11.765	11.754	11.777
ProbeTrack12	4	ProbeTrack	11.3	WolfelabSpurzheim	20101019.113842	20101019.114052	8	0.011765	60	0	60-180	60	129	NoGap	1	9	2	0	0	distractor	1	426	787	2971	11.765	11.754	11.776
ProbeTrack12	4	ProbeTrack	11.3	WolfelabSpurzheim	20101019.113842	20101019.114059	8	0.011765	60	0	60-180	60	61	NoGap	1	10	2	0	0	distractor	1	590	705	3676	11.765	11.754	11.776
ProbeTrack12	4	ProbeTrack	11.3	WolfelabSpurzheim	20101019.113842	20101019.114104	8	0.011765	60	0	60-180	60	157	NoGap	1	11	2	45	1	distractor	0	426	-1000	2676	11.765	11.754	11.776
ProbeTrack12	4	ProbeTrack	11.3	WolfelabSpurzheim	20101019.113842	20101019.114112	8	0.011765	60	0	60-180	60	79	NoGap	1	12	2	45	0	distractor	1	591	705	3381	11.765	11.755	11.777
ProbeTrack12	4	ProbeTrack	11.3	WolfelabSpurzheim	20101019.113842	20101019.114118	8	0.011765	60	0	60-180	60	143	NoGap	1	13	2	0	1	target	1	543	729	4110	11.765	11.730	11.799
ProbeTrack12	4	ProbeTrack	11.3	WolfelabSpurzheim	20101019.113842	20101019.114125	8	0.011765	60	0	60-180	60	107	NoGap	1	14	2	45	0	distractor	1	579	711	4821	11.765	11.714	11.814
ProbeTrack12	4	ProbeTrack	11.3	WolfelabSpurzheim	20101019.113842	20101019.114132	8	0.011765	60	0	60-180	60	149	NoGap	1	15	2	45	0	distractor	1	543	729	5550	11.765	11.754	11.777
ProbeTrack12	4	ProbeTrack	11.3	WolfelabSpurzheim	20101019.113842	20101019.114139	8	0.011765	60	0	60-180	60	166	NoGap	1	16	2	1	0	distractor	1	461	770	6320	11.765	11.754	11.778
ProbeTrack12	4	ProbeTrack	11.3	WolfelabSpurzheim	20101019.113842	20101019.114145	8	0.011765	60	0	60-180	60	74	NoGap	1	17	2	0	1	target	1	673	664	6984	11.765	11.755	11.775
ProbeTrack12	4	ProbeTrack	11.3	WolfelabSpurzheim	20101019.113842	20101019.114151	8	0.011765	60	0	60-180	60	71	NoGap	1	18	2	1	1	target	1	449	776	7760	11.765	11.754	11.776
ProbeTrack12	4	ProbeTrack	11.3	WolfelabSpurzheim	20101019.113842	20101019.114157	8	0.011765	60	0	60-180	60	120	NoGap	1	19	2	3	0	distractor	1	543	729	8489	11.765	11.753	11.775
ProbeTrack12	4	ProbeTrack	11.3	WolfelabSpurzheim	20101019.113842	20101019.114203	8	0.011765	60	0	60-180	60	143	NoGap	1	20	2	45	0	distractor	1	496	752	9241	11.765	11.754	11.777
ProbeTrack12	4	ProbeTrack	11.3	WolfelabSpurzheim	20101019.113842	20101019.114209	8	0.011765	60	0	60-180	60	134	NoGap	1	21	2	1	1	target	1	473	764	10005	11.765	11.745	11.782
ProbeTrack12	4	ProbeTrack	11.3	WolfelabSpurzheim	20101019.113842	20101019.114215	8	0.011765	60	0	60-180	60	150	NoGap	1	22	2	1	0	distractor	1	449	776	10781	11.765	11.754	11.776
ProbeTrack12	4	ProbeTrack	11.3	WolfelabSpurzheim	20101019.113842	20101019.114222	8	0.011765	60	0	60-180	60	148	NoGap	1	23	2	1	0	distractor	1	473	764	11545	11.765	11.753	11.776
ProbeTrack12	4	ProbeTrack	11.3	WolfelabSpurzheim	20101019.113842	20101019.114228	8	0.011765	60	0	60-180	60	167	NoGap	1	24	2	45	1	target	1	379	811	12356	11.765	11.736	11.796
ProbeTrack12	4	ProbeTrack	11.3	WolfelabSpurzheim	20101019.113842	20101019.114235	8	0.011765	60	0	60-180	60	72	NoGap	1	25	2	45	1	target	1	461	770	13126	11.765	11.753	11.776
ProbeTrack12	4	ProbeTrack	11.3	WolfelabSpurzheim	20101019.113842	20101019.114241	8	0.011765	60	0	60-180	60	118	NoGap	1	26	2	3	1	target	1	391	805	13931	11.765	11.754	11.775
ProbeTrack12	4	ProbeTrack	11.3	WolfelabSpurzheim	20101019.113842	20101019.114246	8	0.011765	60	0	60-180	60	93	NoGap	1	27	2	0	1	target	1	343	829	14760	11.765	11.754	11.774
ProbeTrack12	4	ProbeTrack	11.3	WolfelabSpurzheim	20101019.113842	20101019.114252	8	0.011765	60	0	60-180	60	76	NoGap	1	28	2	0	0	target	0	461	-1000	13760	11.765	11.754	11.775
ProbeTrack12	4	ProbeTrack	11.3	WolfelabSpurzheim	20101019.113842	20101019.114257	8	0.011765	60	0	60-180	60	160	NoGap	1	29	2	3	1	target	1	355	823	14583	11.765	11.754	11.776
ProbeTrack12	4	ProbeTrack	11.3	WolfelabSpurzheim	20101019.113842	20101019.114304	8	0.011765	60	0	60-180	60	161	NoGap	1	30	2	3	1	target	1	379	811	15394	11.765	11.754	11.776
ProbeTrack12	4	ProbeTrack	11.3	WolfelabSpurzheim	20101019.113842	20101019.114311	8	0.011765	60	0	60-180	60	130	NoGap	1	31	2	45	1	target	1	473	764	16158	11.765	11.754	11.777
ProbeTrack12	4	ProbeTrack	11.3	WolfelabSpurzheim	20101019.113842	20101019.114318	8	0.011765	60	0	60-180	60	109	NoGap	1	32	2	1	0	distractor	1	438	781	16939	11.765	11.754	11.776
ProbeTrack12	4	ProbeTrack	11.3	WolfelabSpurzheim	20101019.113842	20101019.114324	8	0.011765	60	0	60-180	60	118	NoGap	1	33	2	0	0	distractor	1	579	711	17650	11.765	11.753	11.778
ProbeTrack12	4	ProbeTrack	11.3	WolfelabSpurzheim	20101019.113842	20101019.114330	8	0.011765	60	0	60-180	60	88	NoGap	1	34	2	3	0	distractor	1	543	729	18379	11.765	11.754	11.776
ProbeTrack12	4	ProbeTrack	11.3	WolfelabSpurzheim	20101019.113842	20101019.114335	8	0.011765	60	0	60-180	60	131	NoGap	1	35	2	3	0	distractor	1	450	775	19154	11.765	11.754	11.776
ProbeTrack12	4	ProbeTrack	11.3	WolfelabSpurzheim	20101019.113842	20101019.114341	8	0.011765	60	0	60-180	60	104	NoGap	1	36	2	45	0	distractor	1	555	723	19877	11.765	11.754	11.775
ProbeTrack12	4	ProbeTrack	11.3	WolfelabSpurzheim	20101019.113842	20101019.114348	8	0.011765	60	0	60-180	60	66	NoGap	1	37	2	3	1	target	1	532	734	20611	11.765	11.753	11.777
ProbeTrack12	4	ProbeTrack	11.3	WolfelabSpurzheim	20101019.113842	20101019.114354	8	0.011765	60	0	60-180	60	171	NoGap	1	38	2	3	1	target	1	402	799	21410	11.765	11.753	11.776
ProbeTrack12	4	ProbeTrack	11.3	WolfelabSpurzheim	20101019.113842	20101019.114400	8	0.011765	60	0	60-180	60	122	NoGap	1	39	2	3	0	distractor	1	496	752	22162	11.765	11.754	11.776
ProbeTrack12	4	ProbeTrack	11.3	WolfelabSpurzheim	20101019.113842	20101019.114407	8	0.011765	60	0	60-180	60	71	NoGap	1	40	2	1	1	target	1	426	787	22949	11.765	11.729	11.797
ProbeTrack12	4	ProbeTrack	11.3	WolfelabSpurzheim	20101019.114502	20101019.114514	8	0.011766	60	10	60-180	60	88	GapPrac	1	1	2	45	1	target	1	414	793	23742	11.903	11.754	23.525
ProbeTrack12	4	ProbeTrack	11.3	WolfelabSpurzheim	20101019.114502	20101019.114523	8	0.011766	60	10	60-180	60	140	GapPrac	1	2	2	45	0	distractor	1	508	746	24488	11.840	11.703	11.830
ProbeTrack12	4	ProbeTrack	11.3	WolfelabSpurzheim	20101019.114502	20101019.114533	8	0.011766	60	0	60-180	60	80	GapPrac	1	3	2	3	0	distractor	1	461	770	25258	11.824	11.753	23.533
ProbeTrack12	4	ProbeTrack	11.3	WolfelabSpurzheim	20101019.114502	20101019.114543	8	0.011766	60	0	60-180	60	154	GapPrac	1	4	2	1	1	target	1	390	805	26063	11.765	11.754	11.776
ProbeTrack12	4	ProbeTrack	11.3	WolfelabSpurzheim	20101019.114502	20101019.114550	8	0.011766	60	10	60-180	60	146	GapPrac	1	5	2	0	1	distractor	0	473	-1000	25063	11.765	11.748	11.786
ProbeTrack12	4	ProbeTrack	11.3	WolfelabSpurzheim	20101019.114502	20101019.114557	8	0.011766	60	0	60-180	60	165	GapPrac	1	6	2	45	1	distractor	0	485	-1000	24063	11.765	11.751	11.778
ProbeTrack12	4	ProbeTrack	11.3	WolfelabSpurzheim	20101019.114502	20101019.114605	8	0.011766	60	0	60-180	60	65	GapPrac	1	7	2	3	0	distractor	1	955	523	24586	11.765	11.752	11.777
ProbeTrack12	4	ProbeTrack	11.3	WolfelabSpurzheim	20101019.114502	20101019.114611	8	0.011766	60	0	60-180	60	138	GapPrac	1	8	2	3	1	target	1	461	770	25356	11.765	11.754	11.777
ProbeTrack12	4	ProbeTrack	11.3	WolfelabSpurzheim	20101019.114502	20101019.114618	8	0.011766	60	10	60-180	60	134	GapPrac	1	9	2	1	1	target	1	414	793	26149	11.765	11.752	11.776
ProbeTrack12	4	ProbeTrack	11.3	WolfelabSpurzheim	20101019.114502	20101019.114624	8	0.011766	60	10	60-180	60	115	GapPrac	1	10	2	45	1	distractor	0	497	-1000	25149	11.765	11.753	11.776
ProbeTrack12	4	ProbeTrack	11.3	WolfelabSpurzheim	20101019.114502	20101019.114631	8	0.011766	60	10	60-180	60	180	GapPrac	1	11	2	3	0	distractor	1	649	676	25825	11.765	11.754	11.776
ProbeTrack12	4	ProbeTrack	11.3	WolfelabSpurzheim	20101019.114502	20101019.114638	8	0.011766	60	0	60-180	60	169	GapPrac	1	12	2	0	1	target	1	625	688	26513	11.765	11.753	11.777
ProbeTrack12	4	ProbeTrack	11.3	WolfelabSpurzheim	20101019.114502	20101019.114645	8	0.011766	60	10	60-180	60	140	GapPrac	1	13	2	3	1	target	1	508	746	27259	11.765	11.753	11.778
ProbeTrack12	4	ProbeTrack	11.3	WolfelabSpurzheim	20101019.114502	20101019.114651	8	0.011766	60	0	60-180	60	114	GapPrac	1	14	2	1	1	target	1	461	770	28029	11.765	11.755	11.775
ProbeTrack12	4	ProbeTrack	11.3	WolfelabSpurzheim	20101019.114502	20101019.114657	8	0.011766	60	0	60-180	60	85	GapPrac	1	15	2	1	0	distractor	1	661	670	28699	11.765	11.754	11.776
ProbeTrack12	4	ProbeTrack	11.3	WolfelabSpurzheim	20101019.114502	20101019.114703	8	0.011766	60	0	60-180	60	168	GapPrac	1	16	2	0	0	distractor	1	543	729	29428	11.765	11.754	11.777
ProbeTrack12	4	ProbeTrack	11.3	WolfelabSpurzheim	20101019.114502	20101019.114709	8	0.011766	60	10	60-180	60	170	GapPrac	1	17	2	1	0	distractor	1	567	717	30145	11.765	11.726	11.808
ProbeTrack12	4	ProbeTrack	11.3	WolfelabSpurzheim	20101019.114502	20101019.114716	8	0.011766	60	10	60-180	60	75	GapPrac	1	18	2	45	0	distractor	1	649	676	30821	11.765	11.753	11.775
ProbeTrack12	4	ProbeTrack	11.3	WolfelabSpurzheim	20101019.114502	20101019.114722	8	0.011766	60	0	60-180	60	158	GapPrac	1	19	2	45	0	distractor	1	544	728	31549	11.765	11.754	11.776
ProbeTrack12	4	ProbeTrack	11.3	WolfelabSpurzheim	20101019.114502	20101019.114729	8	0.011766	60	10	60-180	60	117	GapPrac	1	20	2	0	0	distractor	1	555	723	32272	11.765	11.753	11.777
ProbeTrack12	4	ProbeTrack	11.3	WolfelabSpurzheim	20101019.114820	20101019.114840	8	0.011765	60	10	60-180	60	133	GapExp	1	1	2	3	0	distractor	1	638	681	32953	11.850	11.745	11.791
ProbeTrack12	4	ProbeTrack	11.3	WolfelabSpurzheim	20101019.114820	20101019.114847	8	0.011765	60	10	60-180	60	94	GapExp	1	2	2	45	0	distractor	1	626	687	33640	11.849	11.743	11.786
ProbeTrack12	4	ProbeTrack	11.3	WolfelabSpurzheim	20101019.114820	20101019.114854	8	0.011765	60	10	60-180	60	91	GapExp	1	3	2	1	1	target	1	508	746	34386	11.765	11.752	11.776
ProbeTrack12	4	ProbeTrack	11.3	WolfelabSpurzheim	20101019.114820	20101019.115116	8	0.011765	60	0	60-180	60	92	GapExp	1	4	2	45	1	target	1	520	740	35126	11.811	11.754	23.533
ProbeTrack12	4	ProbeTrack	11.3	WolfelabSpurzheim	20101019.114820	20101019.115122	8	0.011765	60	0	60-180	60	153	GapExp	1	5	2	1	0	distractor	1	708	646	35772	11.765	11.754	11.778
ProbeTrack12	4	ProbeTrack	11.3	WolfelabSpurzheim	20101019.114820	20101019.115129	8	0.011765	60	0	60-180	60	114	GapExp	1	6	2	1	1	target	1	590	705	36477	11.765	11.753	11.777
ProbeTrack12	4	ProbeTrack	11.3	WolfelabSpurzheim	20101019.114820	20101019.115134	8	0.011765	60	0	60-180	60	79	GapExp	1	7	2	0	0	distractor	1	508	746	37223	11.765	11.753	11.777
ProbeTrack12	4	ProbeTrack	11.3	WolfelabSpurzheim	20101019.114820	20101019.115140	8	0.011765	60	0	60-180	60	97	GapExp	1	8	2	3	0	distractor	1	567	717	37940	11.765	11.756	11.776
ProbeTrack12	4	ProbeTrack	11.3	WolfelabSpurzheim	20101019.114820	20101019.115147	8	0.011765	60	10	60-180	60	81	GapExp	1	9	2	0	0	distractor	1	614	693	38633	11.765	11.754	11.776
ProbeTrack12	4	ProbeTrack	11.3	WolfelabSpurzheim	20101019.114820	20101019.115153	8	0.011765	60	0	60-180	60	91	GapExp	1	10	2	3	1	target	1	520	740	39373	11.765	11.755	11.776
ProbeTrack12	4	ProbeTrack	11.3	WolfelabSpurzheim	20101019.114820	20101019.115159	8	0.011765	60	10	60-180	60	144	GapExp	0	11	2	0	0	distractor	1	484	758	40131	11.765	11.754	11.775
ProbeTrack12	4	ProbeTrack	11.3	WolfelabSpurzheim	20101019.114820	20101019.115206	8	0.011765	60	10	60-180	60	122	GapExp	0	12	2	0	1	target	1	520	740	40871	11.765	11.734	11.799
ProbeTrack12	4	ProbeTrack	11.3	WolfelabSpurzheim	20101019.114820	20101019.115212	8	0.011765	60	10	60-180	60	139	GapExp	0	13	2	1	1	target	1	755	623	41494	11.765	11.754	11.775
ProbeTrack12	4	ProbeTrack	11.3	WolfelabSpurzheim	20101019.114820	20101019.115219	8	0.011765	60	0	60-180	60	90	GapExp	0	14	2	1	1	target	1	614	693	42187	11.765	11.740	11.790
ProbeTrack12	4	ProbeTrack	11.3	WolfelabSpurzheim	20101019.114820	20101019.115224	8	0.011765	60	0	60-180	60	167	GapExp	0	15	2	0	1	target	1	473	764	42951	11.765	11.754	11.775
ProbeTrack12	4	ProbeTrack	11.3	WolfelabSpurzheim	20101019.114820	20101019.115231	8	0.011765	60	10	60-180	60	114	GapExp	0	16	2	1	1	target	1	449	776	43727	11.765	11.755	11.777
ProbeTrack12	4	ProbeTrack	11.3	WolfelabSpurzheim	20101019.114820	20101019.115236	8	0.011765	60	0	60-180	60	114	GapExp	0	17	2	45	1	target	1	532	734	44461	11.765	11.754	11.776
ProbeTrack12	4	ProbeTrack	11.3	WolfelabSpurzheim	20101019.114820	20101019.115243	8	0.011765	60	10	60-180	60	173	GapExp	0	18	2	45	0	distractor	1	426	787	45248	11.765	11.754	11.776
ProbeTrack12	4	ProbeTrack	11.3	WolfelabSpurzheim	20101019.114820	20101019.115250	8	0.011765	60	0	60-180	60	79	GapExp	0	19	2	45	0	distractor	1	743	629	45877	11.765	11.744	11.787
ProbeTrack12	4	ProbeTrack	11.3	WolfelabSpurzheim	20101019.114820	20101019.115256	8	0.011765	60	10	60-180	60	134	GapExp	0	20	2	45	1	target	1	802	599	46476	11.765	11.755	11.776
ProbeTrack12	4	ProbeTrack	11.3	WolfelabSpurzheim	20101019.114820	20101019.115303	8	0.011765	60	0	60-180	60	104	GapExp	0	21	2	0	0	distractor	1	473	764	47240	11.765	11.755	11.775
ProbeTrack12	4	ProbeTrack	11.3	WolfelabSpurzheim	20101019.114820	20101019.115309	8	0.011765	60	0	60-180	60	149	GapExp	0	22	2	45	0	distractor	1	484	758	47998	11.765	11.754	11.776
ProbeTrack12	4	ProbeTrack	11.3	WolfelabSpurzheim	20101019.114820	20101019.115315	8	0.011765	60	0	60-180	60	76	GapExp	0	23	2	3	0	distractor	1	509	746	48744	11.765	11.710	11.817
ProbeTrack12	4	ProbeTrack	11.3	WolfelabSpurzheim	20101019.114820	20101019.115320	8	0.011765	60	0	60-180	60	180	GapExp	0	24	2	1	1	target	1	379	811	49555	11.765	11.754	11.777
ProbeTrack12	4	ProbeTrack	11.3	WolfelabSpurzheim	20101019.114820	20101019.115327	8	0.011765	60	0	60-180	60	176	GapExp	0	25	2	1	1	distractor	0	673	-1000	48555	11.765	11.753	11.777
ProbeTrack12	4	ProbeTrack	11.3	WolfelabSpurzheim	20101019.114820	20101019.115334	8	0.011765	60	10	60-180	60	156	GapExp	0	26	2	1	1	target	1	438	781	49336	11.765	11.749	11.778
ProbeTrack12	4	ProbeTrack	11.3	WolfelabSpurzheim	20101019.114820	20101019.115340	8	0.011765	60	0	60-180	60	82	GapExp	0	27	2	3	0	distractor	1	532	734	50070	11.765	11.753	11.776
ProbeTrack12	4	ProbeTrack	11.3	WolfelabSpurzheim	20101019.114820	20101019.115345	8	0.011765	60	10	60-180	60	124	GapExp	0	28	2	3	0	distractor	1	438	781	50851	11.765	11.730	11.801
ProbeTrack12	4	ProbeTrack	11.3	WolfelabSpurzheim	20101019.114820	20101019.115351	8	0.011765	60	0	60-180	60	143	GapExp	0	29	2	0	0	distractor	1	602	699	51550	11.765	11.753	11.776
ProbeTrack12	4	ProbeTrack	11.3	WolfelabSpurzheim	20101019.114820	20101019.115357	8	0.011765	60	0	60-180	60	152	GapExp	0	30	2	45	1	target	1	402	799	52349	11.765	11.754	11.776
ProbeTrack12	4	ProbeTrack	11.3	WolfelabSpurzheim	20101019.114820	20101019.115404	8	0.011765	60	0	60-180	60	173	GapExp	0	31	2	3	1	target	1	402	799	53148	11.765	11.746	11.778
ProbeTrack12	4	ProbeTrack	11.3	WolfelabSpurzheim	20101019.114820	20101019.115411	8	0.011765	60	10	60-180	60	72	GapExp	0	32	2	3	1	target	1	461	770	53918	11.765	11.753	11.776
ProbeTrack12	4	ProbeTrack	11.3	WolfelabSpurzheim	20101019.114820	20101019.115416	8	0.011765	60	10	60-180	60	132	GapExp	0	33	2	45	0	target	0	567	-1000	52918	11.765	11.754	11.776
ProbeTrack12	4	ProbeTrack	11.3	WolfelabSpurzheim	20101019.114820	20101019.115423	8	0.011765	60	10	60-180	60	157	GapExp	0	34	2	0	0	distractor	1	520	740	53658	11.765	11.755	11.776
ProbeTrack12	4	ProbeTrack	11.3	WolfelabSpurzheim	20101019.114820	20101019.115429	8	0.011765	60	10	60-180	60	169	GapExp	0	35	2	0	0	distractor	1	520	740	54398	11.765	11.754	11.778
ProbeTrack12	4	ProbeTrack	11.3	WolfelabSpurzheim	20101019.114820	20101019.115435	8	0.011765	60	0	60-180	60	149	GapExp	0	36	2	1	0	distractor	1	497	752	55150	11.765	11.737	11.785
ProbeTrack12	4	ProbeTrack	11.3	WolfelabSpurzheim	20101019.114820	20101019.115443	8	0.011765	60	10	60-180	60	168	GapExp	0	37	2	0	0	distractor	1	508	746	55896	11.765	11.753	11.777
ProbeTrack12	4	ProbeTrack	11.3	WolfelabSpurzheim	20101019.114820	20101019.115449	8	0.011765	60	0	60-180	60	74	GapExp	0	38	2	45	0	distractor	1	555	723	56619	11.765	11.755	11.776
ProbeTrack12	4	ProbeTrack	11.3	WolfelabSpurzheim	20101019.114820	20101019.115455	8	0.011765	60	0	60-180	60	101	GapExp	0	39	2	1	0	distractor	1	508	746	57365	11.765	11.753	11.776
ProbeTrack12	4	ProbeTrack	11.3	WolfelabSpurzheim	20101019.114820	20101019.115501	8	0.011765	60	0	60-180	60	115	GapExp	0	40	2	3	0	distractor	1	414	793	58158	11.765	11.754	11.777
ProbeTrack12	4	ProbeTrack	11.3	WolfelabSpurzheim	20101019.114820	20101019.115506	8	0.011765	60	0	60-180	60	124	GapExp	0	41	2	1	1	target	1	438	781	58939	11.765	11.755	11.777
ProbeTrack12	4	ProbeTrack	11.3	WolfelabSpurzheim	20101019.114820	20101019.115512	8	0.011765	60	10	60-180	60	98	GapExp	0	42	2	0	1	target	1	367	817	59756	11.765	11.755	11.777
ProbeTrack12	4	ProbeTrack	11.3	WolfelabSpurzheim	20101019.114820	20101019.115517	8	0.011765	60	10	60-180	60	122	GapExp	0	43	2	45	1	target	1	391	805	60561	11.765	11.753	11.776
ProbeTrack12	4	ProbeTrack	11.3	WolfelabSpurzheim	20101019.114820	20101019.115524	8	0.011765	60	10	60-180	60	140	GapExp	0	44	2	3	0	distractor	1	402	799	61360	11.765	11.754	11.776
ProbeTrack12	4	ProbeTrack	11.3	WolfelabSpurzheim	20101019.114820	20101019.115532	8	0.011765	60	0	60-180	60	164	GapExp	0	45	2	1	0	distractor	1	567	717	62077	11.806	11.754	23.537
ProbeTrack12	4	ProbeTrack	11.3	WolfelabSpurzheim	20101019.114820	20101019.115538	8	0.011765	60	0	60-180	60	175	GapExp	0	46	2	45	1	target	1	426	787	62864	11.765	11.745	11.792
ProbeTrack12	4	ProbeTrack	11.3	WolfelabSpurzheim	20101019.114820	20101019.115545	8	0.011765	60	10	60-180	60	95	GapExp	0	47	2	3	1	target	1	462	769	63633	11.765	11.754	11.775
ProbeTrack12	4	ProbeTrack	11.3	WolfelabSpurzheim	20101019.114820	20101019.115551	8	0.011765	60	0	60-180	60	174	GapExp	0	48	2	1	1	distractor	0	567	-1000	62633	11.765	11.755	11.775
ProbeTrack12	4	ProbeTrack	11.3	WolfelabSpurzheim	20101019.114820	20101019.115558	8	0.011765	60	0	60-180	60	155	GapExp	0	49	2	1	0	distractor	1	614	693	63326	11.765	11.724	11.812
ProbeTrack12	4	ProbeTrack	11.3	WolfelabSpurzheim	20101019.114820	20101019.115604	8	0.011765	60	10	60-180	60	105	GapExp	0	50	2	1	0	distractor	1	438	781	64107	11.765	11.754	11.777
ProbeTrack12	4	ProbeTrack	11.3	WolfelabSpurzheim	20101019.114820	20101019.115610	8	0.011765	60	10	60-180	60	68	GapExp	0	51	2	3	0	distractor	1	520	740	64847	11.765	11.755	11.775
ProbeTrack12	4	ProbeTrack	11.3	WolfelabSpurzheim	20101019.114820	20101019.115615	8	0.011765	60	10	60-180	60	130	GapExp	0	52	2	45	0	distractor	1	484	758	65605	11.765	11.729	11.799
ProbeTrack12	4	ProbeTrack	11.3	WolfelabSpurzheim	20101019.114820	20101019.115621	8	0.011765	60	10	60-180	60	105	GapExp	0	53	2	3	0	distractor	1	543	729	66334	11.765	11.752	11.775
ProbeTrack12	4	ProbeTrack	11.3	WolfelabSpurzheim	20101019.114820	20101019.115627	8	0.011765	60	10	60-180	60	68	GapExp	0	54	2	45	1	target	1	626	687	67021	11.765	11.753	11.777
ProbeTrack12	4	ProbeTrack	11.3	WolfelabSpurzheim	20101019.114820	20101019.115633	8	0.011765	60	10	60-180	60	163	GapExp	0	55	2	0	0	distractor	1	555	723	67744	11.765	11.752	11.776
ProbeTrack12	4	ProbeTrack	11.3	WolfelabSpurzheim	20101019.114820	20101019.115639	8	0.011765	60	10	60-180	60	147	GapExp	0	56	2	45	1	target	1	402	799	68543	11.765	11.754	11.776
ProbeTrack12	4	ProbeTrack	11.3	WolfelabSpurzheim	20101019.114820	20101019.115646	8	0.011765	60	10	60-180	60	107	GapExp	0	57	2	45	0	distractor	1	532	734	69277	11.765	11.754	11.776
ProbeTrack12	4	ProbeTrack	11.3	WolfelabSpurzheim	20101019.114820	20101019.115653	8	0.011765	60	10	60-180	60	163	GapExp	0	58	2	45	0	distractor	1	508	746	70023	11.765	11.754	11.777
ProbeTrack12	4	ProbeTrack	11.3	WolfelabSpurzheim	20101019.114820	20101019.115703	8	0.011765	60	10	60-180	60	167	GapExp	0	59	2	0	1	distractor	0	473	-1000	69023	11.765	11.732	11.796
ProbeTrack12	4	ProbeTrack	11.3	WolfelabSpurzheim	20101019.114820	20101019.115709	8	0.011765	60	10	60-180	60	90	GapExp	0	60	2	1	0	distractor	1	567	717	69740	11.765	11.753	11.776
ProbeTrack12	4	ProbeTrack	11.3	WolfelabSpurzheim	20101019.114820	20101019.115715	8	0.011765	60	10	60-180	60	96	GapExp	0	61	2	45	0	distractor	1	532	734	70474	11.765	11.754	11.777
ProbeTrack12	4	ProbeTrack	11.3	WolfelabSpurzheim	20101019.114820	20101019.115721	8	0.011765	60	10	60-180	60	82	GapExp	0	62	2	3	0	distractor	1	555	723	71197	11.765	11.753	11.776
ProbeTrack12	4	ProbeTrack	11.3	WolfelabSpurzheim	20101019.114820	20101019.115727	8	0.011765	60	0	60-180	60	98	GapExp	0	63	2	0	1	target	1	543	729	71926	11.765	11.754	11.776
ProbeTrack12	4	ProbeTrack	11.3	WolfelabSpurzheim	20101019.114820	20101019.115733	8	0.011765	60	0	60-180	60	154	GapExp	0	64	2	1	1	target	1	485	758	72684	11.765	11.752	11.778
ProbeTrack12	4	ProbeTrack	11.3	WolfelabSpurzheim	20101019.114820	20101019.115738	8	0.011765	60	0	60-180	60	127	GapExp	0	65	2	1	0	distractor	1	508	746	73430	11.765	11.753	11.776
ProbeTrack12	4	ProbeTrack	11.3	WolfelabSpurzheim	20101019.114820	20101019.115744	8	0.011765	60	10	60-180	60	83	GapExp	0	66	2	1	0	distractor	1	473	764	74194	11.765	11.755	11.775
ProbeTrack12	4	ProbeTrack	11.3	WolfelabSpurzheim	20101019.114820	20101019.115750	8	0.011765	60	10	60-180	60	66	GapExp	0	67	2	3	1	distractor	0	650	-1000	73194	11.765	11.754	11.776
ProbeTrack12	4	ProbeTrack	11.3	WolfelabSpurzheim	20101019.114820	20101019.115755	8	0.011765	60	10	60-180	60	105	GapExp	0	68	2	45	0	distractor	1	591	705	73899	11.765	11.737	11.794
ProbeTrack12	4	ProbeTrack	11.3	WolfelabSpurzheim	20101019.114820	20101019.115804	8	0.011765	60	10	60-180	60	86	GapExp	0	69	2	1	1	target	1	485	758	74657	11.765	11.752	11.776
ProbeTrack12	4	ProbeTrack	11.3	WolfelabSpurzheim	20101019.114820	20101019.115810	8	0.011765	60	10	60-180	60	139	GapExp	0	70	2	1	1	target	1	485	758	75415	11.765	11.754	11.778
ProbeTrack12	4	ProbeTrack	11.3	WolfelabSpurzheim	20101019.114820	20101019.115817	8	0.011765	60	0	60-180	60	82	GapExp	0	71	2	1	1	target	1	496	752	76167	11.765	11.753	11.776
ProbeTrack12	4	ProbeTrack	11.3	WolfelabSpurzheim	20101019.114820	20101019.115823	8	0.011765	60	0	60-180	60	149	GapExp	0	72	2	45	0	distractor	1	579	711	76878	11.765	11.755	11.776
ProbeTrack12	4	ProbeTrack	11.3	WolfelabSpurzheim	20101019.114820	20101019.115829	8	0.011765	60	10	60-180	60	137	GapExp	0	73	2	45	0	distractor	1	626	687	77565	11.765	11.753	11.777
ProbeTrack12	4	ProbeTrack	11.3	WolfelabSpurzheim	20101019.114820	20101019.115836	8	0.011765	60	0	60-180	60	170	GapExp	0	74	2	3	1	target	1	402	799	78364	11.765	11.754	11.777
ProbeTrack12	4	ProbeTrack	11.3	WolfelabSpurzheim	20101019.114820	20101019.115843	8	0.011765	60	10	60-180	60	65	GapExp	0	75	2	3	1	target	1	391	805	79169	11.765	11.755	11.776
ProbeTrack12	4	ProbeTrack	11.3	WolfelabSpurzheim	20101019.114820	20101019.115849	8	0.011765	60	10	60-180	60	123	GapExp	0	76	2	45	0	distractor	1	508	746	79915	11.765	11.754	11.775
ProbeTrack12	4	ProbeTrack	11.3	WolfelabSpurzheim	20101019.114820	20101019.115855	8	0.011765	60	0	60-180	60	132	GapExp	0	77	2	45	0	distractor	1	543	729	80644	11.765	11.754	11.777
ProbeTrack12	4	ProbeTrack	11.3	WolfelabSpurzheim	20101019.114820	20101019.115902	8	0.011765	60	10	60-180	60	146	GapExp	0	78	2	1	1	target	1	485	758	81402	11.765	11.754	11.776
ProbeTrack12	4	ProbeTrack	11.3	WolfelabSpurzheim	20101019.114820	20101019.115908	8	0.011765	60	10	60-180	60	110	GapExp	0	79	2	3	1	target	1	402	799	82201	11.765	11.754	11.776
ProbeTrack12	4	ProbeTrack	11.3	WolfelabSpurzheim	20101019.114820	20101019.115914	8	0.011765	60	0	60-180	60	173	GapExp	0	80	2	3	0	distractor	1	485	758	82959	11.765	11.754	11.777
ProbeTrack12	4	ProbeTrack	11.3	WolfelabSpurzheim	20101019.114820	20101019.115924	8	0.011765	60	0	60-180	60	119	GapExp	0	81	2	0	0	distractor	1	520	740	83699	11.765	11.754	11.776
ProbeTrack12	4	ProbeTrack	11.3	WolfelabSpurzheim	20101019.114820	20101019.115930	8	0.011765	60	10	60-180	60	86	GapExp	0	82	2	0	1	target	1	437	782	84481	11.765	11.749	11.780
ProbeTrack12	4	ProbeTrack	11.3	WolfelabSpurzheim	20101019.114820	20101019.115936	8	0.011765	60	0	60-180	60	161	GapExp	0	83	2	3	0	distractor	1	508	746	85227	11.765	11.753	11.777
ProbeTrack12	4	ProbeTrack	11.3	WolfelabSpurzheim	20101019.114820	20101019.115947	8	0.011765	60	0	60-180	60	95	GapExp	0	84	2	3	1	target	1	402	799	86026	11.765	11.753	11.776
ProbeTrack12	4	ProbeTrack	11.3	WolfelabSpurzheim	20101019.114820	20101019.115952	8	0.011765	60	10	60-180	60	80	GapExp	0	85	2	0	1	target	1	367	817	86843	11.765	11.753	11.776
ProbeTrack12	4	ProbeTrack	11.3	WolfelabSpurzheim	20101019.114820	20101019.115959	8	0.011765	60	10	60-180	60	161	GapExp	0	86	2	3	0	distractor	1	414	793	87636	11.765	11.754	11.775
ProbeTrack12	4	ProbeTrack	11.3	WolfelabSpurzheim	20101019.114820	20101019.120009	8	0.011765	60	0	60-180	60	71	GapExp	0	87	2	45	0	distractor	1	461	770	88406	11.765	11.754	11.777
ProbeTrack12	4	ProbeTrack	11.3	WolfelabSpurzheim	20101019.114820	20101019.120015	8	0.011765	60	10	60-180	60	98	GapExp	0	88	2	0	0	distractor	1	449	776	89182	11.765	11.754	11.776
ProbeTrack12	4	ProbeTrack	11.3	WolfelabSpurzheim	20101019.114820	20101019.120022	8	0.011765	60	0	60-180	60	160	GapExp	0	89	2	1	0	distractor	1	685	658	89840	11.765	11.754	11.777
ProbeTrack12	4	ProbeTrack	11.3	WolfelabSpurzheim	20101019.114820	20101019.120029	8	0.011765	60	10	60-180	60	124	GapExp	0	90	2	0	0	target	0	414	-1000	88840	11.765	11.754	11.776
ProbeTrack12	4	ProbeTrack	11.3	WolfelabSpurzheim	20101019.114820	20101019.120035	8	0.011765	60	10	60-180	60	171	GapExp	0	91	2	45	1	distractor	0	379	-1000	87840	11.765	11.754	11.776
ProbeTrack12	4	ProbeTrack	11.3	WolfelabSpurzheim	20101019.114820	20101019.120042	8	0.011765	60	0	60-180	60	91	GapExp	0	92	2	1	1	target	1	437	782	88622	11.765	11.755	11.776
ProbeTrack12	4	ProbeTrack	11.3	WolfelabSpurzheim	20101019.114820	20101019.120048	8	0.011765	60	10	60-180	60	122	GapExp	0	93	2	0	1	target	1	367	817	89439	11.765	11.718	11.812
ProbeTrack12	4	ProbeTrack	11.3	WolfelabSpurzheim	20101019.114820	20101019.120054	8	0.011765	60	0	60-180	60	139	GapExp	0	94	2	0	0	distractor	1	556	722	90161	11.765	11.755	11.776
ProbeTrack12	4	ProbeTrack	11.3	WolfelabSpurzheim	20101019.114820	20101019.120100	8	0.011765	60	10	60-180	60	68	GapExp	0	95	2	3	0	target	0	414	-1000	89161	11.765	11.755	11.777
ProbeTrack12	4	ProbeTrack	11.3	WolfelabSpurzheim	20101019.114820	20101019.120105	8	0.011765	60	0	60-180	60	133	GapExp	0	96	2	45	0	distractor	1	473	764	89925	11.765	11.753	11.777
ProbeTrack12	4	ProbeTrack	11.3	WolfelabSpurzheim	20101019.114820	20101019.120112	8	0.011765	60	10	60-180	60	83	GapExp	0	97	2	3	0	distractor	1	462	769	90694	11.765	11.754	11.778
ProbeTrack12	4	ProbeTrack	11.3	WolfelabSpurzheim	20101019.114820	20101019.120118	8	0.011765	60	0	60-180	60	121	GapExp	0	98	2	45	1	target	1	367	817	91511	11.765	11.754	11.777
ProbeTrack12	4	ProbeTrack	11.3	WolfelabSpurzheim	20101019.114820	20101019.120125	8	0.011765	60	0	60-180	60	73	GapExp	0	99	2	3	1	target	1	390	805	92316	11.765	11.717	11.811
ProbeTrack12	4	ProbeTrack	11.3	WolfelabSpurzheim	20101019.114820	20101019.120131	8	0.011765	60	0	60-180	60	173	GapExp	0	100	2	45	1	target	1	438	781	93097	11.765	11.755	11.776
ProbeTrack12	4	ProbeTrack	11.3	WolfelabSpurzheim	20101019.114820	20101019.120138	8	0.011765	60	10	60-180	60	86	GapExp	0	101	2	45	1	target	1	379	811	93908	11.765	11.754	11.776
ProbeTrack12	4	ProbeTrack	11.3	WolfelabSpurzheim	20101019.114820	20101019.120205	8	0.011765	60	10	60-180	60	98	GapExp	0	102	2	3	1	target	1	555	723	94631	11.765	11.754	11.776
ProbeTrack12	4	ProbeTrack	11.3	WolfelabSpurzheim	20101019.114820	20101019.120211	8	0.011765	60	10	60-180	60	167	GapExp	0	103	2	0	0	distractor	1	661	670	95301	11.765	11.754	11.777
ProbeTrack12	4	ProbeTrack	11.3	WolfelabSpurzheim	20101019.114820	20101019.120223	8	0.011765	60	0	60-180	60	87	GapExp	0	104	2	0	0	distractor	1	520	740	96041	11.765	11.753	11.777
ProbeTrack12	4	ProbeTrack	11.3	WolfelabSpurzheim	20101019.114820	20101019.120229	8	0.011765	60	0	60-180	60	149	GapExp	0	105	2	45	1	target	1	367	817	96858	11.765	11.728	11.801
ProbeTrack12	4	ProbeTrack	11.3	WolfelabSpurzheim	20101019.114820	20101019.120235	8	0.011765	60	0	60-180	60	67	GapExp	0	106	2	1	1	target	1	414	793	97651	11.765	11.754	11.775
ProbeTrack12	4	ProbeTrack	11.3	WolfelabSpurzheim	20101019.114820	20101019.120240	8	0.011765	60	10	60-180	60	146	GapExp	0	107	2	45	1	target	1	496	752	98403	11.765	11.754	11.776
ProbeTrack12	4	ProbeTrack	11.3	WolfelabSpurzheim	20101019.114820	20101019.120247	8	0.011765	60	0	60-180	60	146	GapExp	0	108	2	1	1	target	1	449	776	99179	11.765	11.755	11.776
ProbeTrack12	4	ProbeTrack	11.3	WolfelabSpurzheim	20101019.114820	20101019.120253	8	0.011765	60	0	60-180	60	143	GapExp	0	109	2	3	0	distractor	1	555	723	99902	11.765	11.753	11.777
ProbeTrack12	4	ProbeTrack	11.3	WolfelabSpurzheim	20101019.114820	20101019.120259	8	0.011765	60	0	60-180	60	166	GapExp	0	110	2	1	0	distractor	1	578	711	100613	11.765	11.753	11.781
ProbeTrack12	4	ProbeTrack	11.3	WolfelabSpurzheim	20101019.114820	20101019.120307	8	0.011765	60	0	60-180	60	153	GapExp	0	111	2	0	0	distractor	1	449	776	101389	11.765	11.754	11.775
ProbeTrack12	4	ProbeTrack	11.3	WolfelabSpurzheim	20101019.114820	20101019.120321	8	0.011765	60	10	60-180	60	128	GapExp	0	112	2	1	1	target	1	555	723	102112	11.765	11.754	11.775
ProbeTrack12	4	ProbeTrack	11.3	WolfelabSpurzheim	20101019.114820	20101019.120327	8	0.011765	60	0	60-180	60	137	GapExp	0	113	2	1	0	distractor	1	520	740	102852	11.765	11.755	11.776
ProbeTrack12	4	ProbeTrack	11.3	WolfelabSpurzheim	20101019.114820	20101019.120333	8	0.011765	60	0	60-180	60	117	GapExp	0	114	2	45	0	distractor	1	449	776	103628	11.765	11.752	11.775
ProbeTrack12	4	ProbeTrack	11.3	WolfelabSpurzheim	20101019.114820	20101019.120339	8	0.011765	60	0	60-180	60	149	GapExp	0	115	2	3	1	target	1	485	758	104386	11.765	11.754	11.776
ProbeTrack12	4	ProbeTrack	11.3	WolfelabSpurzheim	20101019.114820	20101019.120345	8	0.011765	60	10	60-180	60	175	GapExp	0	116	2	1	0	distractor	1	496	752	105138	11.765	11.741	11.795
ProbeTrack12	4	ProbeTrack	11.3	WolfelabSpurzheim	20101019.114820	20101019.120352	8	0.011765	60	0	60-180	60	72	GapExp	0	117	2	3	1	target	1	543	729	105867	11.765	11.754	11.777
ProbeTrack12	4	ProbeTrack	11.3	WolfelabSpurzheim	20101019.114820	20101019.120357	8	0.011765	60	0	60-180	60	80	GapExp	0	118	2	0	1	target	1	461	770	106637	11.765	11.754	11.775
ProbeTrack12	4	ProbeTrack	11.3	WolfelabSpurzheim	20101019.114820	20101019.120402	8	0.011765	60	0	60-180	60	73	GapExp	0	119	2	45	1	target	1	473	764	107401	11.765	11.754	11.776
ProbeTrack12	4	ProbeTrack	11.3	WolfelabSpurzheim	20101019.114820	20101019.120408	8	0.011765	60	0	60-180	60	171	GapExp	0	120	2	1	0	distractor	1	508	746	108147	11.765	11.742	11.789
ProbeTrack12	4	ProbeTrack	11.3	WolfelabSpurzheim	20101019.114820	20101019.120414	8	0.011765	60	10	60-180	60	86	GapExp	0	121	2	1	0	distractor	1	449	776	108923	11.765	11.712	11.818
ProbeTrack12	4	ProbeTrack	11.3	WolfelabSpurzheim	20101019.114820	20101019.120420	8	0.011765	60	0	60-180	60	165	GapExp	0	122	2	1	0	distractor	1	461	770	109693	11.765	11.754	11.777
ProbeTrack12	4	ProbeTrack	11.3	WolfelabSpurzheim	20101019.114820	20101019.120426	8	0.011765	60	10	60-180	60	152	GapExp	0	123	2	45	1	distractor	0	568	-1000	108693	11.765	11.745	11.790
ProbeTrack12	4	ProbeTrack	11.3	WolfelabSpurzheim	20101019.114820	20101019.120433	8	0.011765	60	0	60-180	60	140	GapExp	0	124	2	0	0	distractor	1	473	764	109457	11.765	11.755	11.776
ProbeTrack12	4	ProbeTrack	11.3	WolfelabSpurzheim	20101019.114820	20101019.120439	8	0.011765	60	10	60-180	60	177	GapExp	0	125	2	3	1	target	1	438	781	110238	11.765	11.750	11.781
ProbeTrack12	4	ProbeTrack	11.3	WolfelabSpurzheim	20101019.114820	20101019.120446	8	0.011765	60	0	60-180	60	69	GapExp	0	126	2	1	0	distractor	1	637	682	110920	11.765	11.670	11.865
ProbeTrack12	4	ProbeTrack	11.3	WolfelabSpurzheim	20101019.114820	20101019.120452	8	0.011765	60	10	60-180	60	130	GapExp	0	127	2	45	1	distractor	0	544	-1000	109920	11.765	11.753	11.775
ProbeTrack12	4	ProbeTrack	11.3	WolfelabSpurzheim	20101019.114820	20101019.120458	8	0.011765	60	0	60-180	60	61	GapExp	0	128	2	1	0	distractor	1	649	676	110596	11.765	11.754	11.776
ProbeTrack12	4	ProbeTrack	11.3	WolfelabSpurzheim	20101019.114820	20101019.120504	8	0.011765	60	0	60-180	60	145	GapExp	0	129	2	0	1	target	1	497	752	111348	11.765	11.754	11.776
ProbeTrack12	4	ProbeTrack	11.3	WolfelabSpurzheim	20101019.114820	20101019.120510	8	0.011765	60	10	60-180	60	81	GapExp	0	130	2	3	0	distractor	1	485	758	112106	11.765	11.756	11.775
ProbeTrack12	4	ProbeTrack	11.3	WolfelabSpurzheim	20101019.114820	20101019.120515	8	0.011765	60	0	60-180	60	120	GapExp	0	131	2	1	1	target	1	532	734	112840	11.765	11.754	11.775
ProbeTrack12	4	ProbeTrack	11.3	WolfelabSpurzheim	20101019.114820	20101019.120521	8	0.011765	60	10	60-180	60	114	GapExp	0	132	2	1	0	distractor	1	426	787	113627	11.765	11.753	11.776
ProbeTrack12	4	ProbeTrack	11.3	WolfelabSpurzheim	20101019.114820	20101019.120527	8	0.011765	60	10	60-180	60	178	GapExp	0	133	2	0	1	target	1	449	776	114403	11.765	11.754	11.776
ProbeTrack12	4	ProbeTrack	11.3	WolfelabSpurzheim	20101019.114820	20101019.120533	8	0.011765	60	10	60-180	60	75	GapExp	0	134	2	3	0	distractor	1	450	775	115178	11.765	11.755	11.776
ProbeTrack12	4	ProbeTrack	11.3	WolfelabSpurzheim	20101019.114820	20101019.120538	8	0.011765	60	10	60-180	60	70	GapExp	0	135	2	3	1	target	1	390	805	115983	11.765	11.755	11.776
ProbeTrack12	4	ProbeTrack	11.3	WolfelabSpurzheim	20101019.114820	20101019.120544	8	0.011765	60	0	60-180	60	148	GapExp	0	136	2	0	1	distractor	0	449	-1000	114983	11.765	11.753	11.777
ProbeTrack12	4	ProbeTrack	11.3	WolfelabSpurzheim	20101019.114820	20101019.120550	8	0.011765	60	0	60-180	60	94	GapExp	0	137	2	0	1	target	1	484	758	115741	11.765	11.754	11.776
ProbeTrack12	4	ProbeTrack	11.3	WolfelabSpurzheim	20101019.114820	20101019.120555	8	0.011765	60	0	60-180	60	69	GapExp	0	138	2	0	0	distractor	1	602	699	116440	11.765	11.733	11.793
ProbeTrack12	4	ProbeTrack	11.3	WolfelabSpurzheim	20101019.114820	20101019.120601	8	0.011765	60	0	60-180	60	176	GapExp	0	139	2	3	0	distractor	1	508	746	117186	11.765	11.754	11.777
ProbeTrack12	4	ProbeTrack	11.3	WolfelabSpurzheim	20101019.114820	20101019.120607	8	0.011765	60	0	60-180	60	79	GapExp	0	140	2	3	1	target	1	437	782	117968	11.765	11.754	11.776
ProbeTrack12	4	ProbeTrack	11.3	WolfelabSpurzheim	20101019.114820	20101019.120612	8	0.011765	60	0	60-180	60	94	GapExp	0	141	2	0	0	distractor	1	555	723	118691	11.765	11.753	11.776
ProbeTrack12	4	ProbeTrack	11.3	WolfelabSpurzheim	20101019.114820	20101019.120630	8	0.011765	60	0	60-180	60	169	GapExp	0	142	2	3	1	target	1	390	805	119496	11.765	11.755	11.776
ProbeTrack12	4	ProbeTrack	11.3	WolfelabSpurzheim	20101019.114820	20101019.120638	8	0.011765	60	10	60-180	60	66	GapExp	0	143	2	1	0	distractor	1	579	711	120207	11.765	11.754	11.776
ProbeTrack12	4	ProbeTrack	11.3	WolfelabSpurzheim	20101019.114820	20101019.120643	8	0.011765	60	10	60-180	60	108	GapExp	0	144	2	1	1	target	1	344	828	121035	11.765	11.753	11.777
ProbeTrack12	4	ProbeTrack	11.3	WolfelabSpurzheim	20101019.114820	20101019.120650	8	0.011765	60	10	60-180	60	160	GapExp	0	145	2	3	1	target	1	367	817	121852	11.765	11.754	11.775
ProbeTrack12	4	ProbeTrack	11.3	WolfelabSpurzheim	20101019.114820	20101019.120659	8	0.011765	60	10	60-180	60	121	GapExp	0	146	2	3	0	distractor	1	532	734	122586	11.765	11.751	11.776
ProbeTrack12	4	ProbeTrack	11.3	WolfelabSpurzheim	20101019.114820	20101019.120708	8	0.011765	60	0	60-180	60	167	GapExp	0	147	2	45	1	target	1	461	770	123356	11.765	11.754	11.776
ProbeTrack12	4	ProbeTrack	11.3	WolfelabSpurzheim	20101019.114820	20101019.120715	8	0.011765	60	0	60-180	60	103	GapExp	0	148	2	0	1	target	1	414	793	124149	11.765	11.755	11.776
ProbeTrack12	4	ProbeTrack	11.3	WolfelabSpurzheim	20101019.114820	20101019.120721	8	0.011765	60	0	60-180	60	122	GapExp	0	149	2	3	0	distractor	1	532	734	124883	11.765	11.754	11.777
ProbeTrack12	4	ProbeTrack	11.3	WolfelabSpurzheim	20101019.114820	20101019.120726	8	0.011765	60	10	60-180	60	116	GapExp	0	150	2	3	1	target	1	402	799	125682	11.765	11.754	11.776
ProbeTrack12	4	ProbeTrack	11.3	WolfelabSpurzheim	20101019.114820	20101019.120732	8	0.011765	60	10	60-180	60	115	GapExp	0	151	2	1	0	target	0	379	-1000	124682	11.765	11.756	11.775
ProbeTrack12	4	ProbeTrack	11.3	WolfelabSpurzheim	20101019.114820	20101019.120738	8	0.011765	60	0	60-180	60	129	GapExp	0	152	2	3	1	target	1	437	782	125464	11.765	11.753	11.776
ProbeTrack12	4	ProbeTrack	11.3	WolfelabSpurzheim	20101019.114820	20101019.120745	8	0.011765	60	10	60-180	60	147	GapExp	0	153	2	0	1	target	1	379	811	126275	11.765	11.754	11.776
ProbeTrack12	4	ProbeTrack	11.3	WolfelabSpurzheim	20101019.114820	20101019.120751	8	0.011765	60	10	60-180	60	99	GapExp	0	154	2	1	1	target	1	438	781	127056	11.765	11.729	11.809
ProbeTrack12	4	ProbeTrack	11.3	WolfelabSpurzheim	20101019.114820	20101019.120757	8	0.011765	60	10	60-180	60	105	GapExp	0	155	2	1	0	distractor	1	544	728	127784	11.765	11.754	11.775
ProbeTrack12	4	ProbeTrack	11.3	WolfelabSpurzheim	20101019.114820	20101019.120803	8	0.011765	60	0	60-180	60	174	GapExp	0	156	2	3	0	distractor	1	461	770	128554	11.765	11.753	11.777
ProbeTrack12	4	ProbeTrack	11.3	WolfelabSpurzheim	20101019.114820	20101019.120809	8	0.011765	60	10	60-180	60	129	GapExp	0	157	2	1	1	target	1	402	799	129353	11.765	11.740	11.791
ProbeTrack12	4	ProbeTrack	11.3	WolfelabSpurzheim	20101019.114820	20101019.120816	8	0.011765	60	10	60-180	60	166	GapExp	0	158	2	1	1	distractor	0	391	-1000	128353	11.765	11.754	11.777
ProbeTrack12	4	ProbeTrack	11.3	WolfelabSpurzheim	20101019.114820	20101019.120822	8	0.011765	60	10	60-180	60	140	GapExp	0	159	2	1	0	distractor	1	544	728	129081	11.765	11.753	11.776
ProbeTrack12	4	ProbeTrack	11.3	WolfelabSpurzheim	20101019.114820	20101019.120829	8	0.011765	60	10	60-180	60	77	GapExp	0	160	2	0	0	distractor	1	508	746	129827	11.765	11.715	11.806
ProbeTrack12	4	ProbeTrack	11.3	WolfelabSpurzheim	20101019.114820	20101019.120834	8	0.011765	60	0	60-180	60	149	GapExp	0	161	2	0	1	target	1	367	817	130644	11.765	11.753	11.777
ProbeTrack12	4	ProbeTrack	11.3	WolfelabSpurzheim	20101019.114820	20101019.120840	8	0.011765	60	10	60-180	60	158	GapExp	0	162	2	0	1	target	1	426	787	131431	11.765	11.752	11.776
ProbeTrack12	4	ProbeTrack	11.3	WolfelabSpurzheim	20101019.114820	20101019.120846	8	0.011765	60	0	60-180	60	119	GapExp	0	163	2	45	0	distractor	1	555	723	132154	11.765	11.753	11.775
ProbeTrack12	4	ProbeTrack	11.3	WolfelabSpurzheim	20101019.114820	20101019.120853	8	0.011765	60	10	60-180	60	68	GapExp	0	164	2	0	1	target	1	485	758	132912	11.765	11.755	11.775
ProbeTrack12	4	ProbeTrack	11.3	WolfelabSpurzheim	20101019.114820	20101019.120858	8	0.011765	60	0	60-180	60	136	GapExp	0	165	2	3	1	target	1	414	793	133705	11.765	11.751	11.776
ProbeTrack12	4	ProbeTrack	11.3	WolfelabSpurzheim	20101019.114820	20101019.120904	8	0.011765	60	0	60-180	60	142	GapExp	0	166	2	0	1	target	1	367	817	134522	11.765	11.754	11.775
ProbeTrack12	4	ProbeTrack	11.3	WolfelabSpurzheim	20101019.114820	20101019.120909	8	0.011765	60	0	60-180	60	119	GapExp	0	167	2	0	1	target	1	438	781	135303	11.765	11.754	11.774
ProbeTrack12	4	ProbeTrack	11.3	WolfelabSpurzheim	20101019.114820	20101019.120915	8	0.011765	60	10	60-180	60	126	GapExp	0	168	2	45	1	target	1	355	823	136126	11.765	11.752	11.776
ProbeTrack12	4	ProbeTrack	11.3	WolfelabSpurzheim	20101019.114820	20101019.120921	8	0.011765	60	0	60-180	60	102	GapExp	0	169	2	0	0	distractor	1	497	752	136878	11.765	11.741	11.784
ProbeTrack12	4	ProbeTrack	11.3	WolfelabSpurzheim	20101019.114820	20101019.120927	8	0.011765	60	0	60-180	60	147	GapExp	0	170	2	3	0	distractor	1	532	734	137612	11.765	11.753	11.776
ProbeTrack12	4	ProbeTrack	11.3	WolfelabSpurzheim	20101019.114820	20101019.120933	8	0.011765	60	10	60-180	60	161	GapExp	0	171	2	45	1	target	1	414	793	138405	11.765	11.740	11.795
ProbeTrack12	4	ProbeTrack	11.3	WolfelabSpurzheim	20101019.114820	20101019.120940	8	0.011765	60	10	60-180	60	107	GapExp	0	172	2	1	0	distractor	1	485	758	139163	11.765	11.733	11.800
ProbeTrack12	4	ProbeTrack	11.3	WolfelabSpurzheim	20101019.114820	20101019.120947	8	0.011765	60	10	60-180	60	109	GapExp	0	173	2	45	1	distractor	0	544	-1000	138163	11.765	11.755	11.777
ProbeTrack12	4	ProbeTrack	11.3	WolfelabSpurzheim	20101019.114820	20101019.120954	8	0.011765	60	10	60-180	60	174	GapExp	0	174	2	0	0	distractor	1	567	717	138880	11.765	11.754	11.777
ProbeTrack12	4	ProbeTrack	11.3	WolfelabSpurzheim	20101019.114820	20101019.121001	8	0.011765	60	0	60-180	60	64	GapExp	0	175	2	45	1	target	1	438	781	139661	11.765	11.738	11.791
ProbeTrack12	4	ProbeTrack	11.3	WolfelabSpurzheim	20101019.114820	20101019.121006	8	0.011765	60	10	60-180	60	149	GapExp	0	176	2	0	1	target	1	379	811	140472	11.765	11.754	11.776
ProbeTrack12	4	ProbeTrack	11.3	WolfelabSpurzheim	20101019.114820	20101019.121012	8	0.011765	60	0	60-180	60	123	GapExp	0	177	2	3	1	target	1	414	793	141265	11.765	11.755	11.776
ProbeTrack12	4	ProbeTrack	11.3	WolfelabSpurzheim	20101019.114820	20101019.121018	8	0.011765	60	10	60-180	60	160	GapExp	0	178	2	3	0	distractor	1	473	764	142029	11.765	11.753	11.777
ProbeTrack12	4	ProbeTrack	11.3	WolfelabSpurzheim	20101019.114820	20101019.121024	8	0.011765	60	10	60-180	60	124	GapExp	0	179	2	0	0	target	0	579	-1000	141029	11.765	11.753	11.776
ProbeTrack12	4	ProbeTrack	11.3	WolfelabSpurzheim	20101019.114820	20101019.121030	8	0.011765	60	0	60-180	60	101	GapExp	0	180	2	3	0	distractor	1	485	758	141787	11.765	11.754	11.776
ProbeTrack12	4	ProbeTrack	11.3	WolfelabSpurzheim	20101019.114820	20101019.121036	8	0.011765	60	0	60-180	60	102	GapExp	0	181	2	3	0	distractor	1	509	746	142533	11.765	11.685	11.853
ProbeTrack12	4	ProbeTrack	11.3	WolfelabSpurzheim	20101019.114820	20101019.121042	8	0.011765	60	0	60-180	60	139	GapExp	0	182	2	45	0	distractor	1	485	758	143291	11.765	11.754	11.777
ProbeTrack12	4	ProbeTrack	11.3	WolfelabSpurzheim	20101019.114820	20101019.121049	8	0.011765	60	10	60-180	60	139	GapExp	0	183	2	1	1	target	1	450	775	144066	11.765	11.754	11.775
ProbeTrack12	4	ProbeTrack	11.3	WolfelabSpurzheim	20101019.114820	20101019.121055	8	0.011765	60	0	60-180	60	106	GapExp	0	184	2	3	1	target	1	449	776	144842	11.765	11.754	11.777
ProbeTrack12	4	ProbeTrack	11.3	WolfelabSpurzheim	20101019.114820	20101019.121100	8	0.011765	60	0	60-180	60	86	GapExp	0	185	2	1	0	distractor	1	626	687	145529	11.765	11.754	11.775
ProbeTrack12	4	ProbeTrack	11.3	WolfelabSpurzheim	20101019.114820	20101019.121106	8	0.011765	60	0	60-180	60	171	GapExp	0	186	2	1	1	target	1	661	670	146199	11.765	11.755	11.776
ProbeTrack12	4	ProbeTrack	11.3	WolfelabSpurzheim	20101019.114820	20101019.121113	8	0.011765	60	10	60-180	60	95	GapExp	0	187	2	45	0	target	0	520	-1000	145199	11.765	11.753	11.777
ProbeTrack12	4	ProbeTrack	11.3	WolfelabSpurzheim	20101019.114820	20101019.121119	8	0.011765	60	10	60-180	60	157	GapExp	0	188	2	3	1	target	1	450	775	145974	11.765	11.753	11.777
ProbeTrack12	4	ProbeTrack	11.3	WolfelabSpurzheim	20101019.114820	20101019.121127	8	0.011765	60	10	60-180	60	152	GapExp	0	189	2	45	1	target	1	391	805	146779	11.765	11.755	11.776
ProbeTrack12	4	ProbeTrack	11.3	WolfelabSpurzheim	20101019.114820	20101019.121137	8	0.011765	60	10	60-180	60	152	GapExp	0	190	2	45	0	distractor	1	719	641	147420	11.765	11.754	11.777
ProbeTrack12	4	ProbeTrack	11.3	WolfelabSpurzheim	20101019.114820	20101019.121144	8	0.011765	60	0	60-180	60	86	GapExp	0	191	2	45	0	distractor	1	520	740	148160	11.765	11.754	11.776
ProbeTrack12	4	ProbeTrack	11.3	WolfelabSpurzheim	20101019.114820	20101019.121150	8	0.011765	60	10	60-180	60	167	GapExp	0	192	2	0	0	distractor	1	485	758	148918	11.765	11.753	11.777
ProbeTrack12	4	ProbeTrack	11.3	WolfelabSpurzheim	20101019.114820	20101019.121200	8	0.011765	60	10	60-180	60	155	GapExp	0	193	2	0	1	target	1	731	635	149553	11.765	11.755	11.776
ProbeTrack12	4	ProbeTrack	11.3	WolfelabSpurzheim	20101019.114820	20101019.121206	8	0.011765	60	0	60-180	60	80	GapExp	0	194	2	3	1	target	1	391	805	150358	11.765	11.748	11.786
ProbeTrack12	4	ProbeTrack	11.3	WolfelabSpurzheim	20101019.114820	20101019.121211	8	0.011765	60	10	60-180	60	160	GapExp	0	195	2	3	0	distractor	1	473	764	151122	11.765	11.741	11.783
ProbeTrack12	4	ProbeTrack	11.3	WolfelabSpurzheim	20101019.114820	20101019.121224	8	0.011765	60	0	60-180	60	176	GapExp	0	196	2	0	0	distractor	1	532	734	151856	11.765	11.751	11.779
ProbeTrack12	4	ProbeTrack	11.3	WolfelabSpurzheim	20101019.114820	20101019.121231	8	0.011765	60	10	60-180	60	150	GapExp	0	197	2	3	1	target	1	438	781	152637	11.765	11.753	11.776
ProbeTrack12	4	ProbeTrack	11.3	WolfelabSpurzheim	20101019.114820	20101019.121238	8	0.011765	60	0	60-180	60	84	GapExp	0	198	2	0	1	target	1	449	776	153413	11.765	11.753	11.776
ProbeTrack12	4	ProbeTrack	11.3	WolfelabSpurzheim	20101019.114820	20101019.121244	8	0.011765	60	0	60-180	60	78	GapExp	0	199	2	45	1	target	1	379	811	154224	11.765	11.753	11.776
ProbeTrack12	4	ProbeTrack	11.3	WolfelabSpurzheim	20101019.114820	20101019.121256	8	0.011765	60	10	60-180	60	126	GapExp	0	200	2	45	0	distractor	1	520	740	154964	11.765	11.754	11.777
ProbeTrack12	4	ProbeTrack	11.3	WolfelabSpurzheim	20101019.114820	20101019.121322	8	0.011765	60	10	60-180	60	132	GapExp	0	201	2	45	0	target	0	402	-1000	153964	11.765	11.753	11.776
ProbeTrack12	4	ProbeTrack	11.3	WolfelabSpurzheim	20101019.114820	20101019.121330	8	0.011765	60	10	60-180	60	158	GapExp	0	202	2	3	0	distractor	1	485	758	154722	11.765	11.754	11.776
ProbeTrack12	4	ProbeTrack	11.3	WolfelabSpurzheim	20101019.114820	20101019.121356	8	0.011765	60	0	60-180	60	125	GapExp	0	203	2	0	1	target	1	437	782	155504	11.765	11.754	11.775
ProbeTrack12	4	ProbeTrack	11.3	WolfelabSpurzheim	20101019.114820	20101019.121403	8	0.011765	60	0	60-180	60	134	GapExp	0	204	2	0	1	distractor	0	402	-1000	154504	11.765	11.754	11.776
ProbeTrack12	4	ProbeTrack	11.3	WolfelabSpurzheim	20101019.114820	20101019.121409	8	0.011765	60	10	60-180	60	87	GapExp	0	205	2	0	1	target	1	402	799	155303	11.765	11.755	11.777
ProbeTrack12	4	ProbeTrack	11.3	WolfelabSpurzheim	20101019.114820	20101019.121416	8	0.011765	60	10	60-180	60	141	GapExp	0	206	2	3	1	target	1	320	840	156143	11.765	11.753	11.776
ProbeTrack12	4	ProbeTrack	11.3	WolfelabSpurzheim	20101019.114820	20101019.121422	8	0.011765	60	0	60-180	60	76	GapExp	0	207	2	0	1	target	1	402	799	156942	11.765	11.755	11.776
ProbeTrack12	4	ProbeTrack	11.3	WolfelabSpurzheim	20101019.114820	20101019.121427	8	0.011765	60	10	60-180	60	93	GapExp	0	208	2	0	1	target	1	390	805	157747	11.765	11.754	11.776
ProbeTrack12	4	ProbeTrack	11.3	WolfelabSpurzheim	20101019.114820	20101019.121433	8	0.011765	60	0	60-180	60	143	GapExp	0	209	2	3	0	distractor	1	543	729	158476	11.765	11.754	11.776
ProbeTrack12	4	ProbeTrack	11.3	WolfelabSpurzheim	20101019.114820	20101019.121440	8	0.011765	60	0	60-180	60	180	GapExp	0	210	2	45	1	distractor	0	708	-1000	157476	11.765	11.737	11.790
ProbeTrack12	4	ProbeTrack	11.3	WolfelabSpurzheim	20101019.114820	20101019.121447	8	0.011765	60	0	60-180	60	79	GapExp	0	211	2	3	0	distractor	1	673	664	158140	11.765	11.753	11.777
ProbeTrack12	4	ProbeTrack	11.3	WolfelabSpurzheim	20101019.114820	20101019.121453	8	0.011765	60	10	60-180	60	130	GapExp	0	212	2	1	1	target	1	543	729	158869	11.765	11.724	11.805
ProbeTrack12	4	ProbeTrack	11.3	WolfelabSpurzheim	20101019.114820	20101019.121459	8	0.011765	60	0	60-180	60	176	GapExp	0	213	2	45	1	target	1	437	782	159651	11.765	11.738	11.787
ProbeTrack12	4	ProbeTrack	11.3	WolfelabSpurzheim	20101019.114820	20101019.121506	8	0.011765	60	0	60-180	60	150	GapExp	0	214	2	45	0	distractor	1	496	752	160403	11.765	11.753	11.778
ProbeTrack12	4	ProbeTrack	11.3	WolfelabSpurzheim	20101019.114820	20101019.121512	8	0.011765	60	0	60-180	60	84	GapExp	0	215	2	45	1	target	1	426	787	161190	11.765	11.754	11.777
ProbeTrack12	4	ProbeTrack	11.3	WolfelabSpurzheim	20101019.114820	20101019.121522	8	0.011765	60	0	60-180	60	72	GapExp	0	216	2	0	0	distractor	1	684	658	161848	11.765	11.755	11.776
ProbeTrack12	4	ProbeTrack	11.3	WolfelabSpurzheim	20101019.114820	20101019.121527	8	0.011765	60	0	60-180	60	128	GapExp	0	217	2	3	1	distractor	0	543	-1000	160848	11.765	11.754	11.777
ProbeTrack12	4	ProbeTrack	11.3	WolfelabSpurzheim	20101019.114820	20101019.121533	8	0.011765	60	10	60-180	60	106	GapExp	0	218	2	45	1	distractor	0	543	-1000	159848	11.765	11.754	11.776
ProbeTrack12	4	ProbeTrack	11.3	WolfelabSpurzheim	20101019.114820	20101019.121543	8	0.011765	60	10	60-180	60	90	GapExp	0	219	2	3	1	target	1	426	787	160635	11.765	11.753	11.775
ProbeTrack12	4	ProbeTrack	11.3	WolfelabSpurzheim	20101019.114820	20101019.121549	8	0.011765	60	0	60-180	60	89	GapExp	0	220	2	1	1	target	1	438	781	161416	11.765	11.754	11.776
ProbeTrack12	4	ProbeTrack	11.3	WolfelabSpurzheim	20101019.114820	20101019.121554	8	0.011765	60	10	60-180	60	141	GapExp	0	221	2	45	0	distractor	1	473	764	162180	11.765	11.754	11.776
ProbeTrack12	4	ProbeTrack	11.3	WolfelabSpurzheim	20101019.114820	20101019.121601	8	0.011765	60	0	60-180	60	142	GapExp	0	222	2	0	0	distractor	1	496	752	162932	11.765	11.754	11.776
ProbeTrack12	4	ProbeTrack	11.3	WolfelabSpurzheim	20101019.114820	20101019.121607	8	0.011765	60	0	60-180	60	159	GapExp	0	223	2	3	0	distractor	1	485	758	163690	11.765	11.754	11.777
ProbeTrack12	4	ProbeTrack	11.3	WolfelabSpurzheim	20101019.114820	20101019.121614	8	0.011765	60	10	60-180	60	91	GapExp	0	224	2	1	0	distractor	1	544	728	164418	11.765	11.753	11.775
ProbeTrack12	4	ProbeTrack	11.3	WolfelabSpurzheim	20101019.114820	20101019.121620	8	0.011765	60	0	60-180	60	128	GapExp	0	225	2	3	1	target	1	496	752	165170	11.765	11.753	11.777
ProbeTrack12	4	ProbeTrack	11.3	WolfelabSpurzheim	20101019.114820	20101019.121626	8	0.011765	60	0	60-180	60	66	GapExp	0	226	2	1	1	target	1	626	687	165857	11.765	11.755	11.777
ProbeTrack12	4	ProbeTrack	11.3	WolfelabSpurzheim	20101019.114820	20101019.121631	8	0.011765	60	10	60-180	60	91	GapExp	0	227	2	0	0	target	0	544	-1000	164857	11.765	11.754	11.776
ProbeTrack12	4	ProbeTrack	11.3	WolfelabSpurzheim	20101019.114820	20101019.121637	8	0.011765	60	10	60-180	60	134	GapExp	0	228	2	3	1	target	1	461	770	165627	11.765	11.755	11.777
ProbeTrack12	4	ProbeTrack	11.3	WolfelabSpurzheim	20101019.114820	20101019.121644	8	0.011765	60	10	60-180	60	105	GapExp	0	229	2	1	1	target	1	414	793	166420	11.765	11.755	11.776
ProbeTrack12	4	ProbeTrack	11.3	WolfelabSpurzheim	20101019.114820	20101019.121650	8	0.011765	60	0	60-180	60	95	GapExp	0	230	2	1	0	distractor	1	637	682	167102	11.765	11.754	11.776
ProbeTrack12	4	ProbeTrack	11.3	WolfelabSpurzheim	20101019.114820	20101019.121700	8	0.011765	60	0	60-180	60	126	GapExp	0	231	2	45	0	distractor	1	438	781	167883	11.765	11.753	11.776
ProbeTrack12	4	ProbeTrack	11.3	WolfelabSpurzheim	20101019.114820	20101019.121706	8	0.011765	60	0	60-180	60	175	GapExp	0	232	2	1	1	target	1	438	781	168664	11.765	11.731	11.798
ProbeTrack12	4	ProbeTrack	11.3	WolfelabSpurzheim	20101019.114820	20101019.121712	8	0.011765	60	0	60-180	60	116	GapExp	0	233	2	0	1	target	1	355	823	169487	11.765	11.754	11.775
ProbeTrack12	4	ProbeTrack	11.3	WolfelabSpurzheim	20101019.114820	20101019.121718	8	0.011765	60	0	60-180	60	155	GapExp	0	234	2	1	0	distractor	1	520	740	170227	11.765	11.754	11.777
ProbeTrack12	4	ProbeTrack	11.3	WolfelabSpurzheim	20101019.114820	20101019.121724	8	0.011765	60	10	60-180	60	180	GapExp	0	235	2	45	0	distractor	1	485	758	170985	11.765	11.754	11.776
ProbeTrack12	4	ProbeTrack	11.3	WolfelabSpurzheim	20101019.114820	20101019.121731	8	0.011765	60	10	60-180	60	154	GapExp	0	236	2	0	0	distractor	1	696	652	171637	11.765	11.754	11.777
ProbeTrack12	4	ProbeTrack	11.3	WolfelabSpurzheim	20101019.114820	20101019.121738	8	0.011765	60	10	60-180	60	86	GapExp	0	237	2	1	0	target	0	438	-1000	170637	11.765	11.753	11.777
ProbeTrack12	4	ProbeTrack	11.3	WolfelabSpurzheim	20101019.114820	20101019.121743	8	0.011765	60	0	60-180	60	178	GapExp	0	238	2	45	1	target	1	426	787	171424	11.765	11.753	11.776
ProbeTrack12	4	ProbeTrack	11.3	WolfelabSpurzheim	20101019.114820	20101019.121750	8	0.011765	60	0	60-180	60	137	GapExp	0	239	2	45	1	target	1	426	787	172211	11.765	11.753	11.777
ProbeTrack12	4	ProbeTrack	11.3	WolfelabSpurzheim	20101019.114820	20101019.121757	8	0.011765	60	10	60-180	60	77	GapExp	0	240	2	1	0	target	0	414	-1000	171211	11.765	11.755	11.775
ProbeTrack12	4	ProbeTrack	11.3	WolfelabSpurzheim	20101019.114820	20101019.121802	8	0.011765	60	10	60-180	60	134	GapExp	0	241	2	0	1	target	1	532	734	171945	11.765	11.754	11.776
ProbeTrack12	4	ProbeTrack	11.3	WolfelabSpurzheim	20101019.114820	20101019.121808	8	0.011765	60	10	60-180	60	152	GapExp	0	242	2	3	0	distractor	1	438	781	172726	11.765	11.755	11.776
ProbeTrack12	4	ProbeTrack	11.3	WolfelabSpurzheim	20101019.114820	20101019.121814	8	0.011765	60	10	60-180	60	70	GapExp	0	243	2	0	0	distractor	1	449	776	173502	11.765	11.738	11.794
ProbeTrack12	4	ProbeTrack	11.3	WolfelabSpurzheim	20101019.114820	20101019.121820	8	0.011765	60	10	60-180	60	171	GapExp	0	244	2	45	1	distractor	0	402	-1000	172502	11.765	11.754	11.776
ProbeTrack12	4	ProbeTrack	11.3	WolfelabSpurzheim	20101019.114820	20101019.121827	8	0.011765	60	0	60-180	60	113	GapExp	0	245	2	45	0	distractor	1	485	758	173260	11.765	11.754	11.776
ProbeTrack12	4	ProbeTrack	11.3	WolfelabSpurzheim	20101019.114820	20101019.121833	8	0.011765	60	10	60-180	60	82	GapExp	0	246	2	1	1	distractor	0	567	-1000	172260	11.765	11.754	11.776
ProbeTrack12	4	ProbeTrack	11.3	WolfelabSpurzheim	20101019.114820	20101019.121839	8	0.011765	60	0	60-180	60	167	GapExp	0	247	2	0	0	distractor	1	520	740	173000	11.765	11.753	11.776
ProbeTrack12	4	ProbeTrack	11.3	WolfelabSpurzheim	20101019.114820	20101019.121845	8	0.011765	60	10	60-180	60	133	GapExp	0	248	2	1	0	distractor	1	543	729	173729	11.765	11.755	11.775
ProbeTrack12	4	ProbeTrack	11.3	WolfelabSpurzheim	20101019.114820	20101019.121851	8	0.011765	60	0	60-180	60	162	GapExp	0	249	2	0	0	distractor	1	438	781	174510	11.765	11.754	11.777
ProbeTrack12	4	ProbeTrack	11.3	WolfelabSpurzheim	20101019.114820	20101019.121900	8	0.011765	60	0	60-180	60	112	GapExp	0	250	2	45	0	distractor	1	496	752	175262	11.765	11.730	11.801
ProbeTrack12	4	ProbeTrack	11.3	WolfelabSpurzheim	20101019.121958	20101019.122021	8	0.011766	60	0	60-180	60	107	GapExp	1	1	2	45	1	target	1	508	746	176008	11.938	11.754	35.292
ProbeTrack12	4	ProbeTrack	11.3	WolfelabSpurzheim	20101019.121958	20101019.122031	8	0.011766	60	0	60-180	60	85	GapExp	1	2	2	45	0	distractor	1	508	746	176754	11.812	11.753	23.535
ProbeTrack12	4	ProbeTrack	11.3	WolfelabSpurzheim	20101019.121958	20101019.122037	8	0.011766	60	10	60-180	60	117	GapExp	1	3	2	3	1	target	1	473	764	177518	11.765	11.755	11.775
ProbeTrack12	4	ProbeTrack	11.3	WolfelabSpurzheim	20101019.121958	20101019.122158	8	0.011766	60	10	60-180	60	150	GapExp	1	4	2	3	0	distractor	1	473	764	178282	11.849	11.754	11.778
ProbeTrack12	4	ProbeTrack	11.3	WolfelabSpurzheim	20101019.121958	20101019.122206	8	0.011766	60	10	60-180	60	92	GapExp	1	5	2	45	0	distractor	1	461	770	179052	11.765	11.732	11.790
ProbeTrack12	4	ProbeTrack	11.3	WolfelabSpurzheim	20101019.121958	20101019.122214	8	0.011766	60	10	60-180	60	125	GapExp	1	6	2	1	1	target	1	426	787	179839	11.765	11.754	11.776
ProbeTrack12	4	ProbeTrack	11.3	WolfelabSpurzheim	20101019.121958	20101019.122221	8	0.011766	60	0	60-180	60	136	GapExp	1	7	2	1	1	target	1	473	764	180603	11.765	11.754	11.776
ProbeTrack12	4	ProbeTrack	11.3	WolfelabSpurzheim	20101019.121958	20101019.122227	8	0.011766	60	0	60-180	60	96	GapExp	1	8	2	3	0	distractor	1	590	705	181308	11.765	11.754	11.775
ProbeTrack12	4	ProbeTrack	11.3	WolfelabSpurzheim	20101019.121958	20101019.122232	8	0.011766	60	10	60-180	60	144	GapExp	1	9	2	1	0	distractor	1	473	764	182072	11.765	11.753	11.777
ProbeTrack12	4	ProbeTrack	11.3	WolfelabSpurzheim	20101019.121958	20101019.122239	8	0.011766	60	10	60-180	60	157	GapExp	1	10	2	0	1	target	1	696	652	182724	11.765	11.751	11.777
ProbeTrack12	4	ProbeTrack	11.3	WolfelabSpurzheim	20101019.121958	20101019.122245	8	0.011766	60	10	60-180	60	174	GapExp	0	11	2	45	0	distractor	1	496	752	183476	11.765	11.755	11.776
ProbeTrack12	4	ProbeTrack	11.3	WolfelabSpurzheim	20101019.121958	20101019.122254	8	0.011766	60	10	60-180	60	173	GapExp	0	12	2	45	0	distractor	1	485	758	184234	11.765	11.752	11.779
ProbeTrack12	4	ProbeTrack	11.3	WolfelabSpurzheim	20101019.121958	20101019.122301	8	0.011766	60	0	60-180	60	146	GapExp	0	13	2	3	1	target	1	614	693	184927	11.765	11.742	11.784
ProbeTrack12	4	ProbeTrack	11.3	WolfelabSpurzheim	20101019.121958	20101019.122307	8	0.011766	60	0	60-180	60	82	GapExp	0	14	2	0	0	distractor	1	555	723	185650	11.765	11.752	11.785
ProbeTrack12	4	ProbeTrack	11.3	WolfelabSpurzheim	20101019.121958	20101019.122313	8	0.011766	60	0	60-180	60	127	GapExp	0	15	2	3	1	target	1	531	735	186385	11.765	11.754	11.778
ProbeTrack12	4	ProbeTrack	11.3	WolfelabSpurzheim	20101019.121958	20101019.122319	8	0.011766	60	10	60-180	60	180	GapExp	0	16	2	1	1	target	1	508	746	187131	11.765	11.738	11.797
ProbeTrack12	4	ProbeTrack	11.3	WolfelabSpurzheim	20101019.121958	20101019.122326	8	0.011766	60	0	60-180	60	112	GapExp	0	17	2	45	1	target	1	426	787	187918	11.765	11.754	11.778
ProbeTrack12	4	ProbeTrack	11.3	WolfelabSpurzheim	20101019.121958	20101019.122332	8	0.011766	60	10	60-180	60	63	GapExp	0	18	2	0	1	target	1	438	781	188699	11.765	11.753	11.776
ProbeTrack12	4	ProbeTrack	11.3	WolfelabSpurzheim	20101019.121958	20101019.122337	8	0.011766	60	10	60-180	60	105	GapExp	0	19	2	3	1	target	1	402	799	189498	11.816	11.753	23.532
ProbeTrack12	4	ProbeTrack	11.3	WolfelabSpurzheim	20101019.121958	20101019.122342	8	0.011766	60	10	60-180	60	152	GapExp	0	20	2	45	0	distractor	1	496	752	190250	11.765	11.732	11.798
ProbeTrack12	4	ProbeTrack	11.3	WolfelabSpurzheim	20101019.121958	20101019.122349	8	0.011766	60	10	60-180	60	112	GapExp	0	21	2	1	1	target	1	391	805	191055	11.765	11.752	11.780
ProbeTrack12	4	ProbeTrack	11.3	WolfelabSpurzheim	20101019.121958	20101019.122354	8	0.011766	60	10	60-180	60	178	GapExp	0	22	2	3	1	target	1	367	817	191872	11.765	11.752	11.777
ProbeTrack12	4	ProbeTrack	11.3	WolfelabSpurzheim	20101019.121958	20101019.122401	8	0.011766	60	0	60-180	60	122	GapExp	0	23	2	3	0	distractor	1	508	746	192618	11.765	11.753	11.777
ProbeTrack12	4	ProbeTrack	11.3	WolfelabSpurzheim	20101019.121958	20101019.122407	8	0.011766	60	0	60-180	60	115	GapExp	0	24	2	45	1	target	1	543	729	193347	11.765	11.754	11.777
ProbeTrack12	4	ProbeTrack	11.3	WolfelabSpurzheim	20101019.121958	20101019.122413	8	0.011766	60	10	60-180	60	132	GapExp	0	25	2	3	1	distractor	0	438	-1000	192347	11.765	11.752	11.778
ProbeTrack12	4	ProbeTrack	11.3	WolfelabSpurzheim	20101019.121958	20101019.122419	8	0.011766	60	10	60-180	60	137	GapExp	0	26	2	1	0	distractor	1	520	740	193087	11.765	11.754	11.775
ProbeTrack12	4	ProbeTrack	11.3	WolfelabSpurzheim	20101019.121958	20101019.122425	8	0.011766	60	0	60-180	60	121	GapExp	0	27	2	0	1	target	1	508	746	193833	11.765	11.754	11.775
ProbeTrack12	4	ProbeTrack	11.3	WolfelabSpurzheim	20101019.121958	20101019.122431	8	0.011766	60	0	60-180	60	116	GapExp	0	28	2	45	1	target	1	343	829	194662	11.765	11.745	11.787
ProbeTrack12	4	ProbeTrack	11.3	WolfelabSpurzheim	20101019.121958	20101019.122437	8	0.011766	60	10	60-180	60	76	GapExp	0	29	2	3	0	distractor	1	485	758	195420	11.765	11.754	11.777
ProbeTrack12	4	ProbeTrack	11.3	WolfelabSpurzheim	20101019.121958	20101019.122443	8	0.011766	60	0	60-180	60	95	GapExp	0	30	2	45	0	distractor	1	590	705	196125	11.765	11.753	11.776
ProbeTrack12	4	ProbeTrack	11.3	WolfelabSpurzheim	20101019.121958	20101019.122449	8	0.011766	60	0	60-180	60	88	GapExp	0	31	2	0	0	distractor	1	450	775	196900	11.765	11.753	11.777
ProbeTrack12	4	ProbeTrack	11.3	WolfelabSpurzheim	20101019.121958	20101019.122454	8	0.011766	60	10	60-180	60	105	GapExp	0	32	2	3	0	distractor	1	473	764	197664	11.765	11.753	11.777
ProbeTrack12	4	ProbeTrack	11.3	WolfelabSpurzheim	20101019.121958	20101019.122459	8	0.011766	60	0	60-180	60	125	GapExp	0	33	2	3	0	distractor	1	484	758	198422	11.765	11.754	11.783
ProbeTrack12	4	ProbeTrack	11.3	WolfelabSpurzheim	20101019.121958	20101019.122505	8	0.011766	60	0	60-180	60	169	GapExp	0	34	2	3	0	distractor	1	485	758	199180	11.765	11.727	11.808
ProbeTrack12	4	ProbeTrack	11.3	WolfelabSpurzheim	20101019.121958	20101019.122512	8	0.011766	60	10	60-180	60	141	GapExp	0	35	2	0	1	distractor	0	614	-1000	198180	11.765	11.730	11.791
ProbeTrack12	4	ProbeTrack	11.3	WolfelabSpurzheim	20101019.121958	20101019.122518	8	0.011766	60	0	60-180	60	127	GapExp	0	36	2	0	0	distractor	1	696	652	198832	11.765	11.736	11.776
ProbeTrack12	4	ProbeTrack	11.3	WolfelabSpurzheim	20101019.121958	20101019.122537	8	0.011766	60	0	60-180	60	98	GapExp	0	37	2	3	1	target	1	449	776	199608	11.765	11.752	11.779
ProbeTrack12	4	ProbeTrack	11.3	WolfelabSpurzheim	20101019.121958	20101019.122543	8	0.011766	60	10	60-180	60	143	GapExp	0	38	2	3	1	target	1	473	764	200372	11.765	11.752	11.777
ProbeTrack12	4	ProbeTrack	11.3	WolfelabSpurzheim	20101019.121958	20101019.122549	8	0.011766	60	0	60-180	60	178	GapExp	0	39	2	0	0	distractor	1	473	764	201136	11.765	11.754	11.776
ProbeTrack12	4	ProbeTrack	11.3	WolfelabSpurzheim	20101019.121958	20101019.122555	8	0.011766	60	10	60-180	60	119	GapExp	0	40	2	45	0	target	0	450	-1000	200136	11.765	11.753	11.777
ProbeTrack12	4	ProbeTrack	11.3	WolfelabSpurzheim	20101019.121958	20101019.122602	8	0.011766	60	0	60-180	60	130	GapExp	0	41	2	1	0	distractor	1	555	723	200859	11.765	11.751	11.776
ProbeTrack12	4	ProbeTrack	11.3	WolfelabSpurzheim	20101019.121958	20101019.122608	8	0.011766	60	10	60-180	60	114	GapExp	0	42	2	1	1	target	1	450	775	201634	11.765	11.753	11.777
ProbeTrack12	4	ProbeTrack	11.3	WolfelabSpurzheim	20101019.121958	20101019.122615	8	0.011766	60	0	60-180	60	111	GapExp	0	43	2	0	1	target	1	590	705	202339	11.765	11.753	11.776
ProbeTrack12	4	ProbeTrack	11.3	WolfelabSpurzheim	20101019.121958	20101019.122621	8	0.011766	60	10	60-180	60	137	GapExp	0	44	2	1	1	target	1	379	811	203150	11.765	11.735	11.788
ProbeTrack12	4	ProbeTrack	11.3	WolfelabSpurzheim	20101019.121958	20101019.122627	8	0.011766	60	10	60-180	60	123	GapExp	0	45	2	45	0	distractor	1	462	769	203919	11.765	11.754	11.777
ProbeTrack12	4	ProbeTrack	11.3	WolfelabSpurzheim	20101019.121958	20101019.122634	8	0.011766	60	10	60-180	60	84	GapExp	0	46	2	0	1	target	1	402	799	204718	11.765	11.754	11.777
ProbeTrack12	4	ProbeTrack	11.3	WolfelabSpurzheim	20101019.121958	20101019.122639	8	0.011766	60	10	60-180	60	107	GapExp	0	47	2	0	0	distractor	1	461	770	205488	11.765	11.729	11.811
ProbeTrack12	4	ProbeTrack	11.3	WolfelabSpurzheim	20101019.121958	20101019.122644	8	0.011766	60	0	60-180	60	67	GapExp	0	48	2	3	0	distractor	1	520	740	206228	11.765	11.754	11.777
ProbeTrack12	4	ProbeTrack	11.3	WolfelabSpurzheim	20101019.121958	20101019.122650	8	0.011766	60	10	60-180	60	166	GapExp	0	49	2	45	0	distractor	1	532	734	206962	11.765	11.753	11.777
ProbeTrack12	4	ProbeTrack	11.3	WolfelabSpurzheim	20101019.121958	20101019.122657	8	0.011766	60	10	60-180	60	114	GapExp	0	50	2	1	0	distractor	1	473	764	207726	11.765	11.755	11.776
ProbeTrack12	4	ProbeTrack	11.3	WolfelabSpurzheim	20101019.121958	20101019.122702	8	0.011766	60	10	60-180	60	127	GapExp	0	51	2	45	0	distractor	1	544	728	208454	11.765	11.752	11.782
ProbeTrack12	4	ProbeTrack	11.3	WolfelabSpurzheim	20101019.121958	20101019.122709	8	0.011766	60	0	60-180	60	172	GapExp	0	52	2	3	1	target	1	450	775	209229	11.765	11.754	11.777
ProbeTrack12	4	ProbeTrack	11.3	WolfelabSpurzheim	20101019.121958	20101019.122723	8	0.011766	60	0	60-180	60	70	GapExp	0	53	2	45	1	target	1	450	775	210004	11.765	11.753	11.776
ProbeTrack12	4	ProbeTrack	11.3	WolfelabSpurzheim	20101019.121958	20101019.122728	8	0.011766	60	10	60-180	60	124	GapExp	0	54	2	1	1	target	1	367	817	210821	11.765	11.750	11.777
ProbeTrack12	4	ProbeTrack	11.3	WolfelabSpurzheim	20101019.121958	20101019.122734	8	0.011766	60	10	60-180	60	68	GapExp	0	55	2	45	1	target	1	532	734	211555	11.765	11.754	11.777
ProbeTrack12	4	ProbeTrack	11.3	WolfelabSpurzheim	20101019.121958	20101019.122740	8	0.011766	60	0	60-180	60	63	GapExp	0	56	2	3	0	distractor	1	544	728	212283	11.765	11.748	11.781
ProbeTrack12	4	ProbeTrack	11.3	WolfelabSpurzheim	20101019.121958	20101019.122745	8	0.011766	60	0	60-180	60	134	GapExp	0	57	2	3	1	target	1	402	799	213082	11.765	11.754	11.776
ProbeTrack12	4	ProbeTrack	11.3	WolfelabSpurzheim	20101019.121958	20101019.122751	8	0.011766	60	10	60-180	60	142	GapExp	0	58	2	1	1	target	1	603	699	213781	11.765	11.744	11.785
ProbeTrack12	4	ProbeTrack	11.3	WolfelabSpurzheim	20101019.121958	20101019.122757	8	0.011766	60	10	60-180	60	109	GapExp	0	59	2	3	1	target	1	508	746	214527	11.765	11.754	11.777
ProbeTrack12	4	ProbeTrack	11.3	WolfelabSpurzheim	20101019.121958	20101019.122803	8	0.011766	60	0	60-180	60	99	GapExp	0	60	2	45	1	target	1	461	770	215297	11.765	11.753	11.776
ProbeTrack12	4	ProbeTrack	11.3	WolfelabSpurzheim	20101019.121958	20101019.122809	8	0.011766	60	10	60-180	60	167	GapExp	0	61	2	1	0	distractor	1	555	723	216020	11.765	11.728	11.796
ProbeTrack12	4	ProbeTrack	11.3	WolfelabSpurzheim	20101019.121958	20101019.122816	8	0.011766	60	0	60-180	60	156	GapExp	0	62	2	1	1	target	1	520	740	216760	11.765	11.753	11.778
ProbeTrack12	4	ProbeTrack	11.3	WolfelabSpurzheim	20101019.121958	20101019.122822	8	0.011766	60	0	60-180	60	147	GapExp	0	63	2	0	1	target	1	402	799	217559	11.765	11.739	11.792
ProbeTrack12	4	ProbeTrack	11.3	WolfelabSpurzheim	20101019.121958	20101019.122828	8	0.011766	60	10	60-180	60	135	GapExp	0	64	2	0	1	target	1	437	782	218341	11.765	11.753	11.776
ProbeTrack12	4	ProbeTrack	11.3	WolfelabSpurzheim	20101019.121958	20101019.122834	8	0.011766	60	10	60-180	60	85	GapExp	0	65	2	0	0	target	0	473	-1000	217341	11.765	11.754	11.776
ProbeTrack12	4	ProbeTrack	11.3	WolfelabSpurzheim	20101019.121958	20101019.122839	8	0.011766	60	10	60-180	60	174	GapExp	0	66	2	1	1	target	1	496	752	218093	11.765	11.753	11.777
ProbeTrack12	4	ProbeTrack	11.3	WolfelabSpurzheim	20101019.121958	20101019.122846	8	0.011766	60	0	60-180	60	85	GapExp	0	67	2	1	1	target	1	438	781	218874	11.765	11.740	11.799
ProbeTrack12	4	ProbeTrack	11.3	WolfelabSpurzheim	20101019.121958	20101019.122851	8	0.011766	60	0	60-180	60	158	GapExp	0	68	2	1	1	target	1	414	793	219667	11.765	11.753	11.776
ProbeTrack12	4	ProbeTrack	11.3	WolfelabSpurzheim	20101019.121958	20101019.122857	8	0.011766	60	10	60-180	60	159	GapExp	0	69	2	0	0	distractor	1	673	664	220331	11.765	11.728	11.804
ProbeTrack12	4	ProbeTrack	11.3	WolfelabSpurzheim	20101019.121958	20101019.122903	8	0.011766	60	10	60-180	60	124	GapExp	0	70	2	1	0	distractor	1	591	705	221036	11.765	11.753	11.775
ProbeTrack12	4	ProbeTrack	11.3	WolfelabSpurzheim	20101019.121958	20101019.122910	8	0.011766	60	10	60-180	60	164	GapExp	0	71	2	3	1	target	1	579	711	221747	11.765	11.752	11.776
ProbeTrack12	4	ProbeTrack	11.3	WolfelabSpurzheim	20101019.121958	20101019.122916	8	0.011766	60	0	60-180	60	177	GapExp	0	72	2	1	0	distractor	1	567	717	222464	11.765	11.754	11.778
ProbeTrack12	4	ProbeTrack	11.3	WolfelabSpurzheim	20101019.121958	20101019.122929	8	0.011766	60	0	60-180	60	150	GapExp	0	73	2	45	0	target	0	437	-1000	221464	11.765	11.754	11.779
ProbeTrack12	4	ProbeTrack	11.3	WolfelabSpurzheim	20101019.121958	20101019.122935	8	0.011766	60	0	60-180	60	80	GapExp	0	74	2	0	0	distractor	1	508	746	222210	11.765	11.754	11.777
ProbeTrack12	4	ProbeTrack	11.3	WolfelabSpurzheim	20101019.121958	20101019.122940	8	0.011766	60	0	60-180	60	121	GapExp	0	75	2	0	1	target	1	449	776	222986	11.765	11.753	11.784
ProbeTrack12	4	ProbeTrack	11.3	WolfelabSpurzheim	20101019.121958	20101019.122946	8	0.011766	60	10	60-180	60	81	GapExp	0	76	2	0	0	target	0	462	-1000	221986	11.765	11.754	11.776
ProbeTrack12	4	ProbeTrack	11.3	WolfelabSpurzheim	20101019.121958	20101019.122951	8	0.011766	60	10	60-180	60	74	GapExp	0	77	2	45	0	distractor	1	532	734	222720	11.765	11.754	11.776
ProbeTrack12	4	ProbeTrack	11.3	WolfelabSpurzheim	20101019.121958	20101019.122958	8	0.011766	60	10	60-180	60	163	GapExp	0	78	2	3	0	distractor	1	532	734	223454	11.765	11.754	11.777
ProbeTrack12	4	ProbeTrack	11.3	WolfelabSpurzheim	20101019.121958	20101019.123004	8	0.011766	60	10	60-180	60	141	GapExp	0	79	2	45	1	target	1	556	722	224176	11.765	11.754	11.777
ProbeTrack12	4	ProbeTrack	11.3	WolfelabSpurzheim	20101019.121958	20101019.123011	8	0.011766	60	10	60-180	60	71	GapExp	0	80	2	0	0	distractor	1	579	711	224887	11.765	11.754	11.776
ProbeTrack12	4	ProbeTrack	11.3	WolfelabSpurzheim	20101019.121958	20101019.123017	8	0.011766	60	0	60-180	60	153	GapExp	0	81	2	3	1	target	1	543	729	225616	11.765	11.755	11.776
ProbeTrack12	4	ProbeTrack	11.3	WolfelabSpurzheim	20101019.121958	20101019.123023	8	0.011766	60	10	60-180	60	68	GapExp	0	82	2	3	0	distractor	1	544	728	226344	11.765	11.753	11.778
ProbeTrack12	4	ProbeTrack	11.3	WolfelabSpurzheim	20101019.121958	20101019.123028	8	0.011766	60	0	60-180	60	72	GapExp	0	83	2	1	1	target	1	625	688	227032	11.765	11.754	11.777
ProbeTrack12	4	ProbeTrack	11.3	WolfelabSpurzheim	20101019.121958	20101019.123033	8	0.011766	60	10	60-180	60	145	GapExp	0	84	2	0	1	target	1	543	729	227761	11.765	11.754	11.777
ProbeTrack12	4	ProbeTrack	11.3	WolfelabSpurzheim	20101019.121958	20101019.123040	8	0.011766	60	10	60-180	60	96	GapExp	0	85	2	3	0	distractor	1	426	787	228548	11.765	11.753	11.776
ProbeTrack12	4	ProbeTrack	11.3	WolfelabSpurzheim	20101019.121958	20101019.123045	8	0.011766	60	0	60-180	60	162	GapExp	0	86	2	3	1	target	1	602	699	229247	11.765	11.754	11.776
ProbeTrack12	4	ProbeTrack	11.3	WolfelabSpurzheim	20101019.121958	20101019.123051	8	0.011766	60	0	60-180	60	79	GapExp	0	87	2	45	0	distractor	1	590	705	229952	11.765	11.752	11.777
ProbeTrack12	4	ProbeTrack	11.3	WolfelabSpurzheim	20101019.121958	20101019.123057	8	0.011766	60	10	60-180	60	74	GapExp	0	88	2	0	1	target	1	661	670	230622	11.765	11.754	11.777
ProbeTrack12	4	ProbeTrack	11.3	WolfelabSpurzheim	20101019.121958	20101019.123103	8	0.011766	60	10	60-180	60	95	GapExp	0	89	2	45	0	distractor	1	520	740	231362	11.765	11.755	11.776
ProbeTrack12	4	ProbeTrack	11.3	WolfelabSpurzheim	20101019.121958	20101019.123109	8	0.011766	60	0	60-180	60	110	GapExp	0	90	2	0	0	distractor	1	1013	494	231856	11.765	11.754	11.777
ProbeTrack12	4	ProbeTrack	11.3	WolfelabSpurzheim	20101019.121958	20101019.123115	8	0.011766	60	10	60-180	60	143	GapExp	0	91	2	0	1	target	1	508	746	232602	11.765	11.730	11.797
ProbeTrack12	4	ProbeTrack	11.3	WolfelabSpurzheim	20101019.121958	20101019.123123	8	0.011766	60	10	60-180	60	112	GapExp	0	92	2	0	1	target	1	532	734	233336	11.765	11.753	11.777
ProbeTrack12	4	ProbeTrack	11.3	WolfelabSpurzheim	20101019.121958	20101019.123128	8	0.011766	60	10	60-180	60	155	GapExp	0	93	2	45	1	target	1	544	728	234064	11.765	11.752	11.777
ProbeTrack12	4	ProbeTrack	11.3	WolfelabSpurzheim	20101019.121958	20101019.123135	8	0.011766	60	10	60-180	60	157	GapExp	0	94	2	1	1	target	1	661	670	234734	11.765	11.753	11.800
ProbeTrack12	4	ProbeTrack	11.3	WolfelabSpurzheim	20101019.121958	20101019.123142	8	0.011766	60	10	60-180	60	81	GapExp	0	95	2	45	1	target	1	520	740	235474	11.765	11.753	11.776
ProbeTrack12	4	ProbeTrack	11.3	WolfelabSpurzheim	20101019.121958	20101019.123147	8	0.011766	60	0	60-180	60	171	GapExp	0	96	2	3	1	distractor	0	520	-1000	234474	11.765	11.754	11.777
ProbeTrack12	4	ProbeTrack	11.3	WolfelabSpurzheim	20101019.121958	20101019.123154	8	0.011766	60	0	60-180	60	62	GapExp	0	97	2	1	0	distractor	1	626	687	235161	11.765	11.664	11.871
ProbeTrack12	4	ProbeTrack	11.3	WolfelabSpurzheim	20101019.121958	20101019.123159	8	0.011766	60	0	60-180	60	78	GapExp	0	98	2	1	1	target	1	461	770	235931	11.765	11.753	11.776
ProbeTrack12	4	ProbeTrack	11.3	WolfelabSpurzheim	20101019.121958	20101019.123204	8	0.011766	60	0	60-180	60	120	GapExp	0	99	2	1	0	distractor	1	485	758	236689	11.765	11.742	11.787
ProbeTrack12	4	ProbeTrack	11.3	WolfelabSpurzheim	20101019.121958	20101019.123210	8	0.011766	60	10	60-180	60	99	GapExp	0	100	2	1	0	distractor	1	438	781	237470	11.818	11.753	23.544
ProbeTrack12	4	ProbeTrack	11.3	WolfelabSpurzheim	20101019.121958	20101019.123215	8	0.011766	60	10	60-180	60	65	GapExp	0	101	2	45	1	distractor	0	508	-1000	236470	11.765	11.754	11.775
ProbeTrack12	4	ProbeTrack	11.3	WolfelabSpurzheim	20101019.121958	20101019.123221	8	0.011766	60	10	60-180	60	72	GapExp	0	102	2	3	1	target	1	555	723	237193	11.765	11.754	11.777
ProbeTrack12	4	ProbeTrack	11.3	WolfelabSpurzheim	20101019.121958	20101019.123227	8	0.011766	60	0	60-180	60	104	GapExp	0	103	2	45	1	target	1	449	776	237969	11.765	11.753	11.775
ProbeTrack12	4	ProbeTrack	11.3	WolfelabSpurzheim	20101019.121958	20101019.123233	8	0.011766	60	10	60-180	60	98	GapExp	0	104	2	45	0	distractor	1	461	770	238739	11.765	11.718	11.814
ProbeTrack12	4	ProbeTrack	11.3	WolfelabSpurzheim	20101019.121958	20101019.123239	8	0.011766	60	0	60-180	60	178	GapExp	0	105	2	1	0	distractor	1	579	711	239450	11.765	11.754	11.776
ProbeTrack12	4	ProbeTrack	11.3	WolfelabSpurzheim	20101019.121958	20101019.123245	8	0.011766	60	0	60-180	60	177	GapExp	0	106	2	1	0	distractor	1	802	599	240049	11.765	11.716	11.812
ProbeTrack12	4	ProbeTrack	11.3	WolfelabSpurzheim	20101019.121958	20101019.123252	8	0.011766	60	10	60-180	60	67	GapExp	0	107	2	0	0	distractor	1	625	688	240737	11.765	11.709	11.825
ProbeTrack12	4	ProbeTrack	11.3	WolfelabSpurzheim	20101019.121958	20101019.123257	8	0.011766	60	10	60-180	60	114	GapExp	0	108	2	3	1	target	1	367	817	241554	11.765	11.753	11.776
ProbeTrack12	4	ProbeTrack	11.3	WolfelabSpurzheim	20101019.121958	20101019.123303	8	0.011766	60	0	60-180	60	178	GapExp	0	109	2	3	1	target	1	543	729	242283	11.765	11.753	11.777
ProbeTrack12	4	ProbeTrack	11.3	WolfelabSpurzheim	20101019.121958	20101019.123309	8	0.011766	60	0	60-180	60	122	GapExp	0	110	2	1	1	target	1	555	723	243006	11.765	11.754	11.778
ProbeTrack12	4	ProbeTrack	11.3	WolfelabSpurzheim	20101019.121958	20101019.123315	8	0.011766	60	0	60-180	60	174	GapExp	0	111	2	3	0	target	0	461	-1000	242006	11.765	11.754	11.776
ProbeTrack12	4	ProbeTrack	11.3	WolfelabSpurzheim	20101019.121958	20101019.123321	8	0.011766	60	0	60-180	60	153	GapExp	0	112	2	45	0	distractor	1	873	564	242570	11.765	11.754	11.777
ProbeTrack12	4	ProbeTrack	11.3	WolfelabSpurzheim	20101019.121958	20101019.123329	8	0.011766	60	0	60-180	60	138	GapExp	0	113	2	1	0	distractor	1	766	617	243187	11.765	11.752	11.776
ProbeTrack12	4	ProbeTrack	11.3	WolfelabSpurzheim	20101019.121958	20101019.123335	8	0.011766	60	0	60-180	60	119	GapExp	0	114	2	45	0	distractor	1	449	776	243963	11.765	11.735	11.789
ProbeTrack12	4	ProbeTrack	11.3	WolfelabSpurzheim	20101019.121958	20101019.123341	8	0.011766	60	0	60-180	60	144	GapExp	0	115	2	3	0	distractor	1	532	734	244697	11.765	11.753	11.776
ProbeTrack12	4	ProbeTrack	11.3	WolfelabSpurzheim	20101019.121958	20101019.123347	8	0.011766	60	0	60-180	60	167	GapExp	0	116	2	0	1	target	1	367	817	245514	11.765	11.752	11.777
ProbeTrack12	4	ProbeTrack	11.3	WolfelabSpurzheim	20101019.121958	20101019.123354	8	0.011766	60	0	60-180	60	154	GapExp	0	117	2	45	1	target	1	367	817	246331	11.765	11.755	11.777
ProbeTrack12	4	ProbeTrack	11.3	WolfelabSpurzheim	20101019.121958	20101019.123400	8	0.011766	60	0	60-180	60	148	GapExp	0	118	2	1	0	target	0	485	-1000	245331	11.765	11.754	11.777
ProbeTrack12	4	ProbeTrack	11.3	WolfelabSpurzheim	20101019.121958	20101019.123407	8	0.011766	60	10	60-180	60	111	GapExp	0	119	2	1	0	distractor	1	473	764	246095	11.765	11.754	11.775
ProbeTrack12	4	ProbeTrack	11.3	WolfelabSpurzheim	20101019.121958	20101019.123413	8	0.011766	60	0	60-180	60	122	GapExp	0	120	2	0	1	target	1	449	776	246871	11.765	11.755	11.775
ProbeTrack12	4	ProbeTrack	11.3	WolfelabSpurzheim	20101019.121958	20101019.123418	8	0.011766	60	10	60-180	60	129	GapExp	0	121	2	1	1	target	1	368	816	247687	11.765	11.755	11.778
ProbeTrack12	4	ProbeTrack	11.3	WolfelabSpurzheim	20101019.121958	20101019.123424	8	0.011766	60	0	60-180	60	89	GapExp	0	122	2	45	1	target	1	332	834	248521	11.765	11.754	11.775
ProbeTrack12	4	ProbeTrack	11.3	WolfelabSpurzheim	20101019.121958	20101019.123430	8	0.011766	60	10	60-180	60	114	GapExp	0	123	2	0	0	distractor	1	414	793	249314	11.765	11.755	11.775
ProbeTrack12	4	ProbeTrack	11.3	WolfelabSpurzheim	20101019.121958	20101019.123435	8	0.011766	60	0	60-180	60	136	GapExp	0	124	2	3	0	distractor	1	438	781	250095	11.765	11.753	11.776
ProbeTrack12	4	ProbeTrack	11.3	WolfelabSpurzheim	20101019.121958	20101019.123443	8	0.011766	60	0	60-180	60	83	GapExp	0	125	2	0	0	distractor	1	579	711	250806	11.765	11.754	11.776
ProbeTrack12	4	ProbeTrack	11.3	WolfelabSpurzheim	20101019.121958	20101019.123448	8	0.011766	60	10	60-180	60	163	GapExp	0	126	2	1	1	distractor	0	403	-1000	249806	11.765	11.754	11.776
ProbeTrack12	4	ProbeTrack	11.3	WolfelabSpurzheim	20101019.121958	20101019.123455	8	0.011766	60	0	60-180	60	101	GapExp	0	127	2	45	1	target	1	461	770	250576	11.765	11.755	11.776
ProbeTrack12	4	ProbeTrack	11.3	WolfelabSpurzheim	20101019.121958	20101019.123501	8	0.011766	60	0	60-180	60	97	GapExp	0	128	2	1	1	target	1	520	740	251316	11.765	11.754	11.776
ProbeTrack12	4	ProbeTrack	11.3	WolfelabSpurzheim	20101019.121958	20101019.123506	8	0.011766	60	0	60-180	60	126	GapExp	0	129	2	1	1	target	1	461	770	252086	11.765	11.752	11.776
ProbeTrack12	4	ProbeTrack	11.3	WolfelabSpurzheim	20101019.121958	20101019.123512	8	0.011766	60	10	60-180	60	122	GapExp	0	130	2	1	0	distractor	1	426	787	252873	11.765	11.752	11.777
ProbeTrack12	4	ProbeTrack	11.3	WolfelabSpurzheim	20101019.121958	20101019.123518	8	0.011766	60	0	60-180	60	88	GapExp	0	131	2	3	1	target	1	461	770	253643	11.765	11.753	11.777
ProbeTrack12	4	ProbeTrack	11.3	WolfelabSpurzheim	20101019.121958	20101019.123523	8	0.011766	60	0	60-180	60	170	GapExp	0	132	2	1	1	target	1	449	776	254419	11.765	11.753	11.777
ProbeTrack12	4	ProbeTrack	11.3	WolfelabSpurzheim	20101019.121958	20101019.123530	8	0.011766	60	0	60-180	60	81	GapExp	0	133	2	1	0	distractor	1	814	593	255012	11.765	11.753	11.775
ProbeTrack12	4	ProbeTrack	11.3	WolfelabSpurzheim	20101019.121958	20101019.123536	8	0.011766	60	0	60-180	60	175	GapExp	0	134	2	0	0	target	0	544	-1000	254012	11.765	11.754	11.776
ProbeTrack12	4	ProbeTrack	11.3	WolfelabSpurzheim	20101019.121958	20101019.123542	8	0.011766	60	0	60-180	60	157	GapExp	0	135	2	45	1	distractor	0	555	-1000	253012	11.765	11.752	11.777
ProbeTrack12	4	ProbeTrack	11.3	WolfelabSpurzheim	20101019.121958	20101019.123550	8	0.011766	60	0	60-180	60	108	GapExp	0	136	2	1	1	target	1	496	752	253764	11.765	11.750	11.780
ProbeTrack12	4	ProbeTrack	11.3	WolfelabSpurzheim	20101019.121958	20101019.123556	8	0.011766	60	10	60-180	60	112	GapExp	0	137	2	0	1	distractor	0	473	-1000	252764	11.765	11.752	11.780
ProbeTrack12	4	ProbeTrack	11.3	WolfelabSpurzheim	20101019.121958	20101019.123602	8	0.011766	60	10	60-180	60	99	GapExp	0	138	2	3	1	target	1	438	781	253545	11.765	11.748	11.784
ProbeTrack12	4	ProbeTrack	11.3	WolfelabSpurzheim	20101019.121958	20101019.123608	8	0.011766	60	10	60-180	60	83	GapExp	0	139	2	1	1	target	1	391	805	254350	11.765	11.753	11.774
ProbeTrack12	4	ProbeTrack	11.3	WolfelabSpurzheim	20101019.121958	20101019.123613	8	0.011766	60	0	60-180	60	146	GapExp	0	140	2	45	0	distractor	1	437	782	255132	11.765	11.755	11.777
ProbeTrack12	4	ProbeTrack	11.3	WolfelabSpurzheim	20101019.121958	20101019.123620	8	0.011766	60	10	60-180	60	111	GapExp	0	141	2	1	1	target	1	461	770	255902	11.765	11.753	11.777
ProbeTrack12	4	ProbeTrack	11.3	WolfelabSpurzheim	20101019.121958	20101019.123625	8	0.011766	60	10	60-180	60	73	GapExp	0	142	2	1	0	distractor	1	414	793	256695	11.765	11.755	11.777
ProbeTrack12	4	ProbeTrack	11.3	WolfelabSpurzheim	20101019.121958	20101019.123631	8	0.011766	60	10	60-180	60	151	GapExp	0	143	2	1	0	distractor	1	590	705	257400	11.765	11.749	11.782
ProbeTrack12	4	ProbeTrack	11.3	WolfelabSpurzheim	20101019.121958	20101019.123637	8	0.011766	60	10	60-180	60	111	GapExp	0	144	2	3	1	target	1	426	787	258187	11.765	11.753	11.777
ProbeTrack12	4	ProbeTrack	11.3	WolfelabSpurzheim	20101019.121958	20101019.123643	8	0.011766	60	10	60-180	60	162	GapExp	0	145	2	45	1	target	1	485	758	258945	11.765	11.741	11.788
ProbeTrack12	4	ProbeTrack	11.3	WolfelabSpurzheim	20101019.121958	20101019.123649	8	0.011766	60	0	60-180	60	133	GapExp	0	146	2	0	0	distractor	1	602	699	259644	11.765	11.754	11.775
ProbeTrack12	4	ProbeTrack	11.3	WolfelabSpurzheim	20101019.121958	20101019.123655	8	0.011766	60	0	60-180	60	164	GapExp	0	147	2	3	0	distractor	1	473	764	260408	11.765	11.754	11.776
ProbeTrack12	4	ProbeTrack	11.3	WolfelabSpurzheim	20101019.121958	20101019.123702	8	0.011766	60	10	60-180	60	117	GapExp	0	148	2	3	0	distractor	1	414	793	261201	11.765	11.737	11.802
ProbeTrack12	4	ProbeTrack	11.3	WolfelabSpurzheim	20101019.121958	20101019.123707	8	0.011766	60	0	60-180	60	106	GapExp	0	149	2	45	1	target	1	579	711	261912	11.765	11.722	11.813
ProbeTrack12	4	ProbeTrack	11.3	WolfelabSpurzheim	20101019.121958	20101019.123713	8	0.011766	60	10	60-180	60	96	GapExp	0	150	2	1	0	distractor	1	508	746	262658	11.765	11.729	11.803
ProbeTrack12	4	ProbeTrack	11.3	WolfelabSpurzheim	20101019.121958	20101019.123719	8	0.011766	60	10	60-180	60	86	GapExp	0	151	2	1	1	target	1	391	805	263463	11.765	11.754	11.775
ProbeTrack12	4	ProbeTrack	11.3	WolfelabSpurzheim	20101019.121958	20101019.123724	8	0.011766	60	10	60-180	60	169	GapExp	0	152	2	3	1	distractor	0	402	-1000	262463	11.765	11.739	11.789
ProbeTrack12	4	ProbeTrack	11.3	WolfelabSpurzheim	20101019.121958	20101019.123731	8	0.011766	60	0	60-180	60	93	GapExp	0	153	2	1	0	distractor	1	626	687	263150	11.765	11.753	11.777
ProbeTrack12	4	ProbeTrack	11.3	WolfelabSpurzheim	20101019.121958	20101019.123736	8	0.011766	60	0	60-180	60	85	GapExp	0	154	2	45	0	distractor	1	485	758	263908	11.765	11.755	11.776
ProbeTrack12	4	ProbeTrack	11.3	WolfelabSpurzheim	20101019.121958	20101019.123742	8	0.011766	60	0	60-180	60	100	GapExp	0	155	2	3	0	distractor	1	532	734	264642	11.765	11.754	11.776
ProbeTrack12	4	ProbeTrack	11.3	WolfelabSpurzheim	20101019.121958	20101019.123747	8	0.011766	60	0	60-180	60	86	GapExp	0	156	2	0	1	distractor	0	555	-1000	263642	11.765	11.754	11.775
ProbeTrack12	4	ProbeTrack	11.3	WolfelabSpurzheim	20101019.121958	20101019.123757	8	0.011766	60	0	60-180	60	81	GapExp	0	157	2	45	0	distractor	1	520	740	264382	11.765	11.754	11.776
ProbeTrack12	4	ProbeTrack	11.3	WolfelabSpurzheim	20101019.121958	20101019.123802	8	0.011766	60	10	60-180	60	92	GapExp	0	158	2	45	0	distractor	1	473	764	265146	11.765	11.753	11.776
ProbeTrack12	4	ProbeTrack	11.3	WolfelabSpurzheim	20101019.121958	20101019.123808	8	0.011766	60	0	60-180	60	151	GapExp	0	159	2	45	0	distractor	1	778	611	265757	11.765	11.733	11.801
ProbeTrack12	4	ProbeTrack	11.3	WolfelabSpurzheim	20101019.121958	20101019.123815	8	0.011766	60	10	60-180	60	84	GapExp	0	160	2	1	1	target	1	473	764	266521	11.765	11.753	11.776
ProbeTrack12	4	ProbeTrack	11.3	WolfelabSpurzheim	20101019.121958	20101019.123821	8	0.011766	60	10	60-180	60	173	GapExp	0	161	2	3	1	target	1	426	787	267308	11.765	11.753	11.776
ProbeTrack12	4	ProbeTrack	11.3	WolfelabSpurzheim	20101019.121958	20101019.123827	8	0.011766	60	0	60-180	60	129	GapExp	0	162	2	0	1	target	1	343	829	268137	11.765	11.753	11.776
ProbeTrack12	4	ProbeTrack	11.3	WolfelabSpurzheim	20101019.121958	20101019.123833	8	0.011766	60	10	60-180	60	136	GapExp	0	163	2	0	0	target	0	543	-1000	267137	11.765	11.749	11.788
ProbeTrack12	4	ProbeTrack	11.3	WolfelabSpurzheim	20101019.121958	20101019.123839	8	0.011766	60	0	60-180	60	72	GapExp	0	164	2	0	1	target	1	461	770	267907	11.765	11.754	11.776
ProbeTrack12	4	ProbeTrack	11.3	WolfelabSpurzheim	20101019.121958	20101019.123844	8	0.011766	60	10	60-180	60	160	GapExp	0	165	2	3	0	distractor	1	414	793	268700	11.765	11.751	11.777
ProbeTrack12	4	ProbeTrack	11.3	WolfelabSpurzheim	20101019.121958	20101019.123850	8	0.011766	60	0	60-180	60	73	GapExp	0	166	2	1	0	distractor	1	626	687	269387	11.765	11.754	11.774
ProbeTrack12	4	ProbeTrack	11.3	WolfelabSpurzheim	20101019.121958	20101019.123855	8	0.011766	60	10	60-180	60	109	GapExp	0	167	2	0	1	target	1	555	723	270110	11.765	11.753	11.776
ProbeTrack12	4	ProbeTrack	11.3	WolfelabSpurzheim	20101019.121958	20101019.123901	8	0.011766	60	0	60-180	60	167	GapExp	0	168	2	0	1	target	1	378	811	270921	11.765	11.754	11.776
ProbeTrack12	4	ProbeTrack	11.3	WolfelabSpurzheim	20101019.121958	20101019.123907	8	0.011766	60	10	60-180	60	131	GapExp	0	169	2	45	1	target	1	438	781	271702	11.765	11.754	11.777
ProbeTrack12	4	ProbeTrack	11.3	WolfelabSpurzheim	20101019.121958	20101019.123914	8	0.011766	60	0	60-180	60	89	GapExp	0	170	2	1	0	distractor	1	567	717	272419	11.765	11.754	11.775
ProbeTrack12	4	ProbeTrack	11.3	WolfelabSpurzheim	20101019.121958	20101019.123920	8	0.011766	60	0	60-180	60	63	GapExp	0	171	2	45	0	distractor	1	532	734	273153	11.765	11.741	11.791
ProbeTrack12	4	ProbeTrack	11.3	WolfelabSpurzheim	20101019.121958	20101019.123925	8	0.011766	60	10	60-180	60	95	GapExp	0	172	2	45	1	target	1	591	705	273858	11.765	11.753	11.778
ProbeTrack12	4	ProbeTrack	11.3	WolfelabSpurzheim	20101019.121958	20101019.123931	8	0.011766	60	10	60-180	60	89	GapExp	0	173	2	0	0	distractor	1	390	805	274663	11.765	11.753	11.776
ProbeTrack12	4	ProbeTrack	11.3	WolfelabSpurzheim	20101019.121958	20101019.123936	8	0.011766	60	10	60-180	60	166	GapExp	0	174	2	3	0	distractor	1	426	787	275450	11.765	11.721	11.809
ProbeTrack12	4	ProbeTrack	11.3	WolfelabSpurzheim	20101019.121958	20101019.123942	8	0.011766	60	10	60-180	60	148	GapExp	0	175	2	1	0	distractor	1	473	764	276214	11.765	11.754	11.777
ProbeTrack12	4	ProbeTrack	11.3	WolfelabSpurzheim	20101019.121958	20101019.123949	8	0.011766	60	0	60-180	60	151	GapExp	0	176	2	1	1	target	1	438	781	276995	11.765	11.754	11.777
ProbeTrack12	4	ProbeTrack	11.3	WolfelabSpurzheim	20101019.121958	20101019.123956	8	0.011766	60	10	60-180	60	171	GapExp	0	177	2	3	0	distractor	1	567	717	277712	11.765	11.754	11.776
ProbeTrack12	4	ProbeTrack	11.3	WolfelabSpurzheim	20101019.121958	20101019.124002	8	0.011766	60	0	60-180	60	142	GapExp	0	178	2	3	0	distractor	1	497	752	278464	11.765	11.744	11.781
ProbeTrack12	4	ProbeTrack	11.3	WolfelabSpurzheim	20101019.121958	20101019.124010	8	0.011766	60	10	60-180	60	83	GapExp	0	179	2	1	0	distractor	1	484	758	279222	11.765	11.754	11.776
ProbeTrack12	4	ProbeTrack	11.3	WolfelabSpurzheim	20101019.121958	20101019.124015	8	0.011766	60	0	60-180	60	173	GapExp	0	180	2	3	0	distractor	1	438	781	280003	11.765	11.742	11.793
ProbeTrack12	4	ProbeTrack	11.3	WolfelabSpurzheim	20101019.121958	20101019.124044	8	0.011766	60	10	60-180	60	109	GapExp	0	181	2	0	0	distractor	1	462	769	280772	11.765	11.754	11.776
ProbeTrack12	4	ProbeTrack	11.3	WolfelabSpurzheim	20101019.121958	20101019.124050	8	0.011766	60	10	60-180	60	127	GapExp	0	182	2	45	0	target	0	614	-1000	279772	11.765	11.755	11.775
ProbeTrack12	4	ProbeTrack	11.3	WolfelabSpurzheim	20101019.121958	20101019.124059	8	0.011766	60	0	60-180	60	82	GapExp	0	183	2	0	1	target	1	672	664	280436	11.765	11.754	11.775
ProbeTrack12	4	ProbeTrack	11.3	WolfelabSpurzheim	20101019.121958	20101019.124104	8	0.011766	60	0	60-180	60	112	GapExp	0	184	2	0	1	target	1	367	817	281253	11.765	11.752	11.777
ProbeTrack12	4	ProbeTrack	11.3	WolfelabSpurzheim	20101019.121958	20101019.124110	8	0.011766	60	10	60-180	60	85	GapExp	0	185	2	0	0	distractor	1	602	699	281952	11.765	11.752	11.776
ProbeTrack12	4	ProbeTrack	11.3	WolfelabSpurzheim	20101019.121958	20101019.124115	8	0.011766	60	0	60-180	60	178	GapExp	0	186	2	45	1	target	1	355	823	282775	11.765	11.742	11.794
ProbeTrack12	4	ProbeTrack	11.3	WolfelabSpurzheim	20101019.121958	20101019.124122	8	0.011766	60	0	60-180	60	76	GapExp	0	187	2	3	0	distractor	1	509	746	283521	11.765	11.754	11.778
ProbeTrack12	4	ProbeTrack	11.3	WolfelabSpurzheim	20101019.121958	20101019.124127	8	0.011766	60	10	60-180	60	90	GapExp	0	188	2	45	0	distractor	1	473	764	284285	11.765	11.754	11.777
ProbeTrack12	4	ProbeTrack	11.3	WolfelabSpurzheim	20101019.121958	20101019.124133	8	0.011766	60	10	60-180	60	123	GapExp	0	189	2	1	1	target	1	449	776	285061	11.765	11.752	11.776
ProbeTrack12	4	ProbeTrack	11.3	WolfelabSpurzheim	20101019.121958	20101019.124139	8	0.011766	60	10	60-180	60	160	GapExp	0	190	2	45	1	target	1	379	811	285872	11.765	11.754	11.777
ProbeTrack12	4	ProbeTrack	11.3	WolfelabSpurzheim	20101019.121958	20101019.124146	8	0.011766	60	10	60-180	60	103	GapExp	0	191	2	45	0	distractor	1	497	752	286624	11.765	11.735	11.791
ProbeTrack12	4	ProbeTrack	11.3	WolfelabSpurzheim	20101019.121958	20101019.124152	8	0.011766	60	0	60-180	60	177	GapExp	0	192	2	45	0	distractor	1	532	734	287358	11.765	11.753	11.778
ProbeTrack12	4	ProbeTrack	11.3	WolfelabSpurzheim	20101019.121958	20101019.124159	8	0.011766	60	0	60-180	60	93	GapExp	0	193	2	1	1	target	1	426	787	288145	11.765	11.754	11.777
ProbeTrack12	4	ProbeTrack	11.3	WolfelabSpurzheim	20101019.121958	20101019.124206	8	0.011766	60	10	60-180	60	128	GapExp	0	194	2	1	0	distractor	1	543	729	288874	11.765	11.753	11.775
ProbeTrack12	4	ProbeTrack	11.3	WolfelabSpurzheim	20101019.121958	20101019.124212	8	0.011766	60	10	60-180	60	90	GapExp	0	195	2	3	1	target	1	567	717	289591	11.765	11.754	11.777
ProbeTrack12	4	ProbeTrack	11.3	WolfelabSpurzheim	20101019.121958	20101019.124217	8	0.011766	60	0	60-180	60	74	GapExp	0	196	2	45	0	distractor	1	438	781	290372	11.765	11.754	11.776
ProbeTrack12	4	ProbeTrack	11.3	WolfelabSpurzheim	20101019.121958	20101019.124223	8	0.011766	60	10	60-180	60	103	GapExp	0	197	2	0	0	target	0	496	-1000	289372	11.765	11.754	11.777
ProbeTrack12	4	ProbeTrack	11.3	WolfelabSpurzheim	20101019.121958	20101019.124229	8	0.011766	60	10	60-180	60	158	GapExp	0	198	2	3	0	distractor	1	508	746	290118	11.765	11.723	11.808
ProbeTrack12	4	ProbeTrack	11.3	WolfelabSpurzheim	20101019.121958	20101019.124235	8	0.011766	60	10	60-180	60	134	GapExp	0	199	2	45	1	target	1	578	711	290829	11.765	11.749	11.789
ProbeTrack12	4	ProbeTrack	11.3	WolfelabSpurzheim	20101019.121958	20101019.124242	8	0.011766	60	0	60-180	60	180	GapExp	0	200	2	45	0	distractor	1	532	734	291563	11.765	11.753	11.776
ProbeTrack12	4	ProbeTrack	11.3	WolfelabSpurzheim	20101019.121958	20101019.124249	8	0.011766	60	10	60-180	60	109	GapExp	0	201	2	0	1	target	1	449	776	292339	11.765	11.754	11.776
ProbeTrack12	4	ProbeTrack	11.3	WolfelabSpurzheim	20101019.121958	20101019.124255	8	0.011766	60	10	60-180	60	121	GapExp	0	202	2	0	1	distractor	0	520	-1000	291339	11.765	11.755	11.776
ProbeTrack12	4	ProbeTrack	11.3	WolfelabSpurzheim	20101019.121958	20101019.124302	8	0.011766	60	0	60-180	60	160	GapExp	0	203	2	45	1	target	1	426	787	292126	11.765	11.727	11.797
ProbeTrack12	4	ProbeTrack	11.3	WolfelabSpurzheim	20101019.121958	20101019.124309	8	0.011766	60	10	60-180	60	151	GapExp	0	204	2	3	0	distractor	1	555	723	292849	11.765	11.754	11.777
ProbeTrack12	4	ProbeTrack	11.3	WolfelabSpurzheim	20101019.121958	20101019.124315	8	0.011766	60	10	60-180	60	64	GapExp	0	205	2	45	1	target	1	684	658	293507	11.765	11.754	11.777
ProbeTrack12	4	ProbeTrack	11.3	WolfelabSpurzheim	20101019.121958	20101019.124321	8	0.011766	60	0	60-180	60	144	GapExp	0	206	2	1	0	distractor	1	473	764	294271	11.765	11.752	11.776
ProbeTrack12	4	ProbeTrack	11.3	WolfelabSpurzheim	20101019.121958	20101019.124327	8	0.011766	60	10	60-180	60	78	GapExp	0	207	2	3	0	distractor	1	567	717	294988	11.765	11.742	11.792
ProbeTrack12	4	ProbeTrack	11.3	WolfelabSpurzheim	20101019.121958	20101019.124332	8	0.011766	60	0	60-180	60	151	GapExp	0	208	2	0	0	distractor	1	520	740	295728	11.765	11.753	11.777
ProbeTrack12	4	ProbeTrack	11.3	WolfelabSpurzheim	20101019.121958	20101019.124338	8	0.011766	60	10	60-180	60	173	GapExp	0	209	2	45	1	target	1	496	752	296480	11.765	11.690	11.800
ProbeTrack12	4	ProbeTrack	11.3	WolfelabSpurzheim	20101019.121958	20101019.124345	8	0.011766	60	10	60-180	60	141	GapExp	0	210	2	0	1	target	1	426	787	297267	11.765	11.754	11.774
ProbeTrack12	4	ProbeTrack	11.3	WolfelabSpurzheim	20101019.121958	20101019.124352	8	0.011766	60	10	60-180	60	103	GapExp	0	211	2	3	1	target	1	402	799	298066	11.765	11.755	11.776
ProbeTrack12	4	ProbeTrack	11.3	WolfelabSpurzheim	20101019.121958	20101019.124357	8	0.011766	60	10	60-180	60	140	GapExp	0	212	2	45	1	target	1	379	811	298877	11.765	11.752	11.780
ProbeTrack12	4	ProbeTrack	11.3	WolfelabSpurzheim	20101019.121958	20101019.124404	8	0.011766	60	0	60-180	60	102	GapExp	0	213	2	1	1	target	1	473	764	299641	11.765	11.754	11.775
ProbeTrack12	4	ProbeTrack	11.3	WolfelabSpurzheim	20101019.121958	20101019.124409	8	0.011766	60	0	60-180	60	106	GapExp	0	214	2	0	1	target	1	426	787	300428	11.765	11.715	11.817
ProbeTrack12	4	ProbeTrack	11.3	WolfelabSpurzheim	20101019.121958	20101019.124415	8	0.011766	60	0	60-180	60	86	GapExp	0	215	2	1	1	target	1	473	764	301192	11.765	11.754	11.778
ProbeTrack12	4	ProbeTrack	11.3	WolfelabSpurzheim	20101019.121958	20101019.124420	8	0.011766	60	10	60-180	60	160	GapExp	0	216	2	3	1	target	1	497	752	301944	11.765	11.740	11.796
ProbeTrack12	4	ProbeTrack	11.3	WolfelabSpurzheim	20101019.121958	20101019.124428	8	0.011766	60	10	60-180	60	147	GapExp	0	217	2	0	0	distractor	1	614	693	302637	11.765	11.755	11.776
ProbeTrack12	4	ProbeTrack	11.3	WolfelabSpurzheim	20101019.121958	20101019.124434	8	0.011766	60	0	60-180	60	70	GapExp	0	218	2	3	1	target	1	485	758	303395	11.765	11.753	11.777
ProbeTrack12	4	ProbeTrack	11.3	WolfelabSpurzheim	20101019.121958	20101019.124439	8	0.011766	60	10	60-180	60	78	GapExp	0	219	2	0	1	target	1	414	793	304188	11.765	11.754	11.777
ProbeTrack12	4	ProbeTrack	11.3	WolfelabSpurzheim	20101019.121958	20101019.124444	8	0.011766	60	0	60-180	60	151	GapExp	0	220	2	3	0	distractor	1	555	723	304911	11.765	11.754	11.779
ProbeTrack12	4	ProbeTrack	11.3	WolfelabSpurzheim	20101019.121958	20101019.124459	8	0.011766	60	0	60-180	60	114	GapExp	0	221	2	1	0	distractor	1	461	770	305681	11.765	11.753	11.778
ProbeTrack12	4	ProbeTrack	11.3	WolfelabSpurzheim	20101019.121958	20101019.124505	8	0.011766	60	10	60-180	60	133	GapExp	0	222	2	1	0	distractor	1	567	717	306398	11.765	11.754	11.777
ProbeTrack12	4	ProbeTrack	11.3	WolfelabSpurzheim	20101019.121958	20101019.124511	8	0.011766	60	0	60-180	60	161	GapExp	0	223	2	45	0	distractor	1	614	693	307091	11.765	11.739	11.795
ProbeTrack12	4	ProbeTrack	11.3	WolfelabSpurzheim	20101019.121958	20101019.124518	8	0.011766	60	0	60-180	60	134	GapExp	0	224	2	0	0	distractor	1	543	729	307820	11.765	11.753	11.777
ProbeTrack12	4	ProbeTrack	11.3	WolfelabSpurzheim	20101019.121958	20101019.124524	8	0.011766	60	10	60-180	60	165	GapExp	0	225	2	3	0	distractor	1	543	729	308549	11.765	11.754	11.777
ProbeTrack12	4	ProbeTrack	11.3	WolfelabSpurzheim	20101019.121958	20101019.124531	8	0.011766	60	10	60-180	60	70	GapExp	0	226	2	1	0	distractor	1	696	652	309201	11.765	11.753	11.776
ProbeTrack12	4	ProbeTrack	11.3	WolfelabSpurzheim	20101019.121958	20101019.124536	8	0.011766	60	0	60-180	60	115	GapExp	0	227	2	45	0	distractor	1	567	717	309918	11.765	11.754	11.777
ProbeTrack12	4	ProbeTrack	11.3	WolfelabSpurzheim	20101019.121958	20101019.124548	8	0.011766	60	0	60-180	60	69	GapExp	0	228	2	0	0	distractor	1	543	729	310647	11.765	11.753	11.778
ProbeTrack12	4	ProbeTrack	11.3	WolfelabSpurzheim	20101019.121958	20101019.124553	8	0.011766	60	10	60-180	60	168	GapExp	0	229	2	3	0	distractor	1	496	752	311399	11.765	11.738	11.789
ProbeTrack12	4	ProbeTrack	11.3	WolfelabSpurzheim	20101019.121958	20101019.124600	8	0.011766	60	0	60-180	60	161	GapExp	0	230	2	0	1	distractor	0	602	-1000	310399	11.765	11.753	11.776
ProbeTrack12	4	ProbeTrack	11.3	WolfelabSpurzheim	20101019.121958	20101019.124606	8	0.011766	60	10	60-180	60	67	GapExp	0	231	2	45	0	distractor	1	555	723	311122	11.765	11.753	11.776
ProbeTrack12	4	ProbeTrack	11.3	WolfelabSpurzheim	20101019.121958	20101019.124619	8	0.011766	60	0	60-180	60	156	GapExp	0	232	2	0	1	target	1	355	823	311945	11.765	11.753	11.776
ProbeTrack12	4	ProbeTrack	11.3	WolfelabSpurzheim	20101019.121958	20101019.124628	8	0.011766	60	0	60-180	60	78	GapExp	0	233	2	0	0	distractor	1	496	752	312697	11.765	11.753	11.776
ProbeTrack12	4	ProbeTrack	11.3	WolfelabSpurzheim	20101019.121958	20101019.124634	8	0.011766	60	0	60-180	60	120	GapExp	0	234	2	45	1	target	1	567	717	313414	11.765	11.754	11.778
ProbeTrack12	4	ProbeTrack	11.3	WolfelabSpurzheim	20101019.121958	20101019.124640	8	0.011766	60	0	60-180	60	132	GapExp	0	235	2	0	0	distractor	1	461	770	314184	11.765	11.754	11.776
ProbeTrack12	4	ProbeTrack	11.3	WolfelabSpurzheim	20101019.121958	20101019.124646	8	0.011766	60	0	60-180	60	123	GapExp	0	236	2	1	1	target	1	343	829	315013	11.765	11.754	11.777
ProbeTrack12	4	ProbeTrack	11.3	WolfelabSpurzheim	20101019.121958	20101019.124651	8	0.011766	60	10	60-180	60	132	GapExp	0	237	2	3	0	distractor	1	355	823	315836	11.765	11.754	11.776
ProbeTrack12	4	ProbeTrack	11.3	WolfelabSpurzheim	20101019.121958	20101019.124657	8	0.011766	60	0	60-180	60	140	GapExp	0	238	2	3	1	target	1	391	805	316641	11.765	11.753	11.777
ProbeTrack12	4	ProbeTrack	11.3	WolfelabSpurzheim	20101019.121958	20101019.124705	8	0.011766	60	10	60-180	60	130	GapExp	0	239	2	45	1	target	1	391	805	317446	11.765	11.753	11.776
ProbeTrack12	4	ProbeTrack	11.3	WolfelabSpurzheim	20101019.121958	20101019.124712	8	0.011766	60	0	60-180	60	151	GapExp	0	240	2	3	1	target	1	484	758	318204	11.765	11.754	11.777
ProbeTrack12	4	ProbeTrack	11.3	WolfelabSpurzheim	20101019.121958	20101019.124718	8	0.011766	60	0	60-180	60	121	GapExp	0	241	2	0	0	distractor	1	684	658	318862	11.765	11.724	11.798
ProbeTrack12	4	ProbeTrack	11.3	WolfelabSpurzheim	20101019.121958	20101019.124724	8	0.011766	60	10	60-180	60	96	GapExp	0	242	2	45	1	target	1	449	776	319638	11.765	11.747	11.782
ProbeTrack12	4	ProbeTrack	11.3	WolfelabSpurzheim	20101019.121958	20101019.124730	8	0.011766	60	10	60-180	60	124	GapExp	0	243	2	0	0	distractor	1	825	588	320226	11.765	11.753	11.777
ProbeTrack12	4	ProbeTrack	11.3	WolfelabSpurzheim	20101019.121958	20101019.124737	8	0.011766	60	0	60-180	60	92	GapExp	0	244	2	45	1	target	1	473	764	320990	11.765	11.755	11.777
ProbeTrack12	4	ProbeTrack	11.3	WolfelabSpurzheim	20101019.121958	20101019.124742	8	0.011766	60	10	60-180	60	174	GapExp	0	245	2	0	1	target	1	484	758	321748	11.765	11.753	11.776
ProbeTrack12	4	ProbeTrack	11.3	WolfelabSpurzheim	20101019.121958	20101019.124749	8	0.011766	60	0	60-180	60	169	GapExp	0	246	2	3	1	target	1	402	799	322547	11.765	11.753	11.776
ProbeTrack12	4	ProbeTrack	11.3	WolfelabSpurzheim	20101019.121958	20101019.124755	8	0.011766	60	0	60-180	60	66	GapExp	0	247	2	3	0	distractor	1	626	687	323234	11.765	11.754	11.775
ProbeTrack12	4	ProbeTrack	11.3	WolfelabSpurzheim	20101019.121958	20101019.124801	8	0.011766	60	0	60-180	60	131	GapExp	0	248	2	3	1	target	1	426	787	324021	11.765	11.754	11.776
ProbeTrack12	4	ProbeTrack	11.3	WolfelabSpurzheim	20101019.121958	20101019.124809	8	0.011766	60	10	60-180	60	98	GapExp	0	249	2	0	0	distractor	1	590	705	324726	11.765	11.724	11.803
ProbeTrack12	4	ProbeTrack	11.3	WolfelabSpurzheim	20101019.121958	20101019.124815	8	0.011766	60	0	60-180	60	94	GapExp	0	250	2	1	0	distractor	1	497	752	325478	11.765	11.754	11.778
