exp	sub	code	rev	comp	runtime	trialtime	nstim	refreshdur	cuedur	gapdur	gapOnsetRange	durPostProbe	gapOnsetTime	blocktype	prac	trial	ntargets	soa	probeTarget	resp	acc	rt	pts	tpts	meanFrameDur	minFrameDur	maxFrameDur
ProbeTrack12	2	ProbeTrack	11.3	WolfelabSpurzheim	20101013.151157	20101013.151236	8	0.011765	60	0	60-180	60	87	NoGap	1	1	2	1	1	target	1	1555	223	223	11.976	11.754	35.288
ProbeTrack12	2	ProbeTrack	11.3	WolfelabSpurzheim	20101013.151157	20101013.151246	8	0.011765	60	0	60-180	60	81	NoGap	1	2	2	0	1	target	1	520	740	963	11.765	11.756	11.776
ProbeTrack12	2	ProbeTrack	11.3	WolfelabSpurzheim	20101013.151157	20101013.151255	8	0.011765	60	0	60-180	60	127	NoGap	1	3	2	0	0	distractor	1	473	764	1727	11.765	11.754	11.776
ProbeTrack12	2	ProbeTrack	11.3	WolfelabSpurzheim	20101013.151157	20101013.151302	8	0.011765	60	0	60-180	60	164	NoGap	1	4	2	45	0	target	0	520	-1000	727	11.801	11.754	23.521
ProbeTrack12	2	ProbeTrack	11.3	WolfelabSpurzheim	20101013.151157	20101013.151310	8	0.011765	60	0	60-180	60	94	NoGap	1	5	2	45	1	target	1	390	805	1532	11.765	11.713	11.820
ProbeTrack12	2	ProbeTrack	11.3	WolfelabSpurzheim	20101013.151157	20101013.151320	8	0.011765	60	0	60-180	60	179	NoGap	1	6	2	3	0	target	0	767	-1000	532	11.765	11.753	11.779
ProbeTrack12	2	ProbeTrack	11.3	WolfelabSpurzheim	20101013.151157	20101013.151328	8	0.011765	60	0	60-180	60	126	NoGap	1	7	2	1	1	target	1	438	781	1313	11.765	11.755	11.776
ProbeTrack12	2	ProbeTrack	11.3	WolfelabSpurzheim	20101013.151157	20101013.151333	8	0.011765	60	0	60-180	60	89	NoGap	1	8	2	45	1	target	1	484	758	2071	11.765	11.755	11.775
ProbeTrack12	2	ProbeTrack	11.3	WolfelabSpurzheim	20101013.151157	20101013.151339	8	0.011765	60	0	60-180	60	156	NoGap	1	9	2	3	0	target	0	473	-1000	1071	11.765	11.754	11.777
ProbeTrack12	2	ProbeTrack	11.3	WolfelabSpurzheim	20101013.151157	20101013.151345	8	0.011765	60	0	60-180	60	77	NoGap	1	10	2	1	1	target	1	449	776	1847	11.765	11.754	11.775
ProbeTrack12	2	ProbeTrack	11.3	WolfelabSpurzheim	20101013.151157	20101013.151353	8	0.011765	60	0	60-180	60	167	NoGap	1	11	2	45	0	distractor	1	473	764	2611	11.765	11.754	11.777
ProbeTrack12	2	ProbeTrack	11.3	WolfelabSpurzheim	20101013.151157	20101013.151401	8	0.011765	60	0	60-180	60	63	NoGap	1	12	2	45	0	distractor	1	473	764	3375	11.765	11.735	11.797
ProbeTrack12	2	ProbeTrack	11.3	WolfelabSpurzheim	20101013.151157	20101013.151407	8	0.011765	60	0	60-180	60	157	NoGap	1	13	2	0	1	target	1	367	817	4192	11.765	11.755	11.777
ProbeTrack12	2	ProbeTrack	11.3	WolfelabSpurzheim	20101013.151157	20101013.151413	8	0.011765	60	0	60-180	60	127	NoGap	1	14	2	3	0	distractor	1	685	658	4850	11.765	11.754	11.776
ProbeTrack12	2	ProbeTrack	11.3	WolfelabSpurzheim	20101013.151157	20101013.151420	8	0.011765	60	0	60-180	60	121	NoGap	1	15	2	3	0	distractor	1	473	764	5614	11.765	11.734	11.800
ProbeTrack12	2	ProbeTrack	11.3	WolfelabSpurzheim	20101013.151157	20101013.151426	8	0.011765	60	0	60-180	60	123	NoGap	1	16	2	0	1	target	1	284	858	6472	11.765	11.755	11.777
ProbeTrack12	2	ProbeTrack	11.3	WolfelabSpurzheim	20101013.151157	20101013.151431	8	0.011765	60	0	60-180	60	86	NoGap	1	17	2	0	0	distractor	1	673	664	7136	11.765	11.754	11.776
ProbeTrack12	2	ProbeTrack	11.3	WolfelabSpurzheim	20101013.151157	20101013.151437	8	0.011765	60	0	60-180	60	76	NoGap	1	18	2	1	0	distractor	1	485	758	7894	11.765	11.704	11.837
ProbeTrack12	2	ProbeTrack	11.3	WolfelabSpurzheim	20101013.151157	20101013.151442	8	0.011765	60	0	60-180	60	159	NoGap	1	19	2	1	0	distractor	1	555	723	8617	11.765	11.754	11.777
ProbeTrack12	2	ProbeTrack	11.3	WolfelabSpurzheim	20101013.151157	20101013.151448	8	0.011765	60	0	60-180	60	122	NoGap	1	20	2	45	0	distractor	1	614	693	9310	11.765	11.734	11.791
ProbeTrack12	2	ProbeTrack	11.3	WolfelabSpurzheim	20101013.151157	20101013.151455	8	0.011765	60	0	60-180	60	149	NoGap	1	21	2	45	1	target	1	367	817	10127	11.765	11.753	11.776
ProbeTrack12	2	ProbeTrack	11.3	WolfelabSpurzheim	20101013.151157	20101013.151501	8	0.011765	60	0	60-180	60	91	NoGap	1	22	2	0	1	target	1	473	764	10891	11.765	11.754	11.776
ProbeTrack12	2	ProbeTrack	11.3	WolfelabSpurzheim	20101013.151157	20101013.151506	8	0.011765	60	0	60-180	60	105	NoGap	1	23	2	45	0	target	0	520	-1000	9891	11.765	11.754	11.777
ProbeTrack12	2	ProbeTrack	11.3	WolfelabSpurzheim	20101013.151157	20101013.151513	8	0.011765	60	0	60-180	60	84	NoGap	1	24	2	0	0	distractor	1	684	658	10549	11.765	11.753	11.776
ProbeTrack12	2	ProbeTrack	11.3	WolfelabSpurzheim	20101013.151157	20101013.151521	8	0.011765	60	0	60-180	60	77	NoGap	1	25	2	3	1	distractor	0	590	-1000	9549	11.765	11.755	11.777
ProbeTrack12	2	ProbeTrack	11.3	WolfelabSpurzheim	20101013.151157	20101013.151527	8	0.011765	60	0	60-180	60	159	NoGap	1	26	2	3	1	target	1	473	764	10313	11.765	11.755	11.777
ProbeTrack12	2	ProbeTrack	11.3	WolfelabSpurzheim	20101013.151157	20101013.151533	8	0.011765	60	0	60-180	60	180	NoGap	1	27	2	0	0	distractor	1	508	746	11059	11.765	11.754	11.777
ProbeTrack12	2	ProbeTrack	11.3	WolfelabSpurzheim	20101013.151157	20101013.151540	8	0.011765	60	0	60-180	60	170	NoGap	1	28	2	1	0	distractor	1	661	670	11729	11.765	11.753	11.777
ProbeTrack12	2	ProbeTrack	11.3	WolfelabSpurzheim	20101013.151157	20101013.151547	8	0.011765	60	0	60-180	60	94	NoGap	1	29	2	1	1	target	1	579	711	12440	11.765	11.754	11.777
ProbeTrack12	2	ProbeTrack	11.3	WolfelabSpurzheim	20101013.151157	20101013.151552	8	0.011765	60	0	60-180	60	98	NoGap	1	30	2	0	0	distractor	1	661	670	13110	11.765	11.744	11.781
ProbeTrack12	2	ProbeTrack	11.3	WolfelabSpurzheim	20101013.151157	20101013.151557	8	0.011765	60	0	60-180	60	74	NoGap	1	31	2	45	1	target	1	531	735	13845	11.765	11.755	11.777
ProbeTrack12	2	ProbeTrack	11.3	WolfelabSpurzheim	20101013.151157	20101013.151603	8	0.011765	60	0	60-180	60	160	NoGap	1	32	2	3	0	distractor	1	650	675	14520	11.765	11.733	11.795
ProbeTrack12	2	ProbeTrack	11.3	WolfelabSpurzheim	20101013.151157	20101013.151610	8	0.011765	60	0	60-180	60	173	NoGap	1	33	2	3	1	target	1	555	723	15243	11.765	11.754	11.776
ProbeTrack12	2	ProbeTrack	11.3	WolfelabSpurzheim	20101013.151157	20101013.151616	8	0.011765	60	0	60-180	60	133	NoGap	1	34	2	3	1	target	1	496	752	15995	11.765	11.745	11.781
ProbeTrack12	2	ProbeTrack	11.3	WolfelabSpurzheim	20101013.151157	20101013.151622	8	0.011765	60	0	60-180	60	100	NoGap	1	35	2	45	1	target	1	520	740	16735	11.765	11.740	11.796
ProbeTrack12	2	ProbeTrack	11.3	WolfelabSpurzheim	20101013.151157	20101013.151628	8	0.011765	60	0	60-180	60	61	NoGap	1	36	2	3	1	target	1	461	770	17505	11.765	11.747	11.786
ProbeTrack12	2	ProbeTrack	11.3	WolfelabSpurzheim	20101013.151157	20101013.151633	8	0.011765	60	0	60-180	60	111	NoGap	1	37	2	1	0	distractor	1	544	728	18233	11.765	11.740	11.793
ProbeTrack12	2	ProbeTrack	11.3	WolfelabSpurzheim	20101013.151157	20101013.151638	8	0.011765	60	0	60-180	60	127	NoGap	1	38	2	1	0	distractor	1	673	664	18897	11.765	11.755	11.776
ProbeTrack12	2	ProbeTrack	11.3	WolfelabSpurzheim	20101013.151157	20101013.151644	8	0.011765	60	0	60-180	60	62	NoGap	1	39	2	0	1	target	1	578	711	19608	11.765	11.754	11.776
ProbeTrack12	2	ProbeTrack	11.3	WolfelabSpurzheim	20101013.151157	20101013.151649	8	0.011765	60	0	60-180	60	114	NoGap	1	40	2	1	1	target	1	437	782	20390	11.765	11.755	11.775
ProbeTrack12	2	ProbeTrack	11.3	WolfelabSpurzheim	20101013.151728	20101013.151736	8	0.011764	60	0	60-180	60	175	GapPrac	1	1	2	0	0	distractor	1	591	705	21095	11.882	11.723	23.530
ProbeTrack12	2	ProbeTrack	11.3	WolfelabSpurzheim	20101013.151728	20101013.151744	8	0.011764	60	10	60-180	60	73	GapPrac	1	2	2	0	1	target	1	602	699	21794	11.765	11.754	11.776
ProbeTrack12	2	ProbeTrack	11.3	WolfelabSpurzheim	20101013.151728	20101013.151750	8	0.011764	60	10	60-180	60	173	GapPrac	1	3	2	0	0	distractor	1	626	687	22481	11.765	11.754	11.775
ProbeTrack12	2	ProbeTrack	11.3	WolfelabSpurzheim	20101013.151728	20101013.151757	8	0.011764	60	0	60-180	60	178	GapPrac	1	4	2	1	1	target	1	391	805	23286	11.806	11.755	23.528
ProbeTrack12	2	ProbeTrack	11.3	WolfelabSpurzheim	20101013.151728	20101013.151805	8	0.011764	60	10	60-180	60	74	GapPrac	1	5	2	0	0	target	0	1072	-1000	22286	11.765	11.754	11.775
ProbeTrack12	2	ProbeTrack	11.3	WolfelabSpurzheim	20101013.151728	20101013.151810	8	0.011764	60	0	60-180	60	162	GapPrac	1	6	2	0	0	distractor	1	508	746	23032	11.765	11.739	11.790
ProbeTrack12	2	ProbeTrack	11.3	WolfelabSpurzheim	20101013.151728	20101013.151820	8	0.011764	60	0	60-180	60	78	GapPrac	1	7	2	3	1	target	1	602	699	23731	11.765	11.754	11.777
ProbeTrack12	2	ProbeTrack	11.3	WolfelabSpurzheim	20101013.151728	20101013.151826	8	0.011764	60	10	60-180	60	104	GapPrac	1	8	2	1	1	target	1	461	770	24501	11.765	11.738	11.787
ProbeTrack12	2	ProbeTrack	11.3	WolfelabSpurzheim	20101013.151728	20101013.151831	8	0.011764	60	10	60-180	60	151	GapPrac	1	9	2	45	1	target	1	508	746	25247	11.837	11.753	11.778
ProbeTrack12	2	ProbeTrack	11.3	WolfelabSpurzheim	20101013.151728	20101013.151838	8	0.011764	60	0	60-180	60	154	GapPrac	1	10	2	1	0	distractor	1	672	664	25911	11.765	11.754	11.776
ProbeTrack12	2	ProbeTrack	11.3	WolfelabSpurzheim	20101013.151728	20101013.151845	8	0.011764	60	10	60-180	60	126	GapPrac	1	11	2	1	0	target	0	402	-1000	24911	11.765	11.754	11.778
ProbeTrack12	2	ProbeTrack	11.3	WolfelabSpurzheim	20101013.151728	20101013.151850	8	0.011764	60	0	60-180	60	111	GapPrac	1	12	2	45	0	distractor	1	579	711	25622	11.765	11.747	11.788
ProbeTrack12	2	ProbeTrack	11.3	WolfelabSpurzheim	20101013.151728	20101013.151857	8	0.011764	60	10	60-180	60	80	GapPrac	1	13	2	45	0	distractor	1	614	693	26315	11.765	11.754	11.777
ProbeTrack12	2	ProbeTrack	11.3	WolfelabSpurzheim	20101013.151728	20101013.151902	8	0.011764	60	10	60-180	60	84	GapPrac	1	14	2	3	0	distractor	1	614	693	27008	11.765	11.741	11.790
ProbeTrack12	2	ProbeTrack	11.3	WolfelabSpurzheim	20101013.151728	20101013.151908	8	0.011764	60	0	60-180	60	150	GapPrac	1	15	2	1	1	target	1	520	740	27748	11.765	11.753	11.777
ProbeTrack12	2	ProbeTrack	11.3	WolfelabSpurzheim	20101013.151728	20101013.151914	8	0.011764	60	10	60-180	60	162	GapPrac	1	16	2	3	1	target	1	402	799	28547	11.765	11.753	11.776
ProbeTrack12	2	ProbeTrack	11.3	WolfelabSpurzheim	20101013.151728	20101013.151920	8	0.011764	60	0	60-180	60	132	GapPrac	1	17	2	0	1	target	1	473	764	29311	11.765	11.754	11.778
ProbeTrack12	2	ProbeTrack	11.3	WolfelabSpurzheim	20101013.151728	20101013.151926	8	0.011764	60	0	60-180	60	113	GapPrac	1	18	2	45	1	target	1	355	823	30134	11.765	11.754	11.775
ProbeTrack12	2	ProbeTrack	11.3	WolfelabSpurzheim	20101013.151728	20101013.151932	8	0.011764	60	10	60-180	60	85	GapPrac	1	19	2	0	1	target	1	367	817	30951	11.765	11.753	11.775
ProbeTrack12	2	ProbeTrack	11.3	WolfelabSpurzheim	20101013.151728	20101013.151938	8	0.011764	60	0	60-180	60	163	GapPrac	1	20	2	3	0	distractor	1	555	723	31674	11.765	11.752	11.777
ProbeTrack12	2	ProbeTrack	11.3	WolfelabSpurzheim	20101013.152020	20101013.152027	8	0.011764	60	0	60-180	60	79	GapExp	1	1	2	45	1	target	1	402	799	32473	11.965	11.755	35.302
ProbeTrack12	2	ProbeTrack	11.3	WolfelabSpurzheim	20101013.152020	20101013.152036	8	0.011764	60	10	60-180	60	123	GapExp	1	2	2	0	0	distractor	1	555	723	33196	11.765	11.741	11.797
ProbeTrack12	2	ProbeTrack	11.3	WolfelabSpurzheim	20101013.152020	20101013.152042	8	0.011764	60	10	60-180	60	103	GapExp	1	3	2	1	0	target	0	555	-1000	32196	11.765	11.705	11.829
ProbeTrack12	2	ProbeTrack	11.3	WolfelabSpurzheim	20101013.152020	20101013.152048	8	0.011764	60	0	60-180	60	62	GapExp	1	4	2	3	1	target	1	496	752	32948	11.957	11.754	23.519
ProbeTrack12	2	ProbeTrack	11.3	WolfelabSpurzheim	20101013.152020	20101013.152053	8	0.011764	60	0	60-180	60	95	GapExp	1	5	2	45	0	distractor	1	531	735	33683	11.765	11.754	11.776
ProbeTrack12	2	ProbeTrack	11.3	WolfelabSpurzheim	20101013.152020	20101013.152100	8	0.011764	60	0	60-180	60	176	GapExp	1	6	2	0	1	target	1	343	829	34512	11.765	11.709	11.832
ProbeTrack12	2	ProbeTrack	11.3	WolfelabSpurzheim	20101013.152020	20101013.152106	8	0.011764	60	0	60-180	60	70	GapExp	1	7	2	0	0	distractor	1	379	811	35323	11.765	11.752	11.777
ProbeTrack12	2	ProbeTrack	11.3	WolfelabSpurzheim	20101013.152020	20101013.152111	8	0.011764	60	10	60-180	60	152	GapExp	1	8	2	1	1	target	1	473	764	36087	11.765	11.753	11.777
ProbeTrack12	2	ProbeTrack	11.3	WolfelabSpurzheim	20101013.152020	20101013.152117	8	0.011764	60	10	60-180	60	136	GapExp	1	9	2	45	1	target	1	296	852	36939	11.765	11.753	11.776
ProbeTrack12	2	ProbeTrack	11.3	WolfelabSpurzheim	20101013.152020	20101013.152124	8	0.011764	60	0	60-180	60	134	GapExp	1	10	2	3	0	distractor	1	638	681	37620	11.765	11.725	11.809
ProbeTrack12	2	ProbeTrack	11.3	WolfelabSpurzheim	20101013.152020	20101013.152130	8	0.011764	60	10	60-180	60	159	GapExp	0	11	2	45	1	target	1	343	829	38449	11.765	11.732	11.799
ProbeTrack12	2	ProbeTrack	11.3	WolfelabSpurzheim	20101013.152020	20101013.152137	8	0.011764	60	10	60-180	60	157	GapExp	0	12	2	3	0	distractor	1	532	734	39183	11.765	11.753	11.776
ProbeTrack12	2	ProbeTrack	11.3	WolfelabSpurzheim	20101013.152020	20101013.152143	8	0.011764	60	0	60-180	60	169	GapExp	0	13	2	0	0	distractor	1	579	711	39894	11.765	11.755	11.777
ProbeTrack12	2	ProbeTrack	11.3	WolfelabSpurzheim	20101013.152020	20101013.152150	8	0.011764	60	10	60-180	60	152	GapExp	0	14	2	0	1	target	1	908	546	40440	11.765	11.755	11.775
ProbeTrack12	2	ProbeTrack	11.3	WolfelabSpurzheim	20101013.152020	20101013.152157	8	0.011764	60	0	60-180	60	114	GapExp	0	15	2	1	1	target	1	473	764	41204	11.765	11.753	11.776
ProbeTrack12	2	ProbeTrack	11.3	WolfelabSpurzheim	20101013.152020	20101013.152202	8	0.011764	60	0	60-180	60	157	GapExp	0	16	2	0	1	target	1	461	770	41974	11.765	11.753	11.777
ProbeTrack12	2	ProbeTrack	11.3	WolfelabSpurzheim	20101013.152020	20101013.152208	8	0.011764	60	10	60-180	60	179	GapExp	0	17	2	3	0	distractor	1	884	558	42532	11.801	11.753	23.539
ProbeTrack12	2	ProbeTrack	11.3	WolfelabSpurzheim	20101013.152020	20101013.152215	8	0.011764	60	10	60-180	60	144	GapExp	0	18	2	45	1	target	1	449	776	43308	11.765	11.755	11.776
ProbeTrack12	2	ProbeTrack	11.3	WolfelabSpurzheim	20101013.152020	20101013.152222	8	0.011764	60	0	60-180	60	177	GapExp	0	19	2	45	0	distractor	1	661	670	43978	11.765	11.750	11.781
ProbeTrack12	2	ProbeTrack	11.3	WolfelabSpurzheim	20101013.152020	20101013.152229	8	0.011764	60	10	60-180	60	131	GapExp	0	20	2	1	1	target	1	426	787	44765	11.765	11.754	11.776
ProbeTrack12	2	ProbeTrack	11.3	WolfelabSpurzheim	20101013.152020	20101013.152235	8	0.011764	60	0	60-180	60	154	GapExp	0	21	2	3	0	distractor	1	485	758	45523	11.765	11.736	11.792
ProbeTrack12	2	ProbeTrack	11.3	WolfelabSpurzheim	20101013.152020	20101013.152241	8	0.011764	60	0	60-180	60	148	GapExp	0	22	2	3	1	target	1	426	787	46310	11.765	11.753	11.776
ProbeTrack12	2	ProbeTrack	11.3	WolfelabSpurzheim	20101013.152020	20101013.152247	8	0.011764	60	0	60-180	60	158	GapExp	0	23	2	45	0	distractor	1	649	676	46986	11.765	11.754	11.777
ProbeTrack12	2	ProbeTrack	11.3	WolfelabSpurzheim	20101013.152020	20101013.152254	8	0.011764	60	10	60-180	60	147	GapExp	0	24	2	45	1	target	1	403	799	47785	11.765	11.754	11.775
ProbeTrack12	2	ProbeTrack	11.3	WolfelabSpurzheim	20101013.152020	20101013.152301	8	0.011764	60	0	60-180	60	105	GapExp	0	25	2	0	0	target	0	508	-1000	46785	11.765	11.754	11.777
ProbeTrack12	2	ProbeTrack	11.3	WolfelabSpurzheim	20101013.152020	20101013.152307	8	0.011764	60	0	60-180	60	76	GapExp	0	26	2	45	0	distractor	1	685	658	47443	11.765	11.754	11.775
ProbeTrack12	2	ProbeTrack	11.3	WolfelabSpurzheim	20101013.152020	20101013.152316	8	0.011764	60	0	60-180	60	132	GapExp	0	27	2	1	1	target	1	449	776	48219	11.765	11.754	11.776
ProbeTrack12	2	ProbeTrack	11.3	WolfelabSpurzheim	20101013.152020	20101013.152324	8	0.011764	60	0	60-180	60	134	GapExp	0	28	2	45	1	target	1	508	746	48965	11.765	11.754	11.775
ProbeTrack12	2	ProbeTrack	11.3	WolfelabSpurzheim	20101013.152020	20101013.152331	8	0.011764	60	10	60-180	60	178	GapExp	0	29	2	1	0	distractor	1	884	558	49523	11.765	11.754	11.777
ProbeTrack12	2	ProbeTrack	11.3	WolfelabSpurzheim	20101013.152020	20101013.152338	8	0.011764	60	10	60-180	60	180	GapExp	0	30	2	3	1	target	1	449	776	50299	11.765	11.754	11.778
ProbeTrack12	2	ProbeTrack	11.3	WolfelabSpurzheim	20101013.152020	20101013.152344	8	0.011764	60	0	60-180	60	126	GapExp	0	31	2	0	0	distractor	1	673	664	50963	11.765	11.754	11.777
ProbeTrack12	2	ProbeTrack	11.3	WolfelabSpurzheim	20101013.152020	20101013.152350	8	0.011764	60	0	60-180	60	166	GapExp	0	32	2	45	0	distractor	1	461	770	51733	11.765	11.753	11.777
ProbeTrack12	2	ProbeTrack	11.3	WolfelabSpurzheim	20101013.152020	20101013.152357	8	0.011764	60	10	60-180	60	159	GapExp	0	33	2	0	0	distractor	1	720	640	52373	11.765	11.754	11.776
ProbeTrack12	2	ProbeTrack	11.3	WolfelabSpurzheim	20101013.152020	20101013.152404	8	0.011764	60	0	60-180	60	65	GapExp	0	34	2	1	1	target	1	449	776	53149	11.765	11.753	11.776
ProbeTrack12	2	ProbeTrack	11.3	WolfelabSpurzheim	20101013.152020	20101013.152409	8	0.011764	60	10	60-180	60	128	GapExp	0	35	2	0	1	target	1	426	787	53936	11.765	11.754	11.776
ProbeTrack12	2	ProbeTrack	11.3	WolfelabSpurzheim	20101013.152020	20101013.152415	8	0.011764	60	10	60-180	60	129	GapExp	0	36	2	0	1	target	1	426	787	54723	11.765	11.753	11.778
ProbeTrack12	2	ProbeTrack	11.3	WolfelabSpurzheim	20101013.152020	20101013.152421	8	0.011764	60	10	60-180	60	78	GapExp	0	37	2	0	1	target	1	461	770	55493	11.765	11.755	11.775
ProbeTrack12	2	ProbeTrack	11.3	WolfelabSpurzheim	20101013.152020	20101013.152426	8	0.011764	60	0	60-180	60	98	GapExp	0	38	2	3	0	distractor	1	708	646	56139	11.765	11.755	11.776
ProbeTrack12	2	ProbeTrack	11.3	WolfelabSpurzheim	20101013.152020	20101013.152432	8	0.011764	60	0	60-180	60	106	GapExp	0	39	2	45	0	distractor	1	544	728	56867	11.765	11.754	11.776
ProbeTrack12	2	ProbeTrack	11.3	WolfelabSpurzheim	20101013.152020	20101013.152438	8	0.011764	60	0	60-180	60	107	GapExp	0	40	2	45	0	distractor	1	673	664	57531	11.765	11.735	11.799
ProbeTrack12	2	ProbeTrack	11.3	WolfelabSpurzheim	20101013.152020	20101013.152444	8	0.011764	60	10	60-180	60	152	GapExp	0	41	2	0	0	target	0	802	-1000	56531	11.765	11.754	11.776
ProbeTrack12	2	ProbeTrack	11.3	WolfelabSpurzheim	20101013.152020	20101013.152451	8	0.011764	60	10	60-180	60	128	GapExp	0	42	2	3	0	distractor	1	603	699	57230	11.765	11.754	11.776
ProbeTrack12	2	ProbeTrack	11.3	WolfelabSpurzheim	20101013.152020	20101013.152458	8	0.011764	60	0	60-180	60	110	GapExp	0	43	2	3	0	distractor	1	532	734	57964	11.765	11.754	11.777
ProbeTrack12	2	ProbeTrack	11.3	WolfelabSpurzheim	20101013.152020	20101013.152503	8	0.011764	60	10	60-180	60	67	GapExp	0	44	2	0	0	distractor	1	614	693	58657	11.765	11.728	11.805
ProbeTrack12	2	ProbeTrack	11.3	WolfelabSpurzheim	20101013.152020	20101013.152508	8	0.011764	60	0	60-180	60	121	GapExp	0	45	2	1	0	distractor	1	556	722	59379	11.765	11.754	11.776
ProbeTrack12	2	ProbeTrack	11.3	WolfelabSpurzheim	20101013.152020	20101013.152514	8	0.011764	60	10	60-180	60	63	GapExp	0	46	2	0	1	target	1	755	623	60002	11.765	11.752	11.787
ProbeTrack12	2	ProbeTrack	11.3	WolfelabSpurzheim	20101013.152020	20101013.152519	8	0.011764	60	0	60-180	60	81	GapExp	0	47	2	45	0	distractor	1	555	723	60725	11.765	11.754	11.776
ProbeTrack12	2	ProbeTrack	11.3	WolfelabSpurzheim	20101013.152020	20101013.152525	8	0.011764	60	0	60-180	60	160	GapExp	0	48	2	3	1	target	1	485	758	61483	11.765	11.754	11.775
ProbeTrack12	2	ProbeTrack	11.3	WolfelabSpurzheim	20101013.152020	20101013.152532	8	0.011764	60	10	60-180	60	125	GapExp	0	49	2	3	0	distractor	1	908	546	62029	11.765	11.753	11.776
ProbeTrack12	2	ProbeTrack	11.3	WolfelabSpurzheim	20101013.152020	20101013.152539	8	0.011764	60	10	60-180	60	177	GapExp	0	50	2	0	1	target	1	637	682	62711	11.765	11.752	11.778
ProbeTrack12	2	ProbeTrack	11.3	WolfelabSpurzheim	20101013.152020	20101013.152545	8	0.011764	60	10	60-180	60	108	GapExp	0	51	2	3	1	target	1	508	746	63457	11.765	11.747	11.791
ProbeTrack12	2	ProbeTrack	11.3	WolfelabSpurzheim	20101013.152020	20101013.152551	8	0.011764	60	10	60-180	60	71	GapExp	0	52	2	3	1	target	1	498	751	64208	11.765	11.756	11.777
ProbeTrack12	2	ProbeTrack	11.3	WolfelabSpurzheim	20101013.152020	20101013.152557	8	0.011764	60	0	60-180	60	106	GapExp	0	53	2	1	1	target	1	520	740	64948	11.765	11.754	11.776
ProbeTrack12	2	ProbeTrack	11.3	WolfelabSpurzheim	20101013.152020	20101013.152602	8	0.011764	60	10	60-180	60	169	GapExp	0	54	2	0	0	distractor	1	532	734	65682	11.765	11.745	11.784
ProbeTrack12	2	ProbeTrack	11.3	WolfelabSpurzheim	20101013.152020	20101013.152609	8	0.011764	60	10	60-180	60	159	GapExp	0	55	2	1	0	distractor	1	943	529	66211	11.804	11.751	23.536
ProbeTrack12	2	ProbeTrack	11.3	WolfelabSpurzheim	20101013.152020	20101013.152615	8	0.011764	60	0	60-180	60	155	GapExp	0	56	2	45	1	target	1	449	776	66987	11.765	11.755	11.776
ProbeTrack12	2	ProbeTrack	11.3	WolfelabSpurzheim	20101013.152020	20101013.152623	8	0.011764	60	0	60-180	60	62	GapExp	0	57	2	0	1	target	1	590	705	67692	11.765	11.747	11.779
ProbeTrack12	2	ProbeTrack	11.3	WolfelabSpurzheim	20101013.152020	20101013.152630	8	0.011764	60	0	60-180	60	109	GapExp	0	58	2	1	1	target	1	461	770	68462	11.765	11.753	11.776
ProbeTrack12	2	ProbeTrack	11.3	WolfelabSpurzheim	20101013.152020	20101013.152636	8	0.011764	60	10	60-180	60	172	GapExp	0	59	2	1	0	target	0	414	-1000	67462	11.765	11.754	11.775
ProbeTrack12	2	ProbeTrack	11.3	WolfelabSpurzheim	20101013.152020	20101013.152643	8	0.011764	60	0	60-180	60	162	GapExp	0	60	2	45	1	target	1	391	805	68267	11.765	11.754	11.777
ProbeTrack12	2	ProbeTrack	11.3	WolfelabSpurzheim	20101013.152020	20101013.152650	8	0.011764	60	0	60-180	60	155	GapExp	0	61	2	0	0	distractor	1	684	658	68925	11.765	11.754	11.777
ProbeTrack12	2	ProbeTrack	11.3	WolfelabSpurzheim	20101013.152020	20101013.152657	8	0.011764	60	10	60-180	60	171	GapExp	0	62	2	45	1	target	1	555	723	69648	11.765	11.736	11.789
ProbeTrack12	2	ProbeTrack	11.3	WolfelabSpurzheim	20101013.152020	20101013.152705	8	0.011764	60	10	60-180	60	81	GapExp	0	63	2	45	0	distractor	1	602	699	70347	11.765	11.754	11.776
ProbeTrack12	2	ProbeTrack	11.3	WolfelabSpurzheim	20101013.152020	20101013.152713	8	0.011764	60	10	60-180	60	168	GapExp	0	64	2	3	0	distractor	1	649	676	71023	11.765	11.754	11.777
ProbeTrack12	2	ProbeTrack	11.3	WolfelabSpurzheim	20101013.152020	20101013.152720	8	0.011764	60	10	60-180	60	62	GapExp	0	65	2	1	0	distractor	1	602	699	71722	11.765	11.751	11.776
ProbeTrack12	2	ProbeTrack	11.3	WolfelabSpurzheim	20101013.152020	20101013.152725	8	0.011764	60	0	60-180	60	115	GapExp	0	66	2	45	0	distractor	1	637	682	72404	11.765	11.754	11.776
ProbeTrack12	2	ProbeTrack	11.3	WolfelabSpurzheim	20101013.152020	20101013.152732	8	0.011764	60	0	60-180	60	145	GapExp	0	67	2	1	0	distractor	1	567	717	73121	11.765	11.743	11.789
ProbeTrack12	2	ProbeTrack	11.3	WolfelabSpurzheim	20101013.152020	20101013.152738	8	0.011764	60	10	60-180	60	117	GapExp	0	68	2	0	0	distractor	1	743	629	73750	11.765	11.754	11.777
ProbeTrack12	2	ProbeTrack	11.3	WolfelabSpurzheim	20101013.152020	20101013.152744	8	0.011764	60	10	60-180	60	107	GapExp	0	69	2	0	1	target	1	508	746	74496	11.765	11.754	11.779
ProbeTrack12	2	ProbeTrack	11.3	WolfelabSpurzheim	20101013.152020	20101013.152751	8	0.011764	60	10	60-180	60	92	GapExp	0	70	2	45	0	distractor	1	591	705	75201	11.765	11.753	11.777
ProbeTrack12	2	ProbeTrack	11.3	WolfelabSpurzheim	20101013.152020	20101013.152757	8	0.011764	60	0	60-180	60	71	GapExp	0	71	2	45	1	target	1	426	787	75988	11.765	11.753	11.777
ProbeTrack12	2	ProbeTrack	11.3	WolfelabSpurzheim	20101013.152020	20101013.152803	8	0.011764	60	10	60-180	60	103	GapExp	0	72	2	0	1	target	1	426	787	76775	11.765	11.754	11.775
ProbeTrack12	2	ProbeTrack	11.3	WolfelabSpurzheim	20101013.152020	20101013.152808	8	0.011764	60	10	60-180	60	164	GapExp	0	73	2	1	0	distractor	1	719	641	77416	11.765	11.754	11.777
ProbeTrack12	2	ProbeTrack	11.3	WolfelabSpurzheim	20101013.152020	20101013.152815	8	0.011764	60	10	60-180	60	108	GapExp	0	74	2	45	0	distractor	1	602	699	78115	11.765	11.733	11.797
ProbeTrack12	2	ProbeTrack	11.3	WolfelabSpurzheim	20101013.152020	20101013.152822	8	0.011764	60	10	60-180	60	142	GapExp	0	75	2	0	1	target	1	484	758	78873	11.765	11.753	11.777
ProbeTrack12	2	ProbeTrack	11.3	WolfelabSpurzheim	20101013.152020	20101013.152828	8	0.011764	60	0	60-180	60	101	GapExp	0	76	2	0	0	target	0	520	-1000	77873	11.765	11.755	11.776
ProbeTrack12	2	ProbeTrack	11.3	WolfelabSpurzheim	20101013.152020	20101013.152834	8	0.011764	60	0	60-180	60	166	GapExp	0	77	2	3	1	target	1	591	705	78578	11.765	11.754	11.776
ProbeTrack12	2	ProbeTrack	11.3	WolfelabSpurzheim	20101013.152020	20101013.152842	8	0.011764	60	0	60-180	60	180	GapExp	0	78	2	1	1	target	1	461	770	79348	11.765	11.754	11.776
ProbeTrack12	2	ProbeTrack	11.3	WolfelabSpurzheim	20101013.152020	20101013.152849	8	0.011764	60	10	60-180	60	154	GapExp	0	79	2	0	0	distractor	1	673	664	80012	11.765	11.754	11.776
ProbeTrack12	2	ProbeTrack	11.3	WolfelabSpurzheim	20101013.152020	20101013.152855	8	0.011764	60	0	60-180	60	83	GapExp	0	80	2	0	1	target	1	367	817	80829	11.765	11.755	11.776
ProbeTrack12	2	ProbeTrack	11.3	WolfelabSpurzheim	20101013.152020	20101013.152900	8	0.011764	60	0	60-180	60	99	GapExp	0	81	2	3	0	distractor	1	555	723	81552	11.765	11.739	11.794
ProbeTrack12	2	ProbeTrack	11.3	WolfelabSpurzheim	20101013.152020	20101013.152906	8	0.011764	60	0	60-180	60	141	GapExp	0	82	2	3	1	target	1	414	793	82345	11.765	11.755	11.777
ProbeTrack12	2	ProbeTrack	11.3	WolfelabSpurzheim	20101013.152020	20101013.152912	8	0.011764	60	10	60-180	60	82	GapExp	0	83	2	45	1	target	1	426	787	83132	11.765	11.753	11.776
ProbeTrack12	2	ProbeTrack	11.3	WolfelabSpurzheim	20101013.152020	20101013.152918	8	0.011764	60	10	60-180	60	98	GapExp	0	84	2	1	1	target	1	508	746	83878	11.765	11.755	11.777
ProbeTrack12	2	ProbeTrack	11.3	WolfelabSpurzheim	20101013.152020	20101013.152924	8	0.011764	60	0	60-180	60	110	GapExp	0	85	2	0	0	distractor	1	579	711	84589	11.765	11.732	11.805
ProbeTrack12	2	ProbeTrack	11.3	WolfelabSpurzheim	20101013.152020	20101013.152929	8	0.011764	60	0	60-180	60	133	GapExp	0	86	2	0	1	target	1	461	770	85359	11.765	11.754	11.776
ProbeTrack12	2	ProbeTrack	11.3	WolfelabSpurzheim	20101013.152020	20101013.152935	8	0.011764	60	10	60-180	60	105	GapExp	0	87	2	45	0	distractor	1	614	693	86052	11.765	11.754	11.777
ProbeTrack12	2	ProbeTrack	11.3	WolfelabSpurzheim	20101013.152020	20101013.152941	8	0.011764	60	10	60-180	60	168	GapExp	0	88	2	3	1	target	1	450	775	86827	11.765	11.740	11.796
ProbeTrack12	2	ProbeTrack	11.3	WolfelabSpurzheim	20101013.152020	20101013.152948	8	0.011764	60	0	60-180	60	78	GapExp	0	89	2	0	1	target	1	579	711	87538	11.765	11.753	11.774
ProbeTrack12	2	ProbeTrack	11.3	WolfelabSpurzheim	20101013.152020	20101013.152953	8	0.011764	60	0	60-180	60	156	GapExp	0	90	2	3	0	distractor	1	614	693	88231	11.765	11.754	11.776
ProbeTrack12	2	ProbeTrack	11.3	WolfelabSpurzheim	20101013.152020	20101013.152959	8	0.011764	60	0	60-180	60	135	GapExp	0	91	2	45	1	target	1	496	752	88983	11.765	11.754	11.776
ProbeTrack12	2	ProbeTrack	11.3	WolfelabSpurzheim	20101013.152020	20101013.153006	8	0.011764	60	10	60-180	60	96	GapExp	0	92	2	3	1	target	1	414	793	89776	11.765	11.753	11.776
ProbeTrack12	2	ProbeTrack	11.3	WolfelabSpurzheim	20101013.152020	20101013.153011	8	0.011764	60	10	60-180	60	95	GapExp	0	93	2	3	1	target	1	414	793	90569	11.765	11.754	11.776
ProbeTrack12	2	ProbeTrack	11.3	WolfelabSpurzheim	20101013.152020	20101013.153017	8	0.011764	60	10	60-180	60	65	GapExp	0	94	2	3	0	distractor	1	743	629	91198	11.765	11.753	11.776
ProbeTrack12	2	ProbeTrack	11.3	WolfelabSpurzheim	20101013.152020	20101013.153023	8	0.011764	60	0	60-180	60	175	GapExp	0	95	2	3	0	distractor	1	520	740	91938	11.765	11.739	11.786
ProbeTrack12	2	ProbeTrack	11.3	WolfelabSpurzheim	20101013.152020	20101013.153029	8	0.011764	60	10	60-180	60	176	GapExp	0	96	2	1	1	target	1	426	787	92725	11.765	11.754	11.776
ProbeTrack12	2	ProbeTrack	11.3	WolfelabSpurzheim	20101013.152020	20101013.153036	8	0.011764	60	10	60-180	60	103	GapExp	0	97	2	3	1	target	1	379	811	93536	11.765	11.744	11.782
ProbeTrack12	2	ProbeTrack	11.3	WolfelabSpurzheim	20101013.152020	20101013.153041	8	0.011764	60	10	60-180	60	90	GapExp	0	98	2	1	0	target	0	449	-1000	92536	11.765	11.753	11.775
ProbeTrack12	2	ProbeTrack	11.3	WolfelabSpurzheim	20101013.152020	20101013.153047	8	0.011764	60	0	60-180	60	73	GapExp	0	99	2	3	1	target	1	379	811	93347	11.765	11.753	11.779
ProbeTrack12	2	ProbeTrack	11.3	WolfelabSpurzheim	20101013.152020	20101013.153053	8	0.011764	60	0	60-180	60	63	GapExp	0	100	2	0	1	target	1	567	717	94064	11.765	11.753	11.776
ProbeTrack12	2	ProbeTrack	11.3	WolfelabSpurzheim	20101013.152020	20101013.153059	8	0.011764	60	0	60-180	60	155	GapExp	0	101	2	0	1	target	1	391	805	94869	11.765	11.754	11.775
ProbeTrack12	2	ProbeTrack	11.3	WolfelabSpurzheim	20101013.152020	20101013.153105	8	0.011764	60	0	60-180	60	116	GapExp	0	102	2	3	0	target	0	520	-1000	93869	11.765	11.754	11.776
ProbeTrack12	2	ProbeTrack	11.3	WolfelabSpurzheim	20101013.152020	20101013.153111	8	0.011764	60	10	60-180	60	133	GapExp	0	103	2	0	0	target	0	766	-1000	92869	11.765	11.753	11.776
ProbeTrack12	2	ProbeTrack	11.3	WolfelabSpurzheim	20101013.152020	20101013.153118	8	0.011764	60	0	60-180	60	139	GapExp	0	104	2	3	1	target	1	555	723	93592	11.765	11.754	11.777
ProbeTrack12	2	ProbeTrack	11.3	WolfelabSpurzheim	20101013.152020	20101013.153124	8	0.011764	60	0	60-180	60	176	GapExp	0	105	2	3	1	target	1	556	722	94314	11.765	11.753	11.776
ProbeTrack12	2	ProbeTrack	11.3	WolfelabSpurzheim	20101013.152020	20101013.153130	8	0.011764	60	10	60-180	60	154	GapExp	0	106	2	1	0	distractor	1	579	711	95025	11.765	11.753	11.777
ProbeTrack12	2	ProbeTrack	11.3	WolfelabSpurzheim	20101013.152020	20101013.153136	8	0.011764	60	10	60-180	60	83	GapExp	0	107	2	45	1	target	1	473	764	95789	11.765	11.753	11.778
ProbeTrack12	2	ProbeTrack	11.3	WolfelabSpurzheim	20101013.152020	20101013.153142	8	0.011764	60	0	60-180	60	138	GapExp	0	108	2	0	1	target	1	391	805	96594	11.765	11.752	11.780
ProbeTrack12	2	ProbeTrack	11.3	WolfelabSpurzheim	20101013.152020	20101013.153148	8	0.011764	60	10	60-180	60	131	GapExp	0	109	2	3	0	distractor	1	614	693	97287	11.765	11.754	11.776
ProbeTrack12	2	ProbeTrack	11.3	WolfelabSpurzheim	20101013.152020	20101013.153154	8	0.011764	60	10	60-180	60	162	GapExp	0	110	2	0	1	target	1	437	782	98069	11.765	11.753	11.776
ProbeTrack12	2	ProbeTrack	11.3	WolfelabSpurzheim	20101013.152020	20101013.153200	8	0.011764	60	0	60-180	60	100	GapExp	0	111	2	3	1	target	1	813	594	98663	11.765	11.754	11.778
ProbeTrack12	2	ProbeTrack	11.3	WolfelabSpurzheim	20101013.152020	20101013.153208	8	0.011764	60	10	60-180	60	109	GapExp	0	112	2	0	0	distractor	1	579	711	99374	11.765	11.754	11.776
ProbeTrack12	2	ProbeTrack	11.3	WolfelabSpurzheim	20101013.152020	20101013.153216	8	0.011764	60	10	60-180	60	156	GapExp	0	113	2	45	1	target	1	344	828	100202	11.765	11.754	11.776
ProbeTrack12	2	ProbeTrack	11.3	WolfelabSpurzheim	20101013.152020	20101013.153223	8	0.011764	60	0	60-180	60	137	GapExp	0	114	2	3	1	target	1	591	705	100907	11.765	11.754	11.777
ProbeTrack12	2	ProbeTrack	11.3	WolfelabSpurzheim	20101013.152020	20101013.153229	8	0.011764	60	0	60-180	60	80	GapExp	0	115	2	0	0	distractor	1	555	723	101630	11.765	11.737	11.793
ProbeTrack12	2	ProbeTrack	11.3	WolfelabSpurzheim	20101013.152020	20101013.153234	8	0.011764	60	0	60-180	60	81	GapExp	0	116	2	1	1	target	1	450	775	102405	11.765	11.754	11.776
ProbeTrack12	2	ProbeTrack	11.3	WolfelabSpurzheim	20101013.152020	20101013.153239	8	0.011764	60	0	60-180	60	126	GapExp	0	117	2	3	1	target	1	449	776	103181	11.765	11.755	11.776
ProbeTrack12	2	ProbeTrack	11.3	WolfelabSpurzheim	20101013.152020	20101013.153245	8	0.011764	60	0	60-180	60	124	GapExp	0	118	2	0	0	distractor	1	438	781	103962	11.765	11.754	11.777
ProbeTrack12	2	ProbeTrack	11.3	WolfelabSpurzheim	20101013.152020	20101013.153251	8	0.011764	60	10	60-180	60	104	GapExp	0	119	2	1	0	target	0	426	-1000	102962	11.765	11.751	11.776
ProbeTrack12	2	ProbeTrack	11.3	WolfelabSpurzheim	20101013.152020	20101013.153256	8	0.011764	60	0	60-180	60	86	GapExp	0	120	2	45	0	distractor	1	661	670	103632	11.765	11.754	11.776
ProbeTrack12	2	ProbeTrack	11.3	WolfelabSpurzheim	20101013.152020	20101013.153303	8	0.011764	60	0	60-180	60	137	GapExp	0	121	2	1	1	target	1	473	764	104396	11.765	11.755	11.777
ProbeTrack12	2	ProbeTrack	11.3	WolfelabSpurzheim	20101013.152020	20101013.153309	8	0.011764	60	10	60-180	60	172	GapExp	0	122	2	0	0	distractor	1	743	629	105025	11.765	11.753	11.776
ProbeTrack12	2	ProbeTrack	11.3	WolfelabSpurzheim	20101013.152020	20101013.153316	8	0.011764	60	10	60-180	60	137	GapExp	0	123	2	1	0	distractor	1	579	711	105736	11.765	11.738	11.799
ProbeTrack12	2	ProbeTrack	11.3	WolfelabSpurzheim	20101013.152020	20101013.153322	8	0.011764	60	10	60-180	60	97	GapExp	0	124	2	1	1	target	1	450	775	106511	11.765	11.737	11.801
ProbeTrack12	2	ProbeTrack	11.3	WolfelabSpurzheim	20101013.152020	20101013.153327	8	0.011764	60	0	60-180	60	102	GapExp	0	125	2	45	0	distractor	1	626	687	107198	11.765	11.754	11.776
ProbeTrack12	2	ProbeTrack	11.3	WolfelabSpurzheim	20101013.152020	20101013.153334	8	0.011764	60	10	60-180	60	167	GapExp	0	126	2	45	1	target	1	355	823	108021	11.765	11.754	11.777
ProbeTrack12	2	ProbeTrack	11.3	WolfelabSpurzheim	20101013.152020	20101013.153340	8	0.011764	60	0	60-180	60	62	GapExp	0	127	2	1	1	target	1	496	752	108773	11.765	11.754	11.775
ProbeTrack12	2	ProbeTrack	11.3	WolfelabSpurzheim	20101013.152020	20101013.153345	8	0.011764	60	0	60-180	60	89	GapExp	0	128	2	1	0	distractor	1	602	699	109472	11.765	11.755	11.775
ProbeTrack12	2	ProbeTrack	11.3	WolfelabSpurzheim	20101013.152020	20101013.153351	8	0.011764	60	10	60-180	60	108	GapExp	0	129	2	1	1	target	1	673	664	110136	11.765	11.754	11.775
ProbeTrack12	2	ProbeTrack	11.3	WolfelabSpurzheim	20101013.152020	20101013.153357	8	0.011764	60	10	60-180	60	115	GapExp	0	130	2	1	0	distractor	1	461	770	110906	11.765	11.753	11.777
ProbeTrack12	2	ProbeTrack	11.3	WolfelabSpurzheim	20101013.152020	20101013.153403	8	0.011764	60	0	60-180	60	77	GapExp	0	131	2	1	1	target	1	485	758	111664	11.765	11.754	11.775
ProbeTrack12	2	ProbeTrack	11.3	WolfelabSpurzheim	20101013.152020	20101013.153408	8	0.011764	60	0	60-180	60	86	GapExp	0	132	2	3	0	distractor	1	614	693	112357	11.765	11.753	11.776
ProbeTrack12	2	ProbeTrack	11.3	WolfelabSpurzheim	20101013.152020	20101013.153413	8	0.011764	60	10	60-180	60	152	GapExp	0	133	2	3	1	target	1	615	693	113050	11.765	11.754	11.777
ProbeTrack12	2	ProbeTrack	11.3	WolfelabSpurzheim	20101013.152020	20101013.153420	8	0.011764	60	0	60-180	60	171	GapExp	0	134	2	3	1	target	1	473	764	113814	11.765	11.754	11.776
ProbeTrack12	2	ProbeTrack	11.3	WolfelabSpurzheim	20101013.152020	20101013.153426	8	0.011764	60	0	60-180	60	94	GapExp	0	135	2	3	0	distractor	1	790	605	114419	11.765	11.755	11.776
ProbeTrack12	2	ProbeTrack	11.3	WolfelabSpurzheim	20101013.152020	20101013.153433	8	0.011764	60	10	60-180	60	126	GapExp	0	136	2	3	1	target	1	402	799	115218	11.765	11.726	11.803
ProbeTrack12	2	ProbeTrack	11.3	WolfelabSpurzheim	20101013.152020	20101013.153439	8	0.011764	60	10	60-180	60	134	GapExp	0	137	2	3	0	distractor	1	837	582	115800	11.765	11.753	11.775
ProbeTrack12	2	ProbeTrack	11.3	WolfelabSpurzheim	20101013.152020	20101013.153446	8	0.011764	60	10	60-180	60	120	GapExp	0	138	2	45	1	target	1	320	840	116640	11.765	11.742	11.785
ProbeTrack12	2	ProbeTrack	11.3	WolfelabSpurzheim	20101013.152020	20101013.153452	8	0.011764	60	0	60-180	60	169	GapExp	0	139	2	3	0	distractor	1	426	787	117427	11.765	11.753	11.775
ProbeTrack12	2	ProbeTrack	11.3	WolfelabSpurzheim	20101013.152020	20101013.153458	8	0.011764	60	0	60-180	60	168	GapExp	0	140	2	0	1	target	1	520	740	118167	11.765	11.755	11.776
ProbeTrack12	2	ProbeTrack	11.3	WolfelabSpurzheim	20101013.152020	20101013.153505	8	0.011764	60	10	60-180	60	119	GapExp	0	141	2	1	1	target	1	485	758	118925	11.765	11.750	11.776
ProbeTrack12	2	ProbeTrack	11.3	WolfelabSpurzheim	20101013.152020	20101013.153511	8	0.011764	60	10	60-180	60	104	GapExp	0	142	2	45	1	target	1	415	793	119718	11.765	11.755	11.776
ProbeTrack12	2	ProbeTrack	11.3	WolfelabSpurzheim	20101013.152020	20101013.153519	8	0.011764	60	0	60-180	60	65	GapExp	0	143	2	1	1	distractor	0	943	-1000	118718	11.765	11.732	11.801
ProbeTrack12	2	ProbeTrack	11.3	WolfelabSpurzheim	20101013.152020	20101013.153525	8	0.011764	60	10	60-180	60	105	GapExp	0	144	2	0	1	target	1	520	740	119458	11.765	11.754	11.776
ProbeTrack12	2	ProbeTrack	11.3	WolfelabSpurzheim	20101013.152020	20101013.153530	8	0.011764	60	10	60-180	60	75	GapExp	0	145	2	45	0	distractor	1	520	740	120198	11.765	11.754	11.776
ProbeTrack12	2	ProbeTrack	11.3	WolfelabSpurzheim	20101013.152020	20101013.153536	8	0.011764	60	10	60-180	60	144	GapExp	0	146	2	0	1	target	1	543	729	120927	11.765	11.754	11.777
ProbeTrack12	2	ProbeTrack	11.3	WolfelabSpurzheim	20101013.152020	20101013.153543	8	0.011764	60	10	60-180	60	140	GapExp	0	147	2	45	0	distractor	1	743	629	121556	11.765	11.754	11.776
ProbeTrack12	2	ProbeTrack	11.3	WolfelabSpurzheim	20101013.152020	20101013.153550	8	0.011764	60	0	60-180	60	139	GapExp	0	148	2	0	0	distractor	1	496	752	122308	11.765	11.754	11.776
ProbeTrack12	2	ProbeTrack	11.3	WolfelabSpurzheim	20101013.152020	20101013.153557	8	0.011764	60	0	60-180	60	119	GapExp	0	149	2	0	0	distractor	1	684	658	122966	11.765	11.754	11.776
ProbeTrack12	2	ProbeTrack	11.3	WolfelabSpurzheim	20101013.152020	20101013.153602	8	0.011764	60	0	60-180	60	140	GapExp	0	150	2	1	1	target	1	426	787	123753	11.765	11.754	11.778
ProbeTrack12	2	ProbeTrack	11.3	WolfelabSpurzheim	20101013.152020	20101013.153608	8	0.011764	60	10	60-180	60	108	GapExp	0	151	2	1	1	target	1	662	669	124422	11.765	11.755	11.776
ProbeTrack12	2	ProbeTrack	11.3	WolfelabSpurzheim	20101013.152020	20101013.153615	8	0.011764	60	10	60-180	60	93	GapExp	0	152	2	1	0	distractor	1	884	558	124980	11.765	11.744	11.789
ProbeTrack12	2	ProbeTrack	11.3	WolfelabSpurzheim	20101013.152020	20101013.153621	8	0.011764	60	10	60-180	60	96	GapExp	0	153	2	45	1	target	1	379	811	125791	11.765	11.754	11.776
ProbeTrack12	2	ProbeTrack	11.3	WolfelabSpurzheim	20101013.152020	20101013.153627	8	0.011764	60	0	60-180	60	72	GapExp	0	154	2	45	0	distractor	1	638	681	126472	11.765	11.754	11.776
ProbeTrack12	2	ProbeTrack	11.3	WolfelabSpurzheim	20101013.152020	20101013.153633	8	0.011764	60	0	60-180	60	93	GapExp	0	155	2	1	0	distractor	1	661	670	127142	11.765	11.753	11.775
ProbeTrack12	2	ProbeTrack	11.3	WolfelabSpurzheim	20101013.152020	20101013.153638	8	0.011764	60	0	60-180	60	108	GapExp	0	156	2	45	1	target	1	497	752	127894	11.765	11.741	11.782
ProbeTrack12	2	ProbeTrack	11.3	WolfelabSpurzheim	20101013.152020	20101013.153645	8	0.011764	60	0	60-180	60	77	GapExp	0	157	2	1	0	distractor	1	673	664	128558	11.765	11.737	11.785
ProbeTrack12	2	ProbeTrack	11.3	WolfelabSpurzheim	20101013.152020	20101013.153651	8	0.011764	60	0	60-180	60	72	GapExp	0	158	2	3	0	target	0	520	-1000	127558	11.765	11.754	11.776
ProbeTrack12	2	ProbeTrack	11.3	WolfelabSpurzheim	20101013.152020	20101013.153656	8	0.011764	60	0	60-180	60	110	GapExp	0	159	2	1	0	distractor	1	603	699	128257	11.765	11.754	11.775
ProbeTrack12	2	ProbeTrack	11.3	WolfelabSpurzheim	20101013.152020	20101013.153702	8	0.011764	60	10	60-180	60	112	GapExp	0	160	2	0	0	distractor	1	461	770	129027	11.765	11.754	11.780
ProbeTrack12	2	ProbeTrack	11.3	WolfelabSpurzheim	20101013.152020	20101013.153708	8	0.011764	60	0	60-180	60	179	GapExp	0	161	2	0	1	target	1	532	734	129761	11.765	11.755	11.776
ProbeTrack12	2	ProbeTrack	11.3	WolfelabSpurzheim	20101013.152020	20101013.153715	8	0.011764	60	10	60-180	60	82	GapExp	0	162	2	3	1	target	1	403	799	130560	11.765	11.753	11.777
ProbeTrack12	2	ProbeTrack	11.3	WolfelabSpurzheim	20101013.152020	20101013.153720	8	0.011764	60	10	60-180	60	128	GapExp	0	163	2	3	0	distractor	1	673	664	131224	11.765	11.722	11.814
ProbeTrack12	2	ProbeTrack	11.3	WolfelabSpurzheim	20101013.152020	20101013.153726	8	0.011764	60	0	60-180	60	161	GapExp	0	164	2	45	0	distractor	1	555	723	131947	11.765	11.755	11.776
ProbeTrack12	2	ProbeTrack	11.3	WolfelabSpurzheim	20101013.152020	20101013.153733	8	0.011764	60	10	60-180	60	66	GapExp	0	165	2	3	1	target	1	555	723	132670	11.765	11.753	11.777
ProbeTrack12	2	ProbeTrack	11.3	WolfelabSpurzheim	20101013.152020	20101013.153738	8	0.011764	60	0	60-180	60	91	GapExp	0	166	2	1	1	target	1	461	770	133440	11.765	11.754	11.777
ProbeTrack12	2	ProbeTrack	11.3	WolfelabSpurzheim	20101013.152020	20101013.153744	8	0.011764	60	10	60-180	60	170	GapExp	0	167	2	3	0	distractor	1	332	834	134274	11.765	11.755	11.775
ProbeTrack12	2	ProbeTrack	11.3	WolfelabSpurzheim	20101013.152020	20101013.153750	8	0.011764	60	10	60-180	60	107	GapExp	0	168	2	3	0	distractor	1	509	746	135020	11.765	11.748	11.784
ProbeTrack12	2	ProbeTrack	11.3	WolfelabSpurzheim	20101013.152020	20101013.153756	8	0.011764	60	0	60-180	60	147	GapExp	0	169	2	0	0	distractor	1	602	699	135719	11.765	11.751	11.776
ProbeTrack12	2	ProbeTrack	11.3	WolfelabSpurzheim	20101013.152020	20101013.153802	8	0.011764	60	0	60-180	60	98	GapExp	0	170	2	45	1	target	1	508	746	136465	11.765	11.754	11.777
ProbeTrack12	2	ProbeTrack	11.3	WolfelabSpurzheim	20101013.152020	20101013.153809	8	0.011764	60	0	60-180	60	173	GapExp	0	171	2	0	1	target	1	484	758	137223	11.765	11.754	11.776
ProbeTrack12	2	ProbeTrack	11.3	WolfelabSpurzheim	20101013.152020	20101013.153815	8	0.011764	60	0	60-180	60	96	GapExp	0	172	2	3	0	distractor	1	508	746	137969	11.765	11.752	11.778
ProbeTrack12	2	ProbeTrack	11.3	WolfelabSpurzheim	20101013.152020	20101013.153820	8	0.011764	60	0	60-180	60	164	GapExp	0	173	2	0	0	distractor	1	637	682	138651	11.765	11.755	11.776
ProbeTrack12	2	ProbeTrack	11.3	WolfelabSpurzheim	20101013.152020	20101013.153827	8	0.011764	60	0	60-180	60	146	GapExp	0	174	2	1	0	distractor	1	496	752	139403	11.765	11.716	11.807
ProbeTrack12	2	ProbeTrack	11.3	WolfelabSpurzheim	20101013.152020	20101013.153834	8	0.011764	60	10	60-180	60	102	GapExp	0	175	2	45	0	distractor	1	473	764	140167	11.765	11.752	11.776
ProbeTrack12	2	ProbeTrack	11.3	WolfelabSpurzheim	20101013.152020	20101013.153840	8	0.011764	60	10	60-180	60	69	GapExp	0	176	2	3	1	target	1	508	746	140913	11.765	11.753	11.777
ProbeTrack12	2	ProbeTrack	11.3	WolfelabSpurzheim	20101013.152020	20101013.153845	8	0.011764	60	10	60-180	60	167	GapExp	0	177	2	0	0	distractor	1	402	799	141712	11.765	11.754	11.777
ProbeTrack12	2	ProbeTrack	11.3	WolfelabSpurzheim	20101013.152020	20101013.153852	8	0.011764	60	10	60-180	60	149	GapExp	0	178	2	45	0	distractor	1	508	746	142458	11.765	11.728	11.808
ProbeTrack12	2	ProbeTrack	11.3	WolfelabSpurzheim	20101013.152020	20101013.153859	8	0.011764	60	10	60-180	60	107	GapExp	0	179	2	0	0	distractor	1	661	670	143128	11.765	11.736	11.795
ProbeTrack12	2	ProbeTrack	11.3	WolfelabSpurzheim	20101013.152020	20101013.153905	8	0.011764	60	0	60-180	60	169	GapExp	0	180	2	45	1	target	1	485	758	143886	11.765	11.752	11.778
ProbeTrack12	2	ProbeTrack	11.3	WolfelabSpurzheim	20101013.152020	20101013.153912	8	0.011764	60	0	60-180	60	109	GapExp	0	181	2	45	1	target	1	461	770	144656	11.765	11.753	11.777
ProbeTrack12	2	ProbeTrack	11.3	WolfelabSpurzheim	20101013.152020	20101013.153918	8	0.011764	60	10	60-180	60	174	GapExp	0	182	2	3	0	distractor	1	615	693	145349	11.765	11.754	11.776
ProbeTrack12	2	ProbeTrack	11.3	WolfelabSpurzheim	20101013.152020	20101013.153926	8	0.011764	60	10	60-180	60	105	GapExp	0	183	2	45	0	distractor	1	543	729	146078	11.765	11.754	11.777
ProbeTrack12	2	ProbeTrack	11.3	WolfelabSpurzheim	20101013.152020	20101013.153932	8	0.011764	60	10	60-180	60	135	GapExp	0	184	2	45	1	target	1	591	705	146783	11.765	11.754	11.775
ProbeTrack12	2	ProbeTrack	11.3	WolfelabSpurzheim	20101013.152020	20101013.153938	8	0.011764	60	0	60-180	60	178	GapExp	0	185	2	1	0	distractor	1	485	758	147541	11.765	11.750	11.777
ProbeTrack12	2	ProbeTrack	11.3	WolfelabSpurzheim	20101013.152020	20101013.153945	8	0.011764	60	10	60-180	60	88	GapExp	0	186	2	0	1	target	1	496	752	148293	11.765	11.755	11.778
ProbeTrack12	2	ProbeTrack	11.3	WolfelabSpurzheim	20101013.152020	20101013.153951	8	0.011764	60	0	60-180	60	154	GapExp	0	187	2	45	0	distractor	1	684	658	148951	11.765	11.755	11.778
ProbeTrack12	2	ProbeTrack	11.3	WolfelabSpurzheim	20101013.152020	20101013.153958	8	0.011764	60	10	60-180	60	125	GapExp	0	188	2	1	1	target	1	520	740	149691	11.765	11.754	11.777
ProbeTrack12	2	ProbeTrack	11.3	WolfelabSpurzheim	20101013.152020	20101013.154004	8	0.011764	60	0	60-180	60	170	GapExp	0	189	2	0	1	target	1	461	770	150461	11.765	11.754	11.776
ProbeTrack12	2	ProbeTrack	11.3	WolfelabSpurzheim	20101013.152020	20101013.154011	8	0.011764	60	10	60-180	60	72	GapExp	0	190	2	0	1	target	1	438	781	151242	11.765	11.730	11.796
ProbeTrack12	2	ProbeTrack	11.3	WolfelabSpurzheim	20101013.152020	20101013.154016	8	0.011764	60	10	60-180	60	164	GapExp	0	191	2	1	1	target	1	426	787	152029	11.765	11.741	11.792
ProbeTrack12	2	ProbeTrack	11.3	WolfelabSpurzheim	20101013.152020	20101013.154022	8	0.011764	60	10	60-180	60	144	GapExp	0	192	2	0	0	distractor	1	614	693	152722	11.765	11.737	11.797
ProbeTrack12	2	ProbeTrack	11.3	WolfelabSpurzheim	20101013.152020	20101013.154028	8	0.011764	60	0	60-180	60	130	GapExp	0	193	2	1	0	distractor	1	638	681	153403	11.765	11.754	11.776
ProbeTrack12	2	ProbeTrack	11.3	WolfelabSpurzheim	20101013.152020	20101013.154034	8	0.011764	60	0	60-180	60	93	GapExp	0	194	2	45	1	target	1	426	787	154190	11.765	11.753	11.776
ProbeTrack12	2	ProbeTrack	11.3	WolfelabSpurzheim	20101013.152020	20101013.154041	8	0.011764	60	0	60-180	60	83	GapExp	0	195	2	1	0	distractor	1	520	740	154930	11.765	11.754	11.776
ProbeTrack12	2	ProbeTrack	11.3	WolfelabSpurzheim	20101013.152020	20101013.154046	8	0.011764	60	0	60-180	60	166	GapExp	0	196	2	1	0	distractor	1	355	823	155753	11.765	11.755	11.776
ProbeTrack12	2	ProbeTrack	11.3	WolfelabSpurzheim	20101013.152020	20101013.154052	8	0.011764	60	0	60-180	60	62	GapExp	0	197	2	3	1	target	1	390	805	156558	11.765	11.755	11.775
ProbeTrack12	2	ProbeTrack	11.3	WolfelabSpurzheim	20101013.152020	20101013.154057	8	0.011764	60	0	60-180	60	140	GapExp	0	198	2	3	1	target	1	332	834	157392	11.765	11.753	11.775
ProbeTrack12	2	ProbeTrack	11.3	WolfelabSpurzheim	20101013.152020	20101013.154103	8	0.011764	60	10	60-180	60	83	GapExp	0	199	2	1	1	target	1	355	823	158215	11.765	11.754	11.775
ProbeTrack12	2	ProbeTrack	11.3	WolfelabSpurzheim	20101013.152020	20101013.154108	8	0.011764	60	0	60-180	60	70	GapExp	0	200	2	0	0	distractor	1	568	716	158931	11.765	11.754	11.776
ProbeTrack12	2	ProbeTrack	11.3	WolfelabSpurzheim	20101013.152020	20101013.154114	8	0.011764	60	0	60-180	60	116	GapExp	0	201	2	45	0	distractor	1	496	752	159683	11.765	11.756	11.775
ProbeTrack12	2	ProbeTrack	11.3	WolfelabSpurzheim	20101013.152020	20101013.154120	8	0.011764	60	10	60-180	60	165	GapExp	0	202	2	1	1	target	1	649	676	160359	11.765	11.735	11.798
ProbeTrack12	2	ProbeTrack	11.3	WolfelabSpurzheim	20101013.152020	20101013.154127	8	0.011764	60	0	60-180	60	177	GapExp	0	203	2	45	1	target	1	402	799	161158	11.765	11.752	11.776
ProbeTrack12	2	ProbeTrack	11.3	WolfelabSpurzheim	20101013.152020	20101013.154134	8	0.011764	60	10	60-180	60	69	GapExp	0	204	2	1	0	distractor	1	590	705	161863	11.765	11.755	11.776
ProbeTrack12	2	ProbeTrack	11.3	WolfelabSpurzheim	20101013.152020	20101013.154139	8	0.011764	60	0	60-180	60	97	GapExp	0	205	2	45	1	target	1	355	823	162686	11.765	11.753	11.776
ProbeTrack12	2	ProbeTrack	11.3	WolfelabSpurzheim	20101013.152020	20101013.154145	8	0.011764	60	0	60-180	60	72	GapExp	0	206	2	1	0	distractor	1	520	740	163426	11.765	11.754	11.775
ProbeTrack12	2	ProbeTrack	11.3	WolfelabSpurzheim	20101013.152020	20101013.154150	8	0.011764	60	10	60-180	60	104	GapExp	0	207	2	1	1	target	1	461	770	164196	11.765	11.754	11.777
ProbeTrack12	2	ProbeTrack	11.3	WolfelabSpurzheim	20101013.152020	20101013.154155	8	0.011764	60	0	60-180	60	72	GapExp	0	208	2	0	1	target	1	473	764	164960	11.765	11.755	11.776
ProbeTrack12	2	ProbeTrack	11.3	WolfelabSpurzheim	20101013.152020	20101013.154200	8	0.011764	60	10	60-180	60	111	GapExp	0	209	2	45	1	target	1	450	775	165735	11.765	11.754	11.776
ProbeTrack12	2	ProbeTrack	11.3	WolfelabSpurzheim	20101013.152020	20101013.154209	8	0.011764	60	10	60-180	60	101	GapExp	0	210	2	1	1	target	1	438	781	166516	11.765	11.754	11.776
ProbeTrack12	2	ProbeTrack	11.3	WolfelabSpurzheim	20101013.152020	20101013.154215	8	0.011764	60	0	60-180	60	119	GapExp	0	211	2	3	1	target	1	379	811	167327	11.765	11.755	11.784
ProbeTrack12	2	ProbeTrack	11.3	WolfelabSpurzheim	20101013.152020	20101013.154220	8	0.011764	60	0	60-180	60	116	GapExp	0	212	2	3	0	distractor	1	555	723	168050	11.765	11.753	11.775
ProbeTrack12	2	ProbeTrack	11.3	WolfelabSpurzheim	20101013.152020	20101013.154226	8	0.011764	60	10	60-180	60	165	GapExp	0	213	2	1	0	distractor	1	590	705	168755	11.765	11.754	11.780
ProbeTrack12	2	ProbeTrack	11.3	WolfelabSpurzheim	20101013.152020	20101013.154233	8	0.011764	60	10	60-180	60	124	GapExp	0	214	2	45	0	distractor	1	473	764	169519	11.765	11.753	11.777
ProbeTrack12	2	ProbeTrack	11.3	WolfelabSpurzheim	20101013.152020	20101013.154240	8	0.011764	60	0	60-180	60	163	GapExp	0	215	2	45	1	target	1	414	793	170312	11.765	11.754	11.778
ProbeTrack12	2	ProbeTrack	11.3	WolfelabSpurzheim	20101013.152020	20101013.154246	8	0.011764	60	10	60-180	60	136	GapExp	0	216	2	45	0	distractor	1	544	728	171040	11.765	11.751	11.775
ProbeTrack12	2	ProbeTrack	11.3	WolfelabSpurzheim	20101013.152020	20101013.154253	8	0.011764	60	10	60-180	60	131	GapExp	0	217	2	45	1	target	1	414	793	171833	11.765	11.753	11.776
ProbeTrack12	2	ProbeTrack	11.3	WolfelabSpurzheim	20101013.152020	20101013.154259	8	0.011764	60	0	60-180	60	139	GapExp	0	218	2	0	0	distractor	1	649	676	172509	11.765	11.753	11.776
ProbeTrack12	2	ProbeTrack	11.3	WolfelabSpurzheim	20101013.152020	20101013.154306	8	0.011764	60	10	60-180	60	146	GapExp	0	219	2	3	0	distractor	1	673	664	173173	11.765	11.754	11.777
ProbeTrack12	2	ProbeTrack	11.3	WolfelabSpurzheim	20101013.152020	20101013.154312	8	0.011764	60	0	60-180	60	78	GapExp	0	220	2	0	0	distractor	1	614	693	173866	11.765	11.752	11.776
ProbeTrack12	2	ProbeTrack	11.3	WolfelabSpurzheim	20101013.152020	20101013.154318	8	0.011764	60	10	60-180	60	133	GapExp	0	221	2	1	1	target	1	497	752	174618	11.765	11.754	11.775
ProbeTrack12	2	ProbeTrack	11.3	WolfelabSpurzheim	20101013.152020	20101013.154324	8	0.011764	60	0	60-180	60	134	GapExp	0	222	2	1	1	target	1	485	758	175376	11.765	11.753	11.776
ProbeTrack12	2	ProbeTrack	11.3	WolfelabSpurzheim	20101013.152020	20101013.154331	8	0.011764	60	10	60-180	60	102	GapExp	0	223	2	45	0	distractor	1	496	752	176128	11.765	11.754	11.776
ProbeTrack12	2	ProbeTrack	11.3	WolfelabSpurzheim	20101013.152020	20101013.154338	8	0.011764	60	10	60-180	60	141	GapExp	0	224	2	1	1	target	1	402	799	176927	11.765	11.754	11.776
ProbeTrack12	2	ProbeTrack	11.3	WolfelabSpurzheim	20101013.152020	20101013.154344	8	0.011764	60	0	60-180	60	68	GapExp	0	225	2	3	1	target	1	473	764	177691	11.765	11.754	11.777
ProbeTrack12	2	ProbeTrack	11.3	WolfelabSpurzheim	20101013.152020	20101013.154350	8	0.011764	60	0	60-180	60	110	GapExp	0	226	2	3	0	distractor	1	626	687	178378	11.765	11.734	11.802
ProbeTrack12	2	ProbeTrack	11.3	WolfelabSpurzheim	20101013.152020	20101013.154355	8	0.011764	60	0	60-180	60	127	GapExp	0	227	2	1	0	distractor	1	661	670	179048	11.765	11.754	11.775
ProbeTrack12	2	ProbeTrack	11.3	WolfelabSpurzheim	20101013.152020	20101013.154401	8	0.011764	60	0	60-180	60	168	GapExp	0	228	2	3	0	distractor	1	567	717	179765	11.765	11.753	11.776
ProbeTrack12	2	ProbeTrack	11.3	WolfelabSpurzheim	20101013.152020	20101013.154407	8	0.011764	60	10	60-180	60	83	GapExp	0	229	2	0	0	target	0	707	-1000	178765	11.765	11.754	11.776
ProbeTrack12	2	ProbeTrack	11.3	WolfelabSpurzheim	20101013.152020	20101013.154413	8	0.011764	60	10	60-180	60	114	GapExp	0	230	2	45	0	distractor	1	603	699	179464	11.765	11.714	11.814
ProbeTrack12	2	ProbeTrack	11.3	WolfelabSpurzheim	20101013.152020	20101013.154419	8	0.011764	60	10	60-180	60	168	GapExp	0	231	2	1	0	distractor	1	661	670	180134	11.765	11.753	11.777
ProbeTrack12	2	ProbeTrack	11.3	WolfelabSpurzheim	20101013.152020	20101013.154426	8	0.011764	60	0	60-180	60	99	GapExp	0	232	2	45	1	target	1	485	758	180892	11.765	11.754	11.776
ProbeTrack12	2	ProbeTrack	11.3	WolfelabSpurzheim	20101013.152020	20101013.154432	8	0.011764	60	0	60-180	60	95	GapExp	0	233	2	0	1	target	1	414	793	181685	11.765	11.755	11.777
ProbeTrack12	2	ProbeTrack	11.3	WolfelabSpurzheim	20101013.152020	20101013.154437	8	0.011764	60	10	60-180	60	117	GapExp	0	234	2	3	1	target	1	391	805	182490	11.765	11.754	11.776
ProbeTrack12	2	ProbeTrack	11.3	WolfelabSpurzheim	20101013.152020	20101013.154442	8	0.011764	60	0	60-180	60	180	GapExp	0	235	2	45	0	distractor	1	402	799	183289	11.765	11.753	11.777
ProbeTrack12	2	ProbeTrack	11.3	WolfelabSpurzheim	20101013.152020	20101013.154449	8	0.011764	60	0	60-180	60	90	GapExp	0	236	2	1	0	distractor	1	590	705	183994	11.765	11.754	11.775
ProbeTrack12	2	ProbeTrack	11.3	WolfelabSpurzheim	20101013.152020	20101013.154455	8	0.011764	60	10	60-180	60	62	GapExp	0	237	2	3	1	target	1	426	787	184781	11.765	11.752	11.777
ProbeTrack12	2	ProbeTrack	11.3	WolfelabSpurzheim	20101013.152020	20101013.154500	8	0.011764	60	10	60-180	60	128	GapExp	0	238	2	3	0	target	0	391	-1000	183781	11.765	11.753	11.778
ProbeTrack12	2	ProbeTrack	11.3	WolfelabSpurzheim	20101013.152020	20101013.154506	8	0.011764	60	10	60-180	60	69	GapExp	0	239	2	45	1	target	1	438	781	184562	11.765	11.754	11.776
ProbeTrack12	2	ProbeTrack	11.3	WolfelabSpurzheim	20101013.152020	20101013.154512	8	0.011764	60	10	60-180	60	74	GapExp	0	240	2	1	0	distractor	1	685	658	185220	11.765	11.754	11.778
ProbeTrack12	2	ProbeTrack	11.3	WolfelabSpurzheim	20101013.152020	20101013.154518	8	0.011764	60	10	60-180	60	107	GapExp	0	241	2	0	1	target	1	602	699	185919	11.765	11.754	11.778
ProbeTrack12	2	ProbeTrack	11.3	WolfelabSpurzheim	20101013.152020	20101013.154524	8	0.011764	60	0	60-180	60	77	GapExp	0	242	2	1	1	target	1	532	734	186653	11.765	11.754	11.775
ProbeTrack12	2	ProbeTrack	11.3	WolfelabSpurzheim	20101013.152020	20101013.154529	8	0.011764	60	10	60-180	60	146	GapExp	0	243	2	3	0	distractor	1	649	676	187329	11.765	11.753	11.776
ProbeTrack12	2	ProbeTrack	11.3	WolfelabSpurzheim	20101013.152020	20101013.154536	8	0.011764	60	0	60-180	60	128	GapExp	0	244	2	1	0	distractor	1	755	623	187952	11.765	11.753	11.776
ProbeTrack12	2	ProbeTrack	11.3	WolfelabSpurzheim	20101013.152020	20101013.154542	8	0.011764	60	10	60-180	60	156	GapExp	0	245	2	3	1	target	1	450	775	188727	11.765	11.754	11.776
ProbeTrack12	2	ProbeTrack	11.3	WolfelabSpurzheim	20101013.152020	20101013.154548	8	0.011764	60	0	60-180	60	119	GapExp	0	246	2	0	1	target	1	437	782	189509	11.765	11.718	11.817
ProbeTrack12	2	ProbeTrack	11.3	WolfelabSpurzheim	20101013.152020	20101013.154554	8	0.011764	60	10	60-180	60	172	GapExp	0	247	2	45	0	distractor	1	532	734	190243	11.765	11.753	11.777
ProbeTrack12	2	ProbeTrack	11.3	WolfelabSpurzheim	20101013.152020	20101013.154601	8	0.011764	60	10	60-180	60	100	GapExp	0	248	2	0	0	distractor	1	872	564	190807	11.765	11.754	11.776
ProbeTrack12	2	ProbeTrack	11.3	WolfelabSpurzheim	20101013.152020	20101013.154608	8	0.011764	60	0	60-180	60	97	GapExp	0	249	2	45	1	target	1	508	746	191553	11.765	11.754	11.776
ProbeTrack12	2	ProbeTrack	11.3	WolfelabSpurzheim	20101013.152020	20101013.154615	8	0.011764	60	10	60-180	60	86	GapExp	0	250	2	45	0	distractor	1	508	746	192299	11.765	11.754	11.777
ProbeTrack12	2	ProbeTrack	11.3	WolfelabSpurzheim	20101013.154709	20101013.154721	8	0.011763	60	0	60-180	60	149	GapExp	1	1	2	1	0	distractor	1	508	746	193045	11.939	11.748	35.298
ProbeTrack12	2	ProbeTrack	11.3	WolfelabSpurzheim	20101013.154709	20101013.154730	8	0.011763	60	10	60-180	60	98	GapExp	1	2	2	0	0	target	0	602	-1000	192045	11.765	11.752	11.776
ProbeTrack12	2	ProbeTrack	11.3	WolfelabSpurzheim	20101013.154709	20101013.154739	8	0.011763	60	10	60-180	60	103	GapExp	1	3	2	3	1	target	1	461	770	192815	11.765	11.753	11.776
ProbeTrack12	2	ProbeTrack	11.3	WolfelabSpurzheim	20101013.154709	20101013.154745	8	0.011763	60	10	60-180	60	125	GapExp	1	4	2	3	0	distractor	1	473	764	193579	11.857	11.753	11.776
ProbeTrack12	2	ProbeTrack	11.3	WolfelabSpurzheim	20101013.154709	20101013.154752	8	0.011763	60	0	60-180	60	132	GapExp	1	5	2	3	1	target	1	402	799	194378	11.813	11.755	23.533
ProbeTrack12	2	ProbeTrack	11.3	WolfelabSpurzheim	20101013.154709	20101013.154758	8	0.011763	60	10	60-180	60	151	GapExp	1	6	2	1	1	target	1	356	822	195200	11.765	11.751	11.775
ProbeTrack12	2	ProbeTrack	11.3	WolfelabSpurzheim	20101013.154709	20101013.154804	8	0.011763	60	10	60-180	60	149	GapExp	1	7	2	1	0	target	0	426	-1000	194200	11.765	11.753	11.776
ProbeTrack12	2	ProbeTrack	11.3	WolfelabSpurzheim	20101013.154709	20101013.154810	8	0.011763	60	10	60-180	60	84	GapExp	1	8	2	45	1	target	1	367	817	195017	11.765	11.737	11.787
ProbeTrack12	2	ProbeTrack	11.3	WolfelabSpurzheim	20101013.154709	20101013.154816	8	0.011763	60	0	60-180	60	79	GapExp	1	9	2	0	0	distractor	1	638	681	195698	11.765	11.754	11.777
ProbeTrack12	2	ProbeTrack	11.3	WolfelabSpurzheim	20101013.154709	20101013.154822	8	0.011763	60	0	60-180	60	110	GapExp	1	10	2	45	1	target	1	308	846	196544	11.765	11.753	11.776
ProbeTrack12	2	ProbeTrack	11.3	WolfelabSpurzheim	20101013.154709	20101013.154830	8	0.011763	60	0	60-180	60	158	GapExp	0	11	2	0	0	distractor	1	391	805	197349	11.765	11.737	11.792
ProbeTrack12	2	ProbeTrack	11.3	WolfelabSpurzheim	20101013.154709	20101013.154836	8	0.011763	60	10	60-180	60	168	GapExp	0	12	2	45	0	distractor	1	497	752	198101	11.765	11.749	11.780
ProbeTrack12	2	ProbeTrack	11.3	WolfelabSpurzheim	20101013.154709	20101013.154843	8	0.011763	60	0	60-180	60	119	GapExp	0	13	2	1	0	distractor	1	555	723	198824	11.765	11.742	11.789
ProbeTrack12	2	ProbeTrack	11.3	WolfelabSpurzheim	20101013.154709	20101013.154850	8	0.011763	60	10	60-180	60	104	GapExp	0	14	2	45	0	distractor	1	426	787	199611	11.765	11.754	11.777
ProbeTrack12	2	ProbeTrack	11.3	WolfelabSpurzheim	20101013.154709	20101013.154856	8	0.011763	60	10	60-180	60	73	GapExp	0	15	2	1	1	target	1	367	817	200428	11.765	11.754	11.777
ProbeTrack12	2	ProbeTrack	11.3	WolfelabSpurzheim	20101013.154709	20101013.154901	8	0.011763	60	10	60-180	60	155	GapExp	0	16	2	0	1	target	1	637	682	201110	11.765	11.754	11.777
ProbeTrack12	2	ProbeTrack	11.3	WolfelabSpurzheim	20101013.154709	20101013.154908	8	0.011763	60	10	60-180	60	128	GapExp	0	17	2	1	1	target	1	520	740	201850	11.765	11.754	11.776
ProbeTrack12	2	ProbeTrack	11.3	WolfelabSpurzheim	20101013.154709	20101013.154914	8	0.011763	60	10	60-180	60	125	GapExp	0	18	2	0	0	distractor	1	461	770	202620	11.812	11.754	23.539
ProbeTrack12	2	ProbeTrack	11.3	WolfelabSpurzheim	20101013.154709	20101013.154919	8	0.011763	60	0	60-180	60	132	GapExp	0	19	2	0	0	distractor	1	543	729	203349	11.765	11.752	11.777
ProbeTrack12	2	ProbeTrack	11.3	WolfelabSpurzheim	20101013.154709	20101013.154925	8	0.011763	60	0	60-180	60	171	GapExp	0	20	2	3	1	target	1	391	805	204154	11.765	11.747	11.782
ProbeTrack12	2	ProbeTrack	11.3	WolfelabSpurzheim	20101013.154709	20101013.154931	8	0.011763	60	0	60-180	60	156	GapExp	0	21	2	45	0	distractor	1	555	723	204877	11.765	11.755	11.776
ProbeTrack12	2	ProbeTrack	11.3	WolfelabSpurzheim	20101013.154709	20101013.154939	8	0.011763	60	0	60-180	60	171	GapExp	0	22	2	3	1	target	1	449	776	205653	11.765	11.754	11.777
ProbeTrack12	2	ProbeTrack	11.3	WolfelabSpurzheim	20101013.154709	20101013.154946	8	0.011763	60	10	60-180	60	97	GapExp	0	23	2	1	1	target	1	461	770	206423	11.765	11.754	11.778
ProbeTrack12	2	ProbeTrack	11.3	WolfelabSpurzheim	20101013.154709	20101013.154952	8	0.011763	60	0	60-180	60	133	GapExp	0	24	2	3	1	target	1	449	776	207199	11.765	11.735	11.793
ProbeTrack12	2	ProbeTrack	11.3	WolfelabSpurzheim	20101013.154709	20101013.154958	8	0.011763	60	10	60-180	60	79	GapExp	0	25	2	1	1	target	1	438	781	207980	11.765	11.753	11.776
ProbeTrack12	2	ProbeTrack	11.3	WolfelabSpurzheim	20101013.154709	20101013.155003	8	0.011763	60	10	60-180	60	157	GapExp	0	26	2	3	0	distractor	1	790	605	208585	11.765	11.754	11.775
ProbeTrack12	2	ProbeTrack	11.3	WolfelabSpurzheim	20101013.154709	20101013.155010	8	0.011763	60	10	60-180	60	146	GapExp	0	27	2	1	1	target	1	379	811	209396	11.765	11.724	11.802
ProbeTrack12	2	ProbeTrack	11.3	WolfelabSpurzheim	20101013.154709	20101013.155017	8	0.011763	60	0	60-180	60	75	GapExp	0	28	2	45	0	distractor	1	579	711	210107	11.765	11.754	11.776
ProbeTrack12	2	ProbeTrack	11.3	WolfelabSpurzheim	20101013.154709	20101013.155024	8	0.011763	60	10	60-180	60	133	GapExp	0	29	2	1	1	target	1	449	776	210883	11.765	11.754	11.777
ProbeTrack12	2	ProbeTrack	11.3	WolfelabSpurzheim	20101013.154709	20101013.155030	8	0.011763	60	10	60-180	60	130	GapExp	0	30	2	0	1	target	1	438	781	211664	11.765	11.754	11.777
ProbeTrack12	2	ProbeTrack	11.3	WolfelabSpurzheim	20101013.154709	20101013.155037	8	0.011763	60	10	60-180	60	137	GapExp	0	31	2	3	0	distractor	1	708	646	212310	11.765	11.754	11.777
ProbeTrack12	2	ProbeTrack	11.3	WolfelabSpurzheim	20101013.154709	20101013.155044	8	0.011763	60	10	60-180	60	120	GapExp	0	32	2	45	1	target	1	461	770	213080	11.765	11.750	11.776
ProbeTrack12	2	ProbeTrack	11.3	WolfelabSpurzheim	20101013.154709	20101013.155051	8	0.011763	60	10	60-180	60	156	GapExp	0	33	2	0	1	distractor	0	837	-1000	212080	11.765	11.754	11.777
ProbeTrack12	2	ProbeTrack	11.3	WolfelabSpurzheim	20101013.154709	20101013.155057	8	0.011763	60	0	60-180	60	62	GapExp	0	34	2	0	1	target	1	496	752	212832	11.765	11.739	11.794
ProbeTrack12	2	ProbeTrack	11.3	WolfelabSpurzheim	20101013.154709	20101013.155102	8	0.011763	60	10	60-180	60	140	GapExp	0	35	2	45	0	distractor	1	567	717	213549	11.765	11.753	11.776
ProbeTrack12	2	ProbeTrack	11.3	WolfelabSpurzheim	20101013.154709	20101013.155109	8	0.011763	60	0	60-180	60	136	GapExp	0	36	2	0	0	distractor	1	626	687	214236	11.765	11.754	11.776
ProbeTrack12	2	ProbeTrack	11.3	WolfelabSpurzheim	20101013.154709	20101013.155115	8	0.011763	60	10	60-180	60	145	GapExp	0	37	2	0	0	distractor	1	555	723	214959	11.765	11.719	11.815
ProbeTrack12	2	ProbeTrack	11.3	WolfelabSpurzheim	20101013.154709	20101013.155121	8	0.011763	60	0	60-180	60	136	GapExp	0	38	2	45	1	target	1	520	740	215699	11.765	11.753	11.777
ProbeTrack12	2	ProbeTrack	11.3	WolfelabSpurzheim	20101013.154709	20101013.155129	8	0.011763	60	10	60-180	60	69	GapExp	0	39	2	45	0	distractor	1	555	723	216422	11.765	11.704	11.821
ProbeTrack12	2	ProbeTrack	11.3	WolfelabSpurzheim	20101013.154709	20101013.155134	8	0.011763	60	0	60-180	60	108	GapExp	0	40	2	3	1	target	1	438	781	217203	11.765	11.726	11.809
ProbeTrack12	2	ProbeTrack	11.3	WolfelabSpurzheim	20101013.154709	20101013.155140	8	0.011763	60	0	60-180	60	138	GapExp	0	41	2	3	0	distractor	1	673	664	217867	11.765	11.754	11.776
ProbeTrack12	2	ProbeTrack	11.3	WolfelabSpurzheim	20101013.154709	20101013.155147	8	0.011763	60	0	60-180	60	107	GapExp	0	42	2	1	1	target	1	520	740	218607	11.765	11.754	11.775
ProbeTrack12	2	ProbeTrack	11.3	WolfelabSpurzheim	20101013.154709	20101013.155152	8	0.011763	60	10	60-180	60	166	GapExp	0	43	2	1	0	distractor	1	450	775	219382	11.765	11.726	11.802
ProbeTrack12	2	ProbeTrack	11.3	WolfelabSpurzheim	20101013.154709	20101013.155159	8	0.011763	60	10	60-180	60	144	GapExp	0	44	2	0	1	target	1	496	752	220134	11.765	11.755	11.777
ProbeTrack12	2	ProbeTrack	11.3	WolfelabSpurzheim	20101013.154709	20101013.155205	8	0.011763	60	10	60-180	60	112	GapExp	0	45	2	0	1	target	1	391	805	220939	11.765	11.755	11.775
ProbeTrack12	2	ProbeTrack	11.3	WolfelabSpurzheim	20101013.154709	20101013.155211	8	0.011763	60	10	60-180	60	140	GapExp	0	46	2	0	0	distractor	1	649	676	221615	11.765	11.696	11.831
ProbeTrack12	2	ProbeTrack	11.3	WolfelabSpurzheim	20101013.154709	20101013.155217	8	0.011763	60	10	60-180	60	169	GapExp	0	47	2	3	0	distractor	1	532	734	222349	11.765	11.754	11.776
ProbeTrack12	2	ProbeTrack	11.3	WolfelabSpurzheim	20101013.154709	20101013.155224	8	0.011763	60	0	60-180	60	82	GapExp	0	48	2	1	0	distractor	1	556	722	223071	11.765	11.753	11.775
ProbeTrack12	2	ProbeTrack	11.3	WolfelabSpurzheim	20101013.154709	20101013.155229	8	0.011763	60	10	60-180	60	109	GapExp	0	49	2	45	1	target	1	379	811	223882	11.765	11.753	11.777
ProbeTrack12	2	ProbeTrack	11.3	WolfelabSpurzheim	20101013.154709	20101013.155235	8	0.011763	60	0	60-180	60	108	GapExp	0	50	2	1	1	target	1	532	734	224616	11.765	11.755	11.777
ProbeTrack12	2	ProbeTrack	11.3	WolfelabSpurzheim	20101013.154709	20101013.155241	8	0.011763	60	0	60-180	60	160	GapExp	0	51	2	0	0	target	0	508	-1000	223616	11.765	11.754	11.776
ProbeTrack12	2	ProbeTrack	11.3	WolfelabSpurzheim	20101013.154709	20101013.155247	8	0.011763	60	10	60-180	60	162	GapExp	0	52	2	1	1	target	1	414	793	224409	11.765	11.754	11.777
ProbeTrack12	2	ProbeTrack	11.3	WolfelabSpurzheim	20101013.154709	20101013.155253	8	0.011763	60	10	60-180	60	102	GapExp	0	53	2	1	1	target	1	426	787	225196	11.765	11.754	11.776
ProbeTrack12	2	ProbeTrack	11.3	WolfelabSpurzheim	20101013.154709	20101013.155259	8	0.011763	60	10	60-180	60	97	GapExp	0	54	2	3	1	target	1	438	781	225977	11.765	11.754	11.775
ProbeTrack12	2	ProbeTrack	11.3	WolfelabSpurzheim	20101013.154709	20101013.155305	8	0.011763	60	0	60-180	60	103	GapExp	0	55	2	45	0	distractor	1	579	711	226688	11.765	11.754	11.776
ProbeTrack12	2	ProbeTrack	11.3	WolfelabSpurzheim	20101013.154709	20101013.155311	8	0.011763	60	10	60-180	60	148	GapExp	0	56	2	45	0	distractor	1	543	729	227417	11.765	11.754	11.776
ProbeTrack12	2	ProbeTrack	11.3	WolfelabSpurzheim	20101013.154709	20101013.155318	8	0.011763	60	0	60-180	60	116	GapExp	0	57	2	45	0	distractor	1	649	676	228093	11.765	11.753	11.776
ProbeTrack12	2	ProbeTrack	11.3	WolfelabSpurzheim	20101013.154709	20101013.155324	8	0.011763	60	10	60-180	60	178	GapExp	0	58	2	1	1	target	1	626	687	228780	11.765	11.753	11.777
ProbeTrack12	2	ProbeTrack	11.3	WolfelabSpurzheim	20101013.154709	20101013.155331	8	0.011763	60	10	60-180	60	176	GapExp	0	59	2	0	0	distractor	1	637	682	229462	11.765	11.754	11.776
ProbeTrack12	2	ProbeTrack	11.3	WolfelabSpurzheim	20101013.154709	20101013.155338	8	0.011763	60	0	60-180	60	70	GapExp	0	60	2	1	1	target	1	461	770	230232	11.765	11.755	11.776
ProbeTrack12	2	ProbeTrack	11.3	WolfelabSpurzheim	20101013.154709	20101013.155343	8	0.011763	60	0	60-180	60	118	GapExp	0	61	2	45	1	target	1	438	781	231013	11.765	11.754	11.776
ProbeTrack12	2	ProbeTrack	11.3	WolfelabSpurzheim	20101013.154709	20101013.155349	8	0.011763	60	0	60-180	60	88	GapExp	0	62	2	45	0	distractor	1	672	664	231677	11.765	11.753	11.777
ProbeTrack12	2	ProbeTrack	11.3	WolfelabSpurzheim	20101013.154709	20101013.155355	8	0.011763	60	0	60-180	60	74	GapExp	0	63	2	3	1	target	1	590	705	232382	11.765	11.753	11.776
ProbeTrack12	2	ProbeTrack	11.3	WolfelabSpurzheim	20101013.154709	20101013.155401	8	0.011763	60	10	60-180	60	174	GapExp	0	64	2	45	1	distractor	0	532	-1000	231382	11.765	11.754	11.776
ProbeTrack12	2	ProbeTrack	11.3	WolfelabSpurzheim	20101013.154709	20101013.155408	8	0.011763	60	10	60-180	60	87	GapExp	0	65	2	3	0	distractor	1	649	676	232058	11.765	11.753	11.778
ProbeTrack12	2	ProbeTrack	11.3	WolfelabSpurzheim	20101013.154709	20101013.155413	8	0.011763	60	10	60-180	60	115	GapExp	0	66	2	45	1	target	1	579	711	232769	11.765	11.753	11.777
ProbeTrack12	2	ProbeTrack	11.3	WolfelabSpurzheim	20101013.154709	20101013.155420	8	0.011763	60	0	60-180	60	135	GapExp	0	67	2	3	0	distractor	1	626	687	233456	11.765	11.754	11.775
ProbeTrack12	2	ProbeTrack	11.3	WolfelabSpurzheim	20101013.154709	20101013.155427	8	0.011763	60	10	60-180	60	101	GapExp	0	68	2	45	1	target	1	402	799	234255	11.765	11.742	11.791
ProbeTrack12	2	ProbeTrack	11.3	WolfelabSpurzheim	20101013.154709	20101013.155433	8	0.011763	60	0	60-180	60	146	GapExp	0	69	2	3	0	distractor	1	532	734	234989	11.765	11.741	11.791
ProbeTrack12	2	ProbeTrack	11.3	WolfelabSpurzheim	20101013.154709	20101013.155439	8	0.011763	60	0	60-180	60	131	GapExp	0	70	2	3	0	distractor	1	591	705	235694	11.765	11.753	11.776
ProbeTrack12	2	ProbeTrack	11.3	WolfelabSpurzheim	20101013.154709	20101013.155445	8	0.011763	60	0	60-180	60	180	GapExp	0	71	2	45	1	target	1	473	764	236458	11.765	11.744	11.785
ProbeTrack12	2	ProbeTrack	11.3	WolfelabSpurzheim	20101013.154709	20101013.155452	8	0.011763	60	10	60-180	60	169	GapExp	0	72	2	0	1	target	1	450	775	237233	11.765	11.753	11.776
ProbeTrack12	2	ProbeTrack	11.3	WolfelabSpurzheim	20101013.154709	20101013.155458	8	0.011763	60	0	60-180	60	104	GapExp	0	73	2	0	1	target	1	390	805	238038	11.765	11.754	11.776
ProbeTrack12	2	ProbeTrack	11.3	WolfelabSpurzheim	20101013.154709	20101013.155504	8	0.011763	60	10	60-180	60	110	GapExp	0	74	2	1	0	distractor	1	614	693	238731	11.765	11.755	11.776
ProbeTrack12	2	ProbeTrack	11.3	WolfelabSpurzheim	20101013.154709	20101013.155510	8	0.011763	60	0	60-180	60	84	GapExp	0	75	2	1	1	target	1	449	776	239507	11.765	11.755	11.776
ProbeTrack12	2	ProbeTrack	11.3	WolfelabSpurzheim	20101013.154709	20101013.155515	8	0.011763	60	0	60-180	60	165	GapExp	0	76	2	1	1	target	1	344	828	240335	11.765	11.727	11.803
ProbeTrack12	2	ProbeTrack	11.3	WolfelabSpurzheim	20101013.154709	20101013.155521	8	0.011763	60	10	60-180	60	126	GapExp	0	77	2	0	1	target	1	367	817	241152	11.765	11.754	11.778
ProbeTrack12	2	ProbeTrack	11.3	WolfelabSpurzheim	20101013.154709	20101013.155526	8	0.011763	60	10	60-180	60	174	GapExp	0	78	2	45	0	target	0	579	-1000	240152	11.765	11.753	11.777
ProbeTrack12	2	ProbeTrack	11.3	WolfelabSpurzheim	20101013.154709	20101013.155534	8	0.011763	60	0	60-180	60	144	GapExp	0	79	2	3	0	distractor	1	719	641	240793	11.765	11.754	11.776
ProbeTrack12	2	ProbeTrack	11.3	WolfelabSpurzheim	20101013.154709	20101013.155541	8	0.011763	60	0	60-180	60	137	GapExp	0	80	2	0	1	target	1	473	764	241557	11.765	11.754	11.776
ProbeTrack12	2	ProbeTrack	11.3	WolfelabSpurzheim	20101013.154709	20101013.155546	8	0.011763	60	0	60-180	60	159	GapExp	0	81	2	1	0	distractor	1	497	752	242309	11.765	11.747	11.790
ProbeTrack12	2	ProbeTrack	11.3	WolfelabSpurzheim	20101013.154709	20101013.155552	8	0.011763	60	10	60-180	60	150	GapExp	0	82	2	45	0	distractor	1	579	711	243020	11.765	11.754	11.777
ProbeTrack12	2	ProbeTrack	11.3	WolfelabSpurzheim	20101013.154709	20101013.155559	8	0.011763	60	0	60-180	60	164	GapExp	0	83	2	3	1	target	1	390	805	243825	11.765	11.754	11.778
ProbeTrack12	2	ProbeTrack	11.3	WolfelabSpurzheim	20101013.154709	20101013.155605	8	0.011763	60	0	60-180	60	82	GapExp	0	84	2	0	0	distractor	1	544	728	244553	11.765	11.728	11.808
ProbeTrack12	2	ProbeTrack	11.3	WolfelabSpurzheim	20101013.154709	20101013.155611	8	0.011763	60	0	60-180	60	98	GapExp	0	85	2	45	1	target	1	473	764	245317	11.765	11.752	11.776
ProbeTrack12	2	ProbeTrack	11.3	WolfelabSpurzheim	20101013.154709	20101013.155617	8	0.011763	60	0	60-180	60	161	GapExp	0	86	2	1	0	distractor	1	555	723	246040	11.765	11.753	11.775
ProbeTrack12	2	ProbeTrack	11.3	WolfelabSpurzheim	20101013.154709	20101013.155623	8	0.011763	60	10	60-180	60	96	GapExp	0	87	2	1	0	distractor	1	474	763	246803	11.765	11.749	11.783
ProbeTrack12	2	ProbeTrack	11.3	WolfelabSpurzheim	20101013.154709	20101013.155628	8	0.011763	60	0	60-180	60	105	GapExp	0	88	2	45	0	distractor	1	414	793	247596	11.765	11.754	11.776
ProbeTrack12	2	ProbeTrack	11.3	WolfelabSpurzheim	20101013.154709	20101013.155636	8	0.011763	60	0	60-180	60	99	GapExp	0	89	2	45	0	distractor	1	532	734	248330	11.765	11.754	11.777
ProbeTrack12	2	ProbeTrack	11.3	WolfelabSpurzheim	20101013.154709	20101013.155641	8	0.011763	60	0	60-180	60	146	GapExp	0	90	2	3	0	distractor	1	485	758	249088	11.765	11.754	11.776
ProbeTrack12	2	ProbeTrack	11.3	WolfelabSpurzheim	20101013.154709	20101013.155647	8	0.011763	60	0	60-180	60	155	GapExp	0	91	2	0	0	distractor	1	473	764	249852	11.765	11.668	11.872
ProbeTrack12	2	ProbeTrack	11.3	WolfelabSpurzheim	20101013.154709	20101013.155653	8	0.011763	60	10	60-180	60	174	GapExp	0	92	2	0	0	distractor	1	426	787	250639	11.765	11.754	11.777
ProbeTrack12	2	ProbeTrack	11.3	WolfelabSpurzheim	20101013.154709	20101013.155659	8	0.011763	60	0	60-180	60	126	GapExp	0	93	2	45	0	distractor	1	555	723	251362	11.765	11.731	11.797
ProbeTrack12	2	ProbeTrack	11.3	WolfelabSpurzheim	20101013.154709	20101013.155705	8	0.011763	60	10	60-180	60	97	GapExp	0	94	2	1	0	distractor	1	556	722	252084	11.765	11.753	11.776
ProbeTrack12	2	ProbeTrack	11.3	WolfelabSpurzheim	20101013.154709	20101013.155711	8	0.011763	60	10	60-180	60	118	GapExp	0	95	2	3	0	distractor	1	590	705	252789	11.765	11.755	11.777
ProbeTrack12	2	ProbeTrack	11.3	WolfelabSpurzheim	20101013.154709	20101013.155717	8	0.011763	60	10	60-180	60	100	GapExp	0	96	2	3	0	distractor	1	544	728	253517	11.765	11.755	11.776
ProbeTrack12	2	ProbeTrack	11.3	WolfelabSpurzheim	20101013.154709	20101013.155722	8	0.011763	60	10	60-180	60	76	GapExp	0	97	2	3	1	target	1	579	711	254228	11.765	11.755	11.776
ProbeTrack12	2	ProbeTrack	11.3	WolfelabSpurzheim	20101013.154709	20101013.155727	8	0.011763	60	10	60-180	60	78	GapExp	0	98	2	0	1	target	1	649	676	254904	11.765	11.755	11.776
ProbeTrack12	2	ProbeTrack	11.3	WolfelabSpurzheim	20101013.154709	20101013.155733	8	0.011763	60	0	60-180	60	102	GapExp	0	99	2	3	0	distractor	1	626	687	255591	11.765	11.752	11.777
ProbeTrack12	2	ProbeTrack	11.3	WolfelabSpurzheim	20101013.154709	20101013.155738	8	0.011763	60	10	60-180	60	143	GapExp	0	100	2	3	0	distractor	1	520	740	256331	11.765	11.753	11.776
ProbeTrack12	2	ProbeTrack	11.3	WolfelabSpurzheim	20101013.154709	20101013.155745	8	0.011763	60	10	60-180	60	103	GapExp	0	101	2	0	0	target	0	567	-1000	255331	11.765	11.754	11.776
ProbeTrack12	2	ProbeTrack	11.3	WolfelabSpurzheim	20101013.154709	20101013.155751	8	0.011763	60	10	60-180	60	180	GapExp	0	102	2	3	1	target	1	402	799	256130	11.765	11.750	11.784
ProbeTrack12	2	ProbeTrack	11.3	WolfelabSpurzheim	20101013.154709	20101013.155758	8	0.011763	60	10	60-180	60	117	GapExp	0	103	2	45	1	target	1	391	805	256935	11.765	11.754	11.776
ProbeTrack12	2	ProbeTrack	11.3	WolfelabSpurzheim	20101013.154709	20101013.155804	8	0.011763	60	0	60-180	60	122	GapExp	0	104	2	1	0	distractor	1	661	670	257605	11.765	11.754	11.777
ProbeTrack12	2	ProbeTrack	11.3	WolfelabSpurzheim	20101013.154709	20101013.155811	8	0.011763	60	0	60-180	60	62	GapExp	0	105	2	1	1	target	1	508	746	258351	11.765	11.753	11.777
ProbeTrack12	2	ProbeTrack	11.3	WolfelabSpurzheim	20101013.154709	20101013.155816	8	0.011763	60	10	60-180	60	156	GapExp	0	106	2	3	1	target	1	355	823	259174	11.765	11.754	11.777
ProbeTrack12	2	ProbeTrack	11.3	WolfelabSpurzheim	20101013.154709	20101013.155822	8	0.011763	60	10	60-180	60	122	GapExp	0	107	2	45	0	distractor	1	532	734	259908	11.765	11.754	11.776
ProbeTrack12	2	ProbeTrack	11.3	WolfelabSpurzheim	20101013.154709	20101013.155829	8	0.011763	60	10	60-180	60	110	GapExp	0	108	2	3	1	target	1	426	787	260695	11.765	11.754	11.779
ProbeTrack12	2	ProbeTrack	11.3	WolfelabSpurzheim	20101013.154709	20101013.155834	8	0.011763	60	10	60-180	60	163	GapExp	0	109	2	1	0	distractor	1	685	658	261353	11.765	11.754	11.777
ProbeTrack12	2	ProbeTrack	11.3	WolfelabSpurzheim	20101013.154709	20101013.155841	8	0.011763	60	10	60-180	60	169	GapExp	0	110	2	0	0	distractor	1	943	529	261882	11.765	11.752	11.775
ProbeTrack12	2	ProbeTrack	11.3	WolfelabSpurzheim	20101013.154709	20101013.155848	8	0.011763	60	10	60-180	60	66	GapExp	0	111	2	3	0	distractor	1	696	652	262534	11.765	11.753	11.777
ProbeTrack12	2	ProbeTrack	11.3	WolfelabSpurzheim	20101013.154709	20101013.155853	8	0.011763	60	10	60-180	60	96	GapExp	0	112	2	0	0	target	0	767	-1000	261534	11.765	11.753	11.776
ProbeTrack12	2	ProbeTrack	11.3	WolfelabSpurzheim	20101013.154709	20101013.155859	8	0.011763	60	0	60-180	60	128	GapExp	0	113	2	1	0	distractor	1	473	764	262298	11.765	11.738	11.787
ProbeTrack12	2	ProbeTrack	11.3	WolfelabSpurzheim	20101013.154709	20101013.155905	8	0.011763	60	10	60-180	60	175	GapExp	0	114	2	1	0	distractor	1	767	617	262915	11.765	11.754	11.775
ProbeTrack12	2	ProbeTrack	11.3	WolfelabSpurzheim	20101013.154709	20101013.155911	8	0.011763	60	0	60-180	60	139	GapExp	0	115	2	45	1	distractor	0	367	-1000	261915	11.765	11.754	11.776
ProbeTrack12	2	ProbeTrack	11.3	WolfelabSpurzheim	20101013.154709	20101013.155918	8	0.011763	60	0	60-180	60	157	GapExp	0	116	2	1	1	target	1	403	799	262714	11.765	11.718	11.810
ProbeTrack12	2	ProbeTrack	11.3	WolfelabSpurzheim	20101013.154709	20101013.155924	8	0.011763	60	0	60-180	60	143	GapExp	0	117	2	0	1	target	1	402	799	263513	11.765	11.754	11.776
ProbeTrack12	2	ProbeTrack	11.3	WolfelabSpurzheim	20101013.154709	20101013.155929	8	0.011763	60	0	60-180	60	148	GapExp	0	118	2	0	0	distractor	1	437	782	264295	11.765	11.755	11.775
ProbeTrack12	2	ProbeTrack	11.3	WolfelabSpurzheim	20101013.154709	20101013.155935	8	0.011763	60	10	60-180	60	158	GapExp	0	119	2	1	0	target	0	438	-1000	263295	11.765	11.754	11.776
ProbeTrack12	2	ProbeTrack	11.3	WolfelabSpurzheim	20101013.154709	20101013.155941	8	0.011763	60	10	60-180	60	119	GapExp	0	120	2	3	1	target	1	426	787	264082	11.765	11.754	11.776
ProbeTrack12	2	ProbeTrack	11.3	WolfelabSpurzheim	20101013.154709	20101013.155948	8	0.011763	60	0	60-180	60	169	GapExp	0	121	2	0	1	target	1	402	799	264881	11.765	11.746	11.789
ProbeTrack12	2	ProbeTrack	11.3	WolfelabSpurzheim	20101013.154709	20101013.155954	8	0.011763	60	10	60-180	60	111	GapExp	0	122	2	1	0	distractor	1	449	776	265657	11.765	11.753	11.777
ProbeTrack12	2	ProbeTrack	11.3	WolfelabSpurzheim	20101013.154709	20101013.155959	8	0.011763	60	10	60-180	60	176	GapExp	0	123	2	45	0	distractor	1	532	734	266391	11.765	11.751	11.777
ProbeTrack12	2	ProbeTrack	11.3	WolfelabSpurzheim	20101013.154709	20101013.160007	8	0.011763	60	0	60-180	60	162	GapExp	0	124	2	3	1	target	1	543	729	267120	11.765	11.754	11.777
ProbeTrack12	2	ProbeTrack	11.3	WolfelabSpurzheim	20101013.154709	20101013.160013	8	0.011763	60	0	60-180	60	74	GapExp	0	125	2	3	0	distractor	1	708	646	267766	11.765	11.755	11.775
ProbeTrack12	2	ProbeTrack	11.3	WolfelabSpurzheim	20101013.154709	20101013.160019	8	0.011763	60	10	60-180	60	64	GapExp	0	126	2	3	1	target	1	461	770	268536	11.765	11.754	11.776
ProbeTrack12	2	ProbeTrack	11.3	WolfelabSpurzheim	20101013.154709	20101013.160026	8	0.011763	60	10	60-180	60	79	GapExp	0	127	2	1	1	target	1	461	770	269306	11.765	11.754	11.776
ProbeTrack12	2	ProbeTrack	11.3	WolfelabSpurzheim	20101013.154709	20101013.160033	8	0.011763	60	0	60-180	60	66	GapExp	0	128	2	3	1	target	1	532	734	270040	11.765	11.752	11.776
ProbeTrack12	2	ProbeTrack	11.3	WolfelabSpurzheim	20101013.154709	20101013.160038	8	0.011763	60	10	60-180	60	172	GapExp	0	129	2	1	1	target	1	461	770	270810	11.765	11.753	11.777
ProbeTrack12	2	ProbeTrack	11.3	WolfelabSpurzheim	20101013.154709	20101013.160045	8	0.011763	60	0	60-180	60	167	GapExp	0	130	2	0	1	target	1	473	764	271574	11.765	11.753	11.776
ProbeTrack12	2	ProbeTrack	11.3	WolfelabSpurzheim	20101013.154709	20101013.160052	8	0.011763	60	10	60-180	60	176	GapExp	0	131	2	45	0	distractor	1	602	699	272273	11.765	11.754	11.776
ProbeTrack12	2	ProbeTrack	11.3	WolfelabSpurzheim	20101013.154709	20101013.160059	8	0.011763	60	10	60-180	60	148	GapExp	0	132	2	45	1	target	1	508	746	273019	11.765	11.740	11.785
ProbeTrack12	2	ProbeTrack	11.3	WolfelabSpurzheim	20101013.154709	20101013.160108	8	0.011763	60	10	60-180	60	94	GapExp	0	133	2	0	0	target	0	673	-1000	272019	11.765	11.754	11.777
ProbeTrack12	2	ProbeTrack	11.3	WolfelabSpurzheim	20101013.154709	20101013.160114	8	0.011763	60	10	60-180	60	147	GapExp	0	134	2	0	0	target	0	661	-1000	271019	11.765	11.735	11.794
ProbeTrack12	2	ProbeTrack	11.3	WolfelabSpurzheim	20101013.154709	20101013.160121	8	0.011763	60	0	60-180	60	82	GapExp	0	135	2	45	1	target	1	485	758	271777	11.765	11.754	11.776
ProbeTrack12	2	ProbeTrack	11.3	WolfelabSpurzheim	20101013.154709	20101013.160127	8	0.011763	60	0	60-180	60	159	GapExp	0	136	2	1	1	target	1	449	776	272553	11.765	11.753	11.775
ProbeTrack12	2	ProbeTrack	11.3	WolfelabSpurzheim	20101013.154709	20101013.160133	8	0.011763	60	10	60-180	60	88	GapExp	0	137	2	0	0	distractor	1	1108	446	272999	11.765	11.754	11.775
ProbeTrack12	2	ProbeTrack	11.3	WolfelabSpurzheim	20101013.154709	20101013.160141	8	0.011763	60	0	60-180	60	176	GapExp	0	138	2	1	0	distractor	1	543	729	273728	11.765	11.753	11.776
ProbeTrack12	2	ProbeTrack	11.3	WolfelabSpurzheim	20101013.154709	20101013.160147	8	0.011763	60	0	60-180	60	119	GapExp	0	139	2	0	0	distractor	1	579	711	274439	11.765	11.754	11.776
ProbeTrack12	2	ProbeTrack	11.3	WolfelabSpurzheim	20101013.154709	20101013.160153	8	0.011763	60	10	60-180	60	121	GapExp	0	140	2	45	0	distractor	1	649	676	275115	11.765	11.754	11.777
ProbeTrack12	2	ProbeTrack	11.3	WolfelabSpurzheim	20101013.154709	20101013.160159	8	0.011763	60	10	60-180	60	138	GapExp	0	141	2	0	0	target	0	708	-1000	274115	11.765	11.754	11.777
ProbeTrack12	2	ProbeTrack	11.3	WolfelabSpurzheim	20101013.154709	20101013.160205	8	0.011763	60	0	60-180	60	74	GapExp	0	142	2	0	1	target	1	567	717	274832	11.765	11.753	11.776
ProbeTrack12	2	ProbeTrack	11.3	WolfelabSpurzheim	20101013.154709	20101013.160211	8	0.011763	60	0	60-180	60	174	GapExp	0	143	2	3	1	target	1	449	776	275608	11.765	11.754	11.777
ProbeTrack12	2	ProbeTrack	11.3	WolfelabSpurzheim	20101013.154709	20101013.160218	8	0.011763	60	0	60-180	60	74	GapExp	0	144	2	0	0	distractor	1	673	664	276272	11.765	11.753	11.778
ProbeTrack12	2	ProbeTrack	11.3	WolfelabSpurzheim	20101013.154709	20101013.160224	8	0.011763	60	0	60-180	60	147	GapExp	0	145	2	45	0	distractor	1	567	717	276989	11.765	11.754	11.777
ProbeTrack12	2	ProbeTrack	11.3	WolfelabSpurzheim	20101013.154709	20101013.160231	8	0.011763	60	10	60-180	60	100	GapExp	0	146	2	3	0	distractor	1	614	693	277682	11.765	11.753	11.778
ProbeTrack12	2	ProbeTrack	11.3	WolfelabSpurzheim	20101013.154709	20101013.160237	8	0.011763	60	0	60-180	60	88	GapExp	0	147	2	0	0	distractor	1	520	740	278422	11.765	11.754	11.776
ProbeTrack12	2	ProbeTrack	11.3	WolfelabSpurzheim	20101013.154709	20101013.160243	8	0.011763	60	0	60-180	60	64	GapExp	0	148	2	1	1	target	1	567	717	279139	11.765	11.753	11.777
ProbeTrack12	2	ProbeTrack	11.3	WolfelabSpurzheim	20101013.154709	20101013.160249	8	0.011763	60	10	60-180	60	180	GapExp	0	149	2	3	1	target	1	379	811	279950	11.765	11.755	11.776
ProbeTrack12	2	ProbeTrack	11.3	WolfelabSpurzheim	20101013.154709	20101013.160256	8	0.011763	60	10	60-180	60	88	GapExp	0	150	2	45	1	target	1	508	746	280696	11.765	11.754	11.776
ProbeTrack12	2	ProbeTrack	11.3	WolfelabSpurzheim	20101013.154709	20101013.160303	8	0.011763	60	10	60-180	60	85	GapExp	0	151	2	0	1	target	1	696	652	281348	11.765	11.754	11.776
ProbeTrack12	2	ProbeTrack	11.3	WolfelabSpurzheim	20101013.154709	20101013.160311	8	0.011763	60	0	60-180	60	64	GapExp	0	152	2	3	0	distractor	1	555	723	282071	11.765	11.754	11.782
ProbeTrack12	2	ProbeTrack	11.3	WolfelabSpurzheim	20101013.154709	20101013.160316	8	0.011763	60	0	60-180	60	101	GapExp	0	153	2	0	1	target	1	344	828	282899	11.765	11.754	11.776
ProbeTrack12	2	ProbeTrack	11.3	WolfelabSpurzheim	20101013.154709	20101013.160322	8	0.011763	60	0	60-180	60	177	GapExp	0	154	2	45	0	distractor	1	544	728	283627	11.765	11.754	11.777
ProbeTrack12	2	ProbeTrack	11.3	WolfelabSpurzheim	20101013.154709	20101013.160329	8	0.011763	60	10	60-180	60	85	GapExp	0	155	2	0	0	distractor	1	626	687	284314	11.765	11.753	11.777
ProbeTrack12	2	ProbeTrack	11.3	WolfelabSpurzheim	20101013.154709	20101013.160335	8	0.011763	60	0	60-180	60	173	GapExp	0	156	2	0	1	target	1	567	717	285031	11.765	11.749	11.784
ProbeTrack12	2	ProbeTrack	11.3	WolfelabSpurzheim	20101013.154709	20101013.160342	8	0.011763	60	0	60-180	60	98	GapExp	0	157	2	1	1	target	1	473	764	285795	11.765	11.755	11.777
ProbeTrack12	2	ProbeTrack	11.3	WolfelabSpurzheim	20101013.154709	20101013.160349	8	0.011763	60	0	60-180	60	76	GapExp	0	158	2	1	0	distractor	1	567	717	286512	11.765	11.755	11.776
ProbeTrack12	2	ProbeTrack	11.3	WolfelabSpurzheim	20101013.154709	20101013.160355	8	0.011763	60	10	60-180	60	108	GapExp	0	159	2	0	1	target	1	379	811	287323	11.765	11.754	11.776
ProbeTrack12	2	ProbeTrack	11.3	WolfelabSpurzheim	20101013.154709	20101013.160400	8	0.011763	60	10	60-180	60	83	GapExp	0	160	2	0	1	target	1	355	823	288146	11.765	11.752	11.776
ProbeTrack12	2	ProbeTrack	11.3	WolfelabSpurzheim	20101013.154709	20101013.160406	8	0.011763	60	0	60-180	60	91	GapExp	0	161	2	3	0	distractor	1	543	729	288875	11.765	11.754	11.777
ProbeTrack12	2	ProbeTrack	11.3	WolfelabSpurzheim	20101013.154709	20101013.160411	8	0.011763	60	0	60-180	60	144	GapExp	0	162	2	1	1	target	1	391	805	289680	11.765	11.755	11.777
ProbeTrack12	2	ProbeTrack	11.3	WolfelabSpurzheim	20101013.154709	20101013.160417	8	0.011763	60	0	60-180	60	94	GapExp	0	163	2	45	1	target	1	379	811	290491	11.765	11.754	11.776
ProbeTrack12	2	ProbeTrack	11.3	WolfelabSpurzheim	20101013.154709	20101013.160423	8	0.011763	60	10	60-180	60	112	GapExp	0	164	2	3	1	target	1	367	817	291308	11.765	11.725	11.805
ProbeTrack12	2	ProbeTrack	11.3	WolfelabSpurzheim	20101013.154709	20101013.160428	8	0.011763	60	10	60-180	60	152	GapExp	0	165	2	3	0	distractor	1	426	787	292095	11.765	11.753	11.776
ProbeTrack12	2	ProbeTrack	11.3	WolfelabSpurzheim	20101013.154709	20101013.160434	8	0.011763	60	0	60-180	60	119	GapExp	0	166	2	0	1	target	1	343	829	292924	11.765	11.733	11.796
ProbeTrack12	2	ProbeTrack	11.3	WolfelabSpurzheim	20101013.154709	20101013.160440	8	0.011763	60	10	60-180	60	145	GapExp	0	167	2	3	1	target	1	414	793	293717	11.765	11.754	11.775
ProbeTrack12	2	ProbeTrack	11.3	WolfelabSpurzheim	20101013.154709	20101013.160446	8	0.011763	60	10	60-180	60	103	GapExp	0	168	2	1	0	distractor	1	532	734	294451	11.765	11.755	11.776
ProbeTrack12	2	ProbeTrack	11.3	WolfelabSpurzheim	20101013.154709	20101013.160451	8	0.011763	60	10	60-180	60	75	GapExp	0	169	2	3	0	distractor	1	731	635	295086	11.765	11.719	11.813
ProbeTrack12	2	ProbeTrack	11.3	WolfelabSpurzheim	20101013.154709	20101013.160457	8	0.011763	60	0	60-180	60	167	GapExp	0	170	2	0	1	target	1	484	758	295844	11.765	11.755	11.776
ProbeTrack12	2	ProbeTrack	11.3	WolfelabSpurzheim	20101013.154709	20101013.160503	8	0.011763	60	0	60-180	60	83	GapExp	0	171	2	1	0	distractor	1	567	717	296561	11.765	11.754	11.776
ProbeTrack12	2	ProbeTrack	11.3	WolfelabSpurzheim	20101013.154709	20101013.160508	8	0.011763	60	0	60-180	60	97	GapExp	0	172	2	0	1	target	1	579	711	297272	11.765	11.753	11.777
ProbeTrack12	2	ProbeTrack	11.3	WolfelabSpurzheim	20101013.154709	20101013.160513	8	0.011763	60	0	60-180	60	89	GapExp	0	173	2	3	1	target	1	449	776	298048	11.765	11.753	11.775
ProbeTrack12	2	ProbeTrack	11.3	WolfelabSpurzheim	20101013.154709	20101013.160519	8	0.011763	60	10	60-180	60	78	GapExp	0	174	2	45	1	target	1	379	811	298859	11.765	11.753	11.776
ProbeTrack12	2	ProbeTrack	11.3	WolfelabSpurzheim	20101013.154709	20101013.160525	8	0.011763	60	0	60-180	60	145	GapExp	0	175	2	3	0	distractor	1	590	705	299564	11.765	11.753	11.776
ProbeTrack12	2	ProbeTrack	11.3	WolfelabSpurzheim	20101013.154709	20101013.160531	8	0.011763	60	10	60-180	60	176	GapExp	0	176	2	3	0	target	0	403	-1000	298564	11.765	11.755	11.777
ProbeTrack12	2	ProbeTrack	11.3	WolfelabSpurzheim	20101013.154709	20101013.160538	8	0.011763	60	0	60-180	60	149	GapExp	0	177	2	1	1	distractor	0	637	-1000	297564	11.765	11.753	11.776
ProbeTrack12	2	ProbeTrack	11.3	WolfelabSpurzheim	20101013.154709	20101013.160546	8	0.011763	60	0	60-180	60	162	GapExp	0	178	2	1	1	target	1	461	770	298334	11.765	11.753	11.780
ProbeTrack12	2	ProbeTrack	11.3	WolfelabSpurzheim	20101013.154709	20101013.160552	8	0.011763	60	10	60-180	60	109	GapExp	0	179	2	1	0	distractor	1	543	729	299063	11.765	11.753	11.776
ProbeTrack12	2	ProbeTrack	11.3	WolfelabSpurzheim	20101013.154709	20101013.160557	8	0.011763	60	0	60-180	60	99	GapExp	0	180	2	3	1	target	1	426	787	299850	11.765	11.754	11.776
ProbeTrack12	2	ProbeTrack	11.3	WolfelabSpurzheim	20101013.154709	20101013.160603	8	0.011763	60	10	60-180	60	93	GapExp	0	181	2	0	0	target	0	649	-1000	298850	11.765	11.754	11.776
ProbeTrack12	2	ProbeTrack	11.3	WolfelabSpurzheim	20101013.154709	20101013.160608	8	0.011763	60	10	60-180	60	164	GapExp	0	182	2	45	0	distractor	1	555	723	299573	11.765	11.753	11.776
ProbeTrack12	2	ProbeTrack	11.3	WolfelabSpurzheim	20101013.154709	20101013.160616	8	0.011763	60	10	60-180	60	167	GapExp	0	183	2	1	1	target	1	414	793	300366	11.765	11.754	11.777
ProbeTrack12	2	ProbeTrack	11.3	WolfelabSpurzheim	20101013.154709	20101013.160622	8	0.011763	60	0	60-180	60	90	GapExp	0	184	2	45	1	target	1	461	770	301136	11.765	11.754	11.777
ProbeTrack12	2	ProbeTrack	11.3	WolfelabSpurzheim	20101013.154709	20101013.160628	8	0.011763	60	0	60-180	60	71	GapExp	0	185	2	1	0	distractor	1	473	764	301900	11.765	11.753	11.776
ProbeTrack12	2	ProbeTrack	11.3	WolfelabSpurzheim	20101013.154709	20101013.160633	8	0.011763	60	10	60-180	60	116	GapExp	0	186	2	3	1	target	1	332	834	302734	11.765	11.754	11.776
ProbeTrack12	2	ProbeTrack	11.3	WolfelabSpurzheim	20101013.154709	20101013.160638	8	0.011763	60	10	60-180	60	109	GapExp	0	187	2	45	1	target	1	520	740	303474	11.765	11.753	11.776
ProbeTrack12	2	ProbeTrack	11.3	WolfelabSpurzheim	20101013.154709	20101013.160644	8	0.011763	60	10	60-180	60	154	GapExp	0	188	2	0	1	target	1	390	805	304279	11.765	11.753	11.776
ProbeTrack12	2	ProbeTrack	11.3	WolfelabSpurzheim	20101013.154709	20101013.160650	8	0.011763	60	0	60-180	60	125	GapExp	0	189	2	45	1	target	1	390	805	305084	11.765	11.754	11.776
ProbeTrack12	2	ProbeTrack	11.3	WolfelabSpurzheim	20101013.154709	20101013.160656	8	0.011763	60	10	60-180	60	122	GapExp	0	190	2	1	0	distractor	1	579	711	305795	11.765	11.754	11.777
ProbeTrack12	2	ProbeTrack	11.3	WolfelabSpurzheim	20101013.154709	20101013.160702	8	0.011763	60	0	60-180	60	130	GapExp	0	191	2	1	1	target	1	461	770	306565	11.765	11.754	11.776
ProbeTrack12	2	ProbeTrack	11.3	WolfelabSpurzheim	20101013.154709	20101013.160708	8	0.011763	60	0	60-180	60	68	GapExp	0	192	2	45	1	target	1	438	781	307346	11.765	11.754	11.776
ProbeTrack12	2	ProbeTrack	11.3	WolfelabSpurzheim	20101013.154709	20101013.160713	8	0.011763	60	0	60-180	60	179	GapExp	0	193	2	0	0	distractor	1	426	787	308133	11.765	11.753	11.776
ProbeTrack12	2	ProbeTrack	11.3	WolfelabSpurzheim	20101013.154709	20101013.160719	8	0.011763	60	10	60-180	60	161	GapExp	0	194	2	1	0	distractor	1	473	764	308897	11.765	11.731	11.800
ProbeTrack12	2	ProbeTrack	11.3	WolfelabSpurzheim	20101013.154709	20101013.160726	8	0.011763	60	10	60-180	60	76	GapExp	0	195	2	3	0	target	0	814	-1000	307897	11.765	11.755	11.776
ProbeTrack12	2	ProbeTrack	11.3	WolfelabSpurzheim	20101013.154709	20101013.160731	8	0.011763	60	10	60-180	60	145	GapExp	0	196	2	1	0	distractor	1	567	717	308614	11.765	11.746	11.780
ProbeTrack12	2	ProbeTrack	11.3	WolfelabSpurzheim	20101013.154709	20101013.160738	8	0.011763	60	10	60-180	60	69	GapExp	0	197	2	1	1	target	1	591	705	309319	11.765	11.742	11.795
ProbeTrack12	2	ProbeTrack	11.3	WolfelabSpurzheim	20101013.154709	20101013.160743	8	0.011763	60	0	60-180	60	162	GapExp	0	198	2	1	0	distractor	1	556	722	310041	11.765	11.754	11.777
ProbeTrack12	2	ProbeTrack	11.3	WolfelabSpurzheim	20101013.154709	20101013.160749	8	0.011763	60	10	60-180	60	149	GapExp	0	199	2	1	0	distractor	1	473	764	310805	11.765	11.753	11.776
ProbeTrack12	2	ProbeTrack	11.3	WolfelabSpurzheim	20101013.154709	20101013.160755	8	0.011763	60	0	60-180	60	114	GapExp	0	200	2	45	0	distractor	1	626	687	311492	11.765	11.755	11.776
ProbeTrack12	2	ProbeTrack	11.3	WolfelabSpurzheim	20101013.154709	20101013.160801	8	0.011763	60	0	60-180	60	122	GapExp	0	201	2	1	0	distractor	1	603	699	312191	11.765	11.748	11.777
ProbeTrack12	2	ProbeTrack	11.3	WolfelabSpurzheim	20101013.154709	20101013.160807	8	0.011763	60	10	60-180	60	153	GapExp	0	202	2	3	1	target	1	426	787	312978	11.765	11.754	11.778
ProbeTrack12	2	ProbeTrack	11.3	WolfelabSpurzheim	20101013.154709	20101013.160813	8	0.011763	60	10	60-180	60	63	GapExp	0	203	2	3	0	target	0	497	-1000	311978	11.765	11.755	11.776
ProbeTrack12	2	ProbeTrack	11.3	WolfelabSpurzheim	20101013.154709	20101013.160818	8	0.011763	60	10	60-180	60	166	GapExp	0	204	2	1	1	target	1	426	787	312765	11.765	11.753	11.777
ProbeTrack12	2	ProbeTrack	11.3	WolfelabSpurzheim	20101013.154709	20101013.160824	8	0.011763	60	0	60-180	60	98	GapExp	0	205	2	3	0	distractor	1	602	699	313464	11.765	11.753	11.776
ProbeTrack12	2	ProbeTrack	11.3	WolfelabSpurzheim	20101013.154709	20101013.160829	8	0.011763	60	10	60-180	60	81	GapExp	0	206	2	45	1	target	1	414	793	314257	11.765	11.754	11.777
ProbeTrack12	2	ProbeTrack	11.3	WolfelabSpurzheim	20101013.154709	20101013.160835	8	0.011763	60	0	60-180	60	79	GapExp	0	207	2	45	1	target	1	426	787	315044	11.765	11.751	11.779
ProbeTrack12	2	ProbeTrack	11.3	WolfelabSpurzheim	20101013.154709	20101013.160840	8	0.011763	60	0	60-180	60	178	GapExp	0	208	2	45	1	target	1	637	682	315726	11.765	11.746	11.786
ProbeTrack12	2	ProbeTrack	11.3	WolfelabSpurzheim	20101013.154709	20101013.160847	8	0.011763	60	0	60-180	60	178	GapExp	0	209	2	1	0	target	0	449	-1000	314726	11.765	11.752	11.777
ProbeTrack12	2	ProbeTrack	11.3	WolfelabSpurzheim	20101013.154709	20101013.160853	8	0.011763	60	0	60-180	60	104	GapExp	0	210	2	45	0	distractor	1	638	681	315407	11.765	11.735	11.795
ProbeTrack12	2	ProbeTrack	11.3	WolfelabSpurzheim	20101013.154709	20101013.160901	8	0.011763	60	0	60-180	60	114	GapExp	0	211	2	3	1	target	1	403	799	316206	11.765	11.753	11.777
ProbeTrack12	2	ProbeTrack	11.3	WolfelabSpurzheim	20101013.154709	20101013.160907	8	0.011763	60	0	60-180	60	126	GapExp	0	212	2	45	1	target	1	391	805	317011	11.765	11.754	11.776
ProbeTrack12	2	ProbeTrack	11.3	WolfelabSpurzheim	20101013.154709	20101013.160913	8	0.011763	60	10	60-180	60	71	GapExp	0	213	2	0	1	target	1	461	770	317781	11.765	11.730	11.796
ProbeTrack12	2	ProbeTrack	11.3	WolfelabSpurzheim	20101013.154709	20101013.160918	8	0.011763	60	10	60-180	60	130	GapExp	0	214	2	0	1	target	1	367	817	318598	11.765	11.755	11.780
ProbeTrack12	2	ProbeTrack	11.3	WolfelabSpurzheim	20101013.154709	20101013.160924	8	0.011763	60	10	60-180	60	95	GapExp	0	215	2	3	1	target	1	367	817	319415	11.765	11.754	11.776
ProbeTrack12	2	ProbeTrack	11.3	WolfelabSpurzheim	20101013.154709	20101013.160929	8	0.011763	60	0	60-180	60	75	GapExp	0	216	2	0	1	target	1	379	811	320226	11.765	11.755	11.776
ProbeTrack12	2	ProbeTrack	11.3	WolfelabSpurzheim	20101013.154709	20101013.160934	8	0.011763	60	0	60-180	60	74	GapExp	0	217	2	0	0	distractor	1	567	717	320943	11.765	11.753	11.776
ProbeTrack12	2	ProbeTrack	11.3	WolfelabSpurzheim	20101013.154709	20101013.160939	8	0.011763	60	10	60-180	60	138	GapExp	0	218	2	3	0	distractor	1	579	711	321654	11.765	11.755	11.776
ProbeTrack12	2	ProbeTrack	11.3	WolfelabSpurzheim	20101013.154709	20101013.160945	8	0.011763	60	0	60-180	60	112	GapExp	0	219	2	45	0	distractor	1	521	740	322394	11.765	11.754	11.777
ProbeTrack12	2	ProbeTrack	11.3	WolfelabSpurzheim	20101013.154709	20101013.160951	8	0.011763	60	10	60-180	60	148	GapExp	0	220	2	3	1	target	1	449	776	323170	11.765	11.755	11.776
ProbeTrack12	2	ProbeTrack	11.3	WolfelabSpurzheim	20101013.154709	20101013.160957	8	0.011763	60	0	60-180	60	153	GapExp	0	221	2	3	0	distractor	1	579	711	323881	11.765	11.752	11.782
ProbeTrack12	2	ProbeTrack	11.3	WolfelabSpurzheim	20101013.154709	20101013.161003	8	0.011763	60	0	60-180	60	150	GapExp	0	222	2	3	1	target	1	403	799	324680	11.765	11.755	11.777
ProbeTrack12	2	ProbeTrack	11.3	WolfelabSpurzheim	20101013.154709	20101013.161009	8	0.011763	60	0	60-180	60	165	GapExp	0	223	2	45	1	target	1	508	746	325426	11.765	11.747	11.780
ProbeTrack12	2	ProbeTrack	11.3	WolfelabSpurzheim	20101013.154709	20101013.161015	8	0.011763	60	0	60-180	60	146	GapExp	0	224	2	45	0	distractor	1	567	717	326143	11.765	11.754	11.776
ProbeTrack12	2	ProbeTrack	11.3	WolfelabSpurzheim	20101013.154709	20101013.161022	8	0.011763	60	10	60-180	60	63	GapExp	0	225	2	45	0	distractor	1	708	646	326789	11.765	11.754	11.777
ProbeTrack12	2	ProbeTrack	11.3	WolfelabSpurzheim	20101013.154709	20101013.161028	8	0.011763	60	0	60-180	60	151	GapExp	0	226	2	3	0	distractor	1	614	693	327482	11.765	11.752	11.777
ProbeTrack12	2	ProbeTrack	11.3	WolfelabSpurzheim	20101013.154709	20101013.161035	8	0.011763	60	0	60-180	60	83	GapExp	0	227	2	1	0	distractor	1	614	693	328175	11.765	11.754	11.776
ProbeTrack12	2	ProbeTrack	11.3	WolfelabSpurzheim	20101013.154709	20101013.161040	8	0.011763	60	10	60-180	60	90	GapExp	0	228	2	45	1	target	1	496	752	328927	11.765	11.754	11.778
ProbeTrack12	2	ProbeTrack	11.3	WolfelabSpurzheim	20101013.154709	20101013.161046	8	0.011763	60	0	60-180	60	150	GapExp	0	229	2	0	0	target	0	649	-1000	327927	11.765	11.753	11.777
ProbeTrack12	2	ProbeTrack	11.3	WolfelabSpurzheim	20101013.154709	20101013.161052	8	0.011763	60	0	60-180	60	119	GapExp	0	230	2	0	0	distractor	1	731	635	328562	11.765	11.754	11.775
ProbeTrack12	2	ProbeTrack	11.3	WolfelabSpurzheim	20101013.154709	20101013.161058	8	0.011763	60	10	60-180	60	115	GapExp	0	231	2	0	0	target	0	614	-1000	327562	11.765	11.754	11.776
ProbeTrack12	2	ProbeTrack	11.3	WolfelabSpurzheim	20101013.154709	20101013.161104	8	0.011763	60	10	60-180	60	83	GapExp	0	232	2	45	0	distractor	1	485	758	328320	11.765	11.753	11.776
ProbeTrack12	2	ProbeTrack	11.3	WolfelabSpurzheim	20101013.154709	20101013.161110	8	0.011763	60	0	60-180	60	87	GapExp	0	233	2	1	0	distractor	1	555	723	329043	11.765	11.753	11.776
ProbeTrack12	2	ProbeTrack	11.3	WolfelabSpurzheim	20101013.154709	20101013.161115	8	0.011763	60	0	60-180	60	131	GapExp	0	234	2	3	0	distractor	1	626	687	329730	11.765	11.755	11.776
ProbeTrack12	2	ProbeTrack	11.3	WolfelabSpurzheim	20101013.154709	20101013.161121	8	0.011763	60	10	60-180	60	176	GapExp	0	235	2	45	1	target	1	450	775	330505	11.765	11.754	11.777
ProbeTrack12	2	ProbeTrack	11.3	WolfelabSpurzheim	20101013.154709	20101013.161128	8	0.011763	60	0	60-180	60	171	GapExp	0	236	2	1	1	target	1	462	769	331274	11.765	11.754	11.776
ProbeTrack12	2	ProbeTrack	11.3	WolfelabSpurzheim	20101013.154709	20101013.161135	8	0.011763	60	10	60-180	60	172	GapExp	0	237	2	45	0	distractor	1	497	752	332026	11.765	11.754	11.775
ProbeTrack12	2	ProbeTrack	11.3	WolfelabSpurzheim	20101013.154709	20101013.161142	8	0.011763	60	0	60-180	60	175	GapExp	0	238	2	0	1	target	1	555	723	332749	11.765	11.754	11.777
ProbeTrack12	2	ProbeTrack	11.3	WolfelabSpurzheim	20101013.154709	20101013.161148	8	0.011763	60	0	60-180	60	148	GapExp	0	239	2	45	1	target	1	414	793	333542	11.765	11.749	11.777
ProbeTrack12	2	ProbeTrack	11.3	WolfelabSpurzheim	20101013.154709	20101013.161154	8	0.011763	60	0	60-180	60	168	GapExp	0	240	2	0	1	target	1	437	782	334324	11.765	11.753	11.777
ProbeTrack12	2	ProbeTrack	11.3	WolfelabSpurzheim	20101013.154709	20101013.161200	8	0.011763	60	0	60-180	60	81	GapExp	0	241	2	45	0	distractor	1	814	593	334917	11.765	11.754	11.776
ProbeTrack12	2	ProbeTrack	11.3	WolfelabSpurzheim	20101013.154709	20101013.161206	8	0.011763	60	10	60-180	60	86	GapExp	0	242	2	3	1	target	1	402	799	335716	11.765	11.754	11.776
ProbeTrack12	2	ProbeTrack	11.3	WolfelabSpurzheim	20101013.154709	20101013.161211	8	0.011763	60	10	60-180	60	170	GapExp	0	243	2	1	1	target	1	320	840	336556	11.765	11.755	11.776
ProbeTrack12	2	ProbeTrack	11.3	WolfelabSpurzheim	20101013.154709	20101013.161217	8	0.011763	60	0	60-180	60	86	GapExp	0	244	2	0	0	distractor	1	602	699	337255	11.765	11.755	11.777
ProbeTrack12	2	ProbeTrack	11.3	WolfelabSpurzheim	20101013.154709	20101013.161223	8	0.011763	60	0	60-180	60	142	GapExp	0	245	2	3	1	target	1	414	793	338048	11.765	11.754	11.776
ProbeTrack12	2	ProbeTrack	11.3	WolfelabSpurzheim	20101013.154709	20101013.161233	8	0.011763	60	10	60-180	60	79	GapExp	0	246	2	45	1	target	1	356	822	338870	11.765	11.753	11.775
ProbeTrack12	2	ProbeTrack	11.3	WolfelabSpurzheim	20101013.154709	20101013.161239	8	0.011763	60	0	60-180	60	171	GapExp	0	247	2	3	1	target	1	508	746	339616	11.765	11.753	11.777
ProbeTrack12	2	ProbeTrack	11.3	WolfelabSpurzheim	20101013.154709	20101013.161245	8	0.011763	60	10	60-180	60	126	GapExp	0	248	2	45	1	target	1	485	758	340374	11.765	11.733	11.799
ProbeTrack12	2	ProbeTrack	11.3	WolfelabSpurzheim	20101013.154709	20101013.161252	8	0.011763	60	10	60-180	60	115	GapExp	0	249	2	0	1	target	1	461	770	341144	11.765	11.754	11.777
ProbeTrack12	2	ProbeTrack	11.3	WolfelabSpurzheim	20101013.154709	20101013.161258	8	0.011763	60	10	60-180	60	120	GapExp	0	250	2	1	0	distractor	1	555	723	341867	11.765	11.755	11.776
