exp	sub	code	rev	comp	runtime	trialtime	nstim	refreshdur	cuedur	gapdur	gapOnsetRange	durPostProbe	gapOnsetTime	blocktype	prac	trial	ntargets	soa	probeTarget	resp	acc	rt	pts	tpts	meanFrameDur	minFrameDur	maxFrameDur
ProbeTrack12	6	ProbeTrack	11.3	WolfelabSpurzheim	20101022.095537	20101022.095700	8	0.011767	60	0	60-180	60	155	NoGap	1	1	2	1	1	target	1	1943	29	29	11.927	11.753	35.300
ProbeTrack12	6	ProbeTrack	11.3	WolfelabSpurzheim	20101022.095537	20101022.095714	8	0.011767	60	0	60-180	60	147	NoGap	1	2	2	0	1	target	1	532	734	763	11.765	11.753	11.776
ProbeTrack12	6	ProbeTrack	11.3	WolfelabSpurzheim	20101022.095537	20101022.095725	8	0.011767	60	0	60-180	60	103	NoGap	1	3	2	0	0	distractor	1	567	717	1480	11.765	11.753	11.783
ProbeTrack12	6	ProbeTrack	11.3	WolfelabSpurzheim	20101022.095537	20101022.095732	8	0.011767	60	0	60-180	60	118	NoGap	1	4	2	1	0	distractor	1	437	782	2262	11.816	11.747	23.528
ProbeTrack12	6	ProbeTrack	11.3	WolfelabSpurzheim	20101022.095537	20101022.095741	8	0.011767	60	0	60-180	60	165	NoGap	1	5	2	1	0	distractor	1	485	758	3020	11.765	11.753	11.776
ProbeTrack12	6	ProbeTrack	11.3	WolfelabSpurzheim	20101022.095537	20101022.095749	8	0.011767	60	0	60-180	60	110	NoGap	1	6	2	1	0	distractor	1	473	764	3784	11.765	11.752	11.777
ProbeTrack12	6	ProbeTrack	11.3	WolfelabSpurzheim	20101022.095537	20101022.095755	8	0.011767	60	0	60-180	60	125	NoGap	1	7	2	45	0	distractor	1	332	834	4618	11.765	11.737	11.790
ProbeTrack12	6	ProbeTrack	11.3	WolfelabSpurzheim	20101022.095537	20101022.095803	8	0.011767	60	0	60-180	60	127	NoGap	1	8	2	1	1	distractor	0	367	-1000	3618	11.765	11.753	11.776
ProbeTrack12	6	ProbeTrack	11.3	WolfelabSpurzheim	20101022.095537	20101022.095809	8	0.011767	60	0	60-180	60	150	NoGap	1	9	2	45	1	target	1	308	846	4464	11.765	11.753	11.776
ProbeTrack12	6	ProbeTrack	11.3	WolfelabSpurzheim	20101022.095537	20101022.095817	8	0.011767	60	0	60-180	60	112	NoGap	1	10	2	1	1	target	1	414	793	5257	11.765	11.754	11.776
ProbeTrack12	6	ProbeTrack	11.3	WolfelabSpurzheim	20101022.095537	20101022.095823	8	0.011767	60	0	60-180	60	68	NoGap	1	11	2	1	1	target	1	367	817	6074	11.765	11.754	11.776
ProbeTrack12	6	ProbeTrack	11.3	WolfelabSpurzheim	20101022.095537	20101022.095828	8	0.011767	60	0	60-180	60	179	NoGap	1	12	2	1	1	distractor	0	332	-1000	5074	11.765	11.753	11.778
ProbeTrack12	6	ProbeTrack	11.3	WolfelabSpurzheim	20101022.095537	20101022.095835	8	0.011767	60	0	60-180	60	108	NoGap	1	13	2	3	1	target	1	356	822	5896	11.765	11.744	11.788
ProbeTrack12	6	ProbeTrack	11.3	WolfelabSpurzheim	20101022.095537	20101022.095841	8	0.011767	60	0	60-180	60	66	NoGap	1	14	2	0	1	target	1	273	864	6760	11.765	11.754	11.777
ProbeTrack12	6	ProbeTrack	11.3	WolfelabSpurzheim	20101022.095537	20101022.095846	8	0.011767	60	0	60-180	60	76	NoGap	1	15	2	3	0	distractor	1	532	734	7494	11.765	11.753	11.776
ProbeTrack12	6	ProbeTrack	11.3	WolfelabSpurzheim	20101022.095537	20101022.095852	8	0.011767	60	0	60-180	60	161	NoGap	1	16	2	0	0	target	0	402	-1000	6494	11.765	11.754	11.776
ProbeTrack12	6	ProbeTrack	11.3	WolfelabSpurzheim	20101022.095537	20101022.095858	8	0.011767	60	0	60-180	60	79	NoGap	1	17	2	3	0	distractor	1	367	817	7311	11.765	11.755	11.776
ProbeTrack12	6	ProbeTrack	11.3	WolfelabSpurzheim	20101022.095537	20101022.095904	8	0.011767	60	0	60-180	60	173	NoGap	1	18	2	0	0	distractor	1	390	805	8116	11.765	11.755	11.777
ProbeTrack12	6	ProbeTrack	11.3	WolfelabSpurzheim	20101022.095537	20101022.095911	8	0.011767	60	0	60-180	60	128	NoGap	1	19	2	0	1	target	1	331	835	8951	11.765	11.754	11.776
ProbeTrack12	6	ProbeTrack	11.3	WolfelabSpurzheim	20101022.095537	20101022.095917	8	0.011767	60	0	60-180	60	153	NoGap	1	20	2	0	0	distractor	1	390	805	9756	11.765	11.755	11.777
ProbeTrack12	6	ProbeTrack	11.3	WolfelabSpurzheim	20101022.095537	20101022.095923	8	0.011767	60	0	60-180	60	162	NoGap	1	21	2	3	1	target	1	355	823	10579	11.765	11.753	11.776
ProbeTrack12	6	ProbeTrack	11.3	WolfelabSpurzheim	20101022.095537	20101022.095929	8	0.011767	60	0	60-180	60	163	NoGap	1	22	2	0	0	distractor	1	461	770	11349	11.765	11.754	11.775
ProbeTrack12	6	ProbeTrack	11.3	WolfelabSpurzheim	20101022.095537	20101022.095936	8	0.011767	60	0	60-180	60	64	NoGap	1	23	2	45	0	target	0	555	-1000	10349	11.765	11.754	11.776
ProbeTrack12	6	ProbeTrack	11.3	WolfelabSpurzheim	20101022.095537	20101022.095942	8	0.011767	60	0	60-180	60	112	NoGap	1	24	2	45	1	target	1	414	793	11142	11.765	11.739	11.796
ProbeTrack12	6	ProbeTrack	11.3	WolfelabSpurzheim	20101022.095537	20101022.095948	8	0.011767	60	0	60-180	60	74	NoGap	1	25	2	0	1	target	1	308	846	11988	11.765	11.754	11.776
ProbeTrack12	6	ProbeTrack	11.3	WolfelabSpurzheim	20101022.095537	20101022.095953	8	0.011767	60	0	60-180	60	146	NoGap	1	26	2	45	1	target	1	508	746	12734	11.765	11.755	11.775
ProbeTrack12	6	ProbeTrack	11.3	WolfelabSpurzheim	20101022.095537	20101022.100000	8	0.011767	60	0	60-180	60	174	NoGap	1	27	2	3	0	distractor	1	355	823	13557	11.765	11.755	11.776
ProbeTrack12	6	ProbeTrack	11.3	WolfelabSpurzheim	20101022.095537	20101022.100006	8	0.011767	60	0	60-180	60	128	NoGap	1	28	2	45	0	distractor	1	355	823	14380	11.765	11.736	11.794
ProbeTrack12	6	ProbeTrack	11.3	WolfelabSpurzheim	20101022.095537	20101022.100012	8	0.011767	60	0	60-180	60	96	NoGap	1	29	2	45	1	target	1	332	834	15214	11.765	11.754	11.777
ProbeTrack12	6	ProbeTrack	11.3	WolfelabSpurzheim	20101022.095537	20101022.100018	8	0.011767	60	0	60-180	60	154	NoGap	1	30	2	45	0	distractor	1	379	811	16025	11.765	11.753	11.776
ProbeTrack12	6	ProbeTrack	11.3	WolfelabSpurzheim	20101022.095537	20101022.100025	8	0.011767	60	0	60-180	60	148	NoGap	1	31	2	45	0	distractor	1	367	817	16842	11.765	11.754	11.777
ProbeTrack12	6	ProbeTrack	11.3	WolfelabSpurzheim	20101022.095537	20101022.100031	8	0.011767	60	0	60-180	60	74	NoGap	1	32	2	45	1	target	1	438	781	17623	11.765	11.754	11.777
ProbeTrack12	6	ProbeTrack	11.3	WolfelabSpurzheim	20101022.095537	20101022.100037	8	0.011767	60	0	60-180	60	99	NoGap	1	33	2	3	0	distractor	1	343	829	18452	11.765	11.754	11.778
ProbeTrack12	6	ProbeTrack	11.3	WolfelabSpurzheim	20101022.095537	20101022.100043	8	0.011767	60	0	60-180	60	151	NoGap	1	34	2	1	0	distractor	1	355	823	19275	11.765	11.755	11.777
ProbeTrack12	6	ProbeTrack	11.3	WolfelabSpurzheim	20101022.095537	20101022.100049	8	0.011767	60	0	60-180	60	151	NoGap	1	35	2	0	1	target	1	320	840	20115	11.765	11.754	11.776
ProbeTrack12	6	ProbeTrack	11.3	WolfelabSpurzheim	20101022.095537	20101022.100056	8	0.011767	60	0	60-180	60	161	NoGap	1	36	2	3	1	target	1	367	817	20932	11.765	11.755	11.776
ProbeTrack12	6	ProbeTrack	11.3	WolfelabSpurzheim	20101022.095537	20101022.100103	8	0.011767	60	0	60-180	60	141	NoGap	1	37	2	1	0	distractor	1	414	793	21725	11.765	11.754	11.776
ProbeTrack12	6	ProbeTrack	11.3	WolfelabSpurzheim	20101022.095537	20101022.100109	8	0.011767	60	0	60-180	60	108	NoGap	1	38	2	3	0	distractor	1	390	805	22530	11.765	11.754	11.799
ProbeTrack12	6	ProbeTrack	11.3	WolfelabSpurzheim	20101022.095537	20101022.100114	8	0.011767	60	0	60-180	60	152	NoGap	1	39	2	3	1	distractor	0	309	-1000	21530	11.765	11.755	11.775
ProbeTrack12	6	ProbeTrack	11.3	WolfelabSpurzheim	20101022.095537	20101022.100120	8	0.011767	60	0	60-180	60	133	NoGap	1	40	2	3	1	target	1	356	822	22352	11.765	11.755	11.777
ProbeTrack12	6	ProbeTrack	11.3	WolfelabSpurzheim	20101022.100225	20101022.100238	8	0.011764	60	0	60-180	60	165	GapPrac	1	1	2	0	1	target	1	367	817	23169	11.937	11.754	23.529
ProbeTrack12	6	ProbeTrack	11.3	WolfelabSpurzheim	20101022.100225	20101022.100249	8	0.011764	60	10	60-180	60	162	GapPrac	1	2	2	45	1	target	1	426	787	23956	11.765	11.754	11.778
ProbeTrack12	6	ProbeTrack	11.3	WolfelabSpurzheim	20101022.100225	20101022.100256	8	0.011764	60	10	60-180	60	106	GapPrac	1	3	2	0	1	target	1	367	817	24773	11.870	11.754	11.776
ProbeTrack12	6	ProbeTrack	11.3	WolfelabSpurzheim	20101022.100225	20101022.100304	8	0.011764	60	10	60-180	60	170	GapPrac	1	4	2	3	0	distractor	1	637	682	25455	11.765	11.754	11.777
ProbeTrack12	6	ProbeTrack	11.3	WolfelabSpurzheim	20101022.100225	20101022.100310	8	0.011764	60	0	60-180	60	112	GapPrac	1	5	2	45	0	distractor	1	449	776	26231	11.808	11.754	23.522
ProbeTrack12	6	ProbeTrack	11.3	WolfelabSpurzheim	20101022.100225	20101022.100317	8	0.011764	60	0	60-180	60	115	GapPrac	1	6	2	0	0	distractor	1	437	782	27013	11.765	11.754	11.776
ProbeTrack12	6	ProbeTrack	11.3	WolfelabSpurzheim	20101022.100225	20101022.100323	8	0.011764	60	0	60-180	60	179	GapPrac	1	7	2	0	1	target	1	296	852	27865	11.765	11.753	11.776
ProbeTrack12	6	ProbeTrack	11.3	WolfelabSpurzheim	20101022.100225	20101022.100329	8	0.011764	60	0	60-180	60	169	GapPrac	1	8	2	3	0	distractor	1	379	811	28676	11.765	11.754	11.778
ProbeTrack12	6	ProbeTrack	11.3	WolfelabSpurzheim	20101022.100225	20101022.100335	8	0.011764	60	0	60-180	60	106	GapPrac	1	9	2	45	1	target	1	320	840	29516	11.765	11.753	11.776
ProbeTrack12	6	ProbeTrack	11.3	WolfelabSpurzheim	20101022.100225	20101022.100341	8	0.011764	60	10	60-180	60	144	GapPrac	1	10	2	3	0	distractor	1	332	834	30350	11.765	11.753	11.776
ProbeTrack12	6	ProbeTrack	11.3	WolfelabSpurzheim	20101022.100225	20101022.100347	8	0.011764	60	0	60-180	60	171	GapPrac	1	11	2	1	0	distractor	1	379	811	31161	11.765	11.730	11.795
ProbeTrack12	6	ProbeTrack	11.3	WolfelabSpurzheim	20101022.100225	20101022.100353	8	0.011764	60	10	60-180	60	78	GapPrac	1	12	2	0	1	target	1	426	787	31948	11.765	11.755	11.777
ProbeTrack12	6	ProbeTrack	11.3	WolfelabSpurzheim	20101022.100225	20101022.100358	8	0.011764	60	0	60-180	60	166	GapPrac	1	13	2	1	1	target	1	297	852	32800	11.765	11.754	11.776
ProbeTrack12	6	ProbeTrack	11.3	WolfelabSpurzheim	20101022.100225	20101022.100403	8	0.011764	60	0	60-180	60	76	GapPrac	1	14	2	3	1	target	1	402	799	33599	11.765	11.754	11.777
ProbeTrack12	6	ProbeTrack	11.3	WolfelabSpurzheim	20101022.100225	20101022.100409	8	0.011764	60	10	60-180	60	137	GapPrac	1	15	2	45	1	target	1	331	835	34434	11.765	11.754	11.777
ProbeTrack12	6	ProbeTrack	11.3	WolfelabSpurzheim	20101022.100225	20101022.100415	8	0.011764	60	10	60-180	60	177	GapPrac	1	16	2	45	0	target	0	438	-1000	33434	11.765	11.755	11.776
ProbeTrack12	6	ProbeTrack	11.3	WolfelabSpurzheim	20101022.100225	20101022.100422	8	0.011764	60	10	60-180	60	142	GapPrac	1	17	2	1	0	distractor	1	637	682	34116	11.765	11.754	11.777
ProbeTrack12	6	ProbeTrack	11.3	WolfelabSpurzheim	20101022.100225	20101022.100429	8	0.011764	60	10	60-180	60	137	GapPrac	1	18	2	0	0	distractor	1	672	664	34780	11.765	11.753	11.776
ProbeTrack12	6	ProbeTrack	11.3	WolfelabSpurzheim	20101022.100225	20101022.100435	8	0.011764	60	10	60-180	60	132	GapPrac	1	19	2	1	1	distractor	0	391	-1000	33780	11.765	11.755	11.776
ProbeTrack12	6	ProbeTrack	11.3	WolfelabSpurzheim	20101022.100225	20101022.100441	8	0.011764	60	10	60-180	60	171	GapPrac	1	20	2	3	1	target	1	367	817	34597	11.765	11.734	11.800
ProbeTrack12	6	ProbeTrack	11.3	WolfelabSpurzheim	20101022.100526	20101022.100533	8	0.011766	60	0	60-180	60	88	GapExp	1	1	2	1	0	distractor	1	437	782	35379	12.055	11.753	35.293
ProbeTrack12	6	ProbeTrack	11.3	WolfelabSpurzheim	20101022.100526	20101022.100539	8	0.011766	60	0	60-180	60	61	GapExp	1	2	2	45	0	distractor	1	437	782	36161	11.819	11.753	23.524
ProbeTrack12	6	ProbeTrack	11.3	WolfelabSpurzheim	20101022.100526	20101022.100545	8	0.011766	60	10	60-180	60	168	GapExp	1	3	2	1	1	target	1	461	770	36931	11.765	11.755	11.776
ProbeTrack12	6	ProbeTrack	11.3	WolfelabSpurzheim	20101022.100526	20101022.100552	8	0.011766	60	10	60-180	60	107	GapExp	1	4	2	45	0	distractor	1	426	787	37718	11.893	11.755	11.776
ProbeTrack12	6	ProbeTrack	11.3	WolfelabSpurzheim	20101022.100526	20101022.100558	8	0.011766	60	10	60-180	60	106	GapExp	1	5	2	1	0	target	0	438	-1000	36718	11.765	11.755	11.777
ProbeTrack12	6	ProbeTrack	11.3	WolfelabSpurzheim	20101022.100526	20101022.100604	8	0.011766	60	10	60-180	60	148	GapExp	1	6	2	0	1	target	1	367	817	37535	11.765	11.754	11.777
ProbeTrack12	6	ProbeTrack	11.3	WolfelabSpurzheim	20101022.100526	20101022.100610	8	0.011766	60	0	60-180	60	117	GapExp	1	7	2	3	1	target	1	367	817	38352	11.765	11.755	11.777
ProbeTrack12	6	ProbeTrack	11.3	WolfelabSpurzheim	20101022.100526	20101022.100616	8	0.011766	60	10	60-180	60	151	GapExp	1	8	2	45	1	target	1	485	758	39110	11.765	11.754	11.776
ProbeTrack12	6	ProbeTrack	11.3	WolfelabSpurzheim	20101022.100526	20101022.100623	8	0.011766	60	10	60-180	60	90	GapExp	1	9	2	3	1	target	1	367	817	39927	11.765	11.755	11.777
ProbeTrack12	6	ProbeTrack	11.3	WolfelabSpurzheim	20101022.100526	20101022.100628	8	0.011766	60	0	60-180	60	85	GapExp	1	10	2	0	1	target	1	343	829	40756	11.765	11.754	11.775
ProbeTrack12	6	ProbeTrack	11.3	WolfelabSpurzheim	20101022.100526	20101022.100633	8	0.011766	60	10	60-180	60	142	GapExp	0	11	2	0	1	target	1	332	834	41590	11.765	11.754	11.775
ProbeTrack12	6	ProbeTrack	11.3	WolfelabSpurzheim	20101022.100526	20101022.100639	8	0.011766	60	0	60-180	60	166	GapExp	0	12	2	0	0	distractor	1	379	811	42401	11.765	11.753	11.776
ProbeTrack12	6	ProbeTrack	11.3	WolfelabSpurzheim	20101022.100526	20101022.100645	8	0.011766	60	0	60-180	60	67	GapExp	0	13	2	0	1	target	1	485	758	43159	11.765	11.755	11.776
ProbeTrack12	6	ProbeTrack	11.3	WolfelabSpurzheim	20101022.100526	20101022.100650	8	0.011766	60	0	60-180	60	88	GapExp	0	14	2	1	1	target	1	332	834	43993	11.765	11.753	11.777
ProbeTrack12	6	ProbeTrack	11.3	WolfelabSpurzheim	20101022.100526	20101022.100655	8	0.011766	60	10	60-180	60	92	GapExp	0	15	2	3	0	distractor	1	555	723	44716	11.765	11.732	11.794
ProbeTrack12	6	ProbeTrack	11.3	WolfelabSpurzheim	20101022.100526	20101022.100701	8	0.011766	60	0	60-180	60	152	GapExp	0	16	2	45	0	distractor	1	414	793	45509	11.765	11.753	11.776
ProbeTrack12	6	ProbeTrack	11.3	WolfelabSpurzheim	20101022.100526	20101022.100707	8	0.011766	60	0	60-180	60	130	GapExp	0	17	2	45	1	target	1	320	840	46349	11.765	11.753	11.777
ProbeTrack12	6	ProbeTrack	11.3	WolfelabSpurzheim	20101022.100526	20101022.100713	8	0.011766	60	10	60-180	60	115	GapExp	0	18	2	3	1	distractor	0	343	-1000	45349	11.765	11.753	11.777
ProbeTrack12	6	ProbeTrack	11.3	WolfelabSpurzheim	20101022.100526	20101022.100719	8	0.011766	60	10	60-180	60	163	GapExp	0	19	2	45	1	target	1	343	829	46178	11.765	11.753	11.777
ProbeTrack12	6	ProbeTrack	11.3	WolfelabSpurzheim	20101022.100526	20101022.100725	8	0.011766	60	10	60-180	60	109	GapExp	0	20	2	1	1	target	1	367	817	46995	11.765	11.737	11.793
ProbeTrack12	6	ProbeTrack	11.3	WolfelabSpurzheim	20101022.100526	20101022.100731	8	0.011766	60	0	60-180	60	62	GapExp	0	21	2	1	1	target	1	414	793	47788	11.765	11.754	11.776
ProbeTrack12	6	ProbeTrack	11.3	WolfelabSpurzheim	20101022.100526	20101022.100736	8	0.011766	60	0	60-180	60	158	GapExp	0	22	2	3	0	distractor	1	485	758	48546	11.765	11.753	11.777
ProbeTrack12	6	ProbeTrack	11.3	WolfelabSpurzheim	20101022.100526	20101022.100742	8	0.011766	60	10	60-180	60	147	GapExp	0	23	2	3	1	target	1	344	828	49374	11.765	11.753	11.776
ProbeTrack12	6	ProbeTrack	11.3	WolfelabSpurzheim	20101022.100526	20101022.100748	8	0.011766	60	0	60-180	60	177	GapExp	0	24	2	0	1	target	1	308	846	50220	11.765	11.752	11.783
ProbeTrack12	6	ProbeTrack	11.3	WolfelabSpurzheim	20101022.100526	20101022.100755	8	0.011766	60	0	60-180	60	108	GapExp	0	25	2	45	1	target	1	450	775	50995	11.765	11.750	11.782
ProbeTrack12	6	ProbeTrack	11.3	WolfelabSpurzheim	20101022.100526	20101022.100801	8	0.011766	60	10	60-180	60	87	GapExp	0	26	2	0	0	distractor	1	449	776	51771	11.765	11.753	11.776
ProbeTrack12	6	ProbeTrack	11.3	WolfelabSpurzheim	20101022.100526	20101022.100806	8	0.011766	60	0	60-180	60	116	GapExp	0	27	2	3	0	distractor	1	391	805	52576	11.765	11.754	11.776
ProbeTrack12	6	ProbeTrack	11.3	WolfelabSpurzheim	20101022.100526	20101022.100811	8	0.011766	60	10	60-180	60	95	GapExp	0	28	2	45	1	target	1	320	840	53416	11.765	11.754	11.776
ProbeTrack12	6	ProbeTrack	11.3	WolfelabSpurzheim	20101022.100526	20101022.100818	8	0.011766	60	10	60-180	60	132	GapExp	0	29	2	1	1	target	1	438	781	54197	11.765	11.752	11.777
ProbeTrack12	6	ProbeTrack	11.3	WolfelabSpurzheim	20101022.100526	20101022.100824	8	0.011766	60	0	60-180	60	150	GapExp	0	30	2	3	0	distractor	1	567	717	54914	11.765	11.751	11.779
ProbeTrack12	6	ProbeTrack	11.3	WolfelabSpurzheim	20101022.100526	20101022.100830	8	0.011766	60	0	60-180	60	138	GapExp	0	31	2	0	0	distractor	1	402	799	55713	11.765	11.752	11.777
ProbeTrack12	6	ProbeTrack	11.3	WolfelabSpurzheim	20101022.100526	20101022.100835	8	0.011766	60	10	60-180	60	71	GapExp	0	32	2	3	1	target	1	379	811	56524	11.765	11.754	11.776
ProbeTrack12	6	ProbeTrack	11.3	WolfelabSpurzheim	20101022.100526	20101022.100841	8	0.011766	60	0	60-180	60	172	GapExp	0	33	2	45	1	target	1	285	858	57382	11.765	11.755	11.776
ProbeTrack12	6	ProbeTrack	11.3	WolfelabSpurzheim	20101022.100526	20101022.100847	8	0.011766	60	10	60-180	60	123	GapExp	0	34	2	0	0	distractor	1	426	787	58169	11.765	11.755	11.776
ProbeTrack12	6	ProbeTrack	11.3	WolfelabSpurzheim	20101022.100526	20101022.100853	8	0.011766	60	0	60-180	60	111	GapExp	0	35	2	45	0	distractor	1	390	805	58974	11.765	11.753	11.777
ProbeTrack12	6	ProbeTrack	11.3	WolfelabSpurzheim	20101022.100526	20101022.100859	8	0.011766	60	10	60-180	60	73	GapExp	0	36	2	3	1	target	1	320	840	59814	11.765	11.755	11.776
ProbeTrack12	6	ProbeTrack	11.3	WolfelabSpurzheim	20101022.100526	20101022.100904	8	0.011766	60	0	60-180	60	120	GapExp	0	37	2	3	0	distractor	1	438	781	60595	11.765	11.754	11.777
ProbeTrack12	6	ProbeTrack	11.3	WolfelabSpurzheim	20101022.100526	20101022.100909	8	0.011766	60	10	60-180	60	136	GapExp	0	38	2	3	0	target	0	332	-1000	59595	11.765	11.754	11.777
ProbeTrack12	6	ProbeTrack	11.3	WolfelabSpurzheim	20101022.100526	20101022.100918	8	0.011766	60	0	60-180	60	102	GapExp	0	39	2	1	0	distractor	1	403	799	60394	11.765	11.755	11.775
ProbeTrack12	6	ProbeTrack	11.3	WolfelabSpurzheim	20101022.100526	20101022.100924	8	0.011766	60	0	60-180	60	118	GapExp	0	40	2	1	0	distractor	1	414	793	61187	11.765	11.754	11.777
ProbeTrack12	6	ProbeTrack	11.3	WolfelabSpurzheim	20101022.100526	20101022.100929	8	0.011766	60	10	60-180	60	104	GapExp	0	41	2	3	0	distractor	1	343	829	62016	11.765	11.754	11.776
ProbeTrack12	6	ProbeTrack	11.3	WolfelabSpurzheim	20101022.100526	20101022.100935	8	0.011766	60	0	60-180	60	74	GapExp	0	42	2	1	0	distractor	1	520	740	62756	11.765	11.755	11.777
ProbeTrack12	6	ProbeTrack	11.3	WolfelabSpurzheim	20101022.100526	20101022.100940	8	0.011766	60	0	60-180	60	162	GapExp	0	43	2	3	1	target	1	332	834	63590	11.765	11.754	11.775
ProbeTrack12	6	ProbeTrack	11.3	WolfelabSpurzheim	20101022.100526	20101022.100946	8	0.011766	60	10	60-180	60	127	GapExp	0	44	2	1	0	distractor	1	344	828	64418	11.765	11.756	11.775
ProbeTrack12	6	ProbeTrack	11.3	WolfelabSpurzheim	20101022.100526	20101022.100951	8	0.011766	60	0	60-180	60	138	GapExp	0	45	2	3	1	target	1	273	864	65282	11.765	11.753	11.778
ProbeTrack12	6	ProbeTrack	11.3	WolfelabSpurzheim	20101022.100526	20101022.100957	8	0.011766	60	10	60-180	60	98	GapExp	0	46	2	0	0	distractor	1	402	799	66081	11.765	11.755	11.776
ProbeTrack12	6	ProbeTrack	11.3	WolfelabSpurzheim	20101022.100526	20101022.101002	8	0.011766	60	0	60-180	60	126	GapExp	0	47	2	1	1	target	1	320	840	66921	11.765	11.753	11.778
ProbeTrack12	6	ProbeTrack	11.3	WolfelabSpurzheim	20101022.100526	20101022.101007	8	0.011766	60	10	60-180	60	131	GapExp	0	48	2	45	1	distractor	0	391	-1000	65921	11.765	11.743	11.786
ProbeTrack12	6	ProbeTrack	11.3	WolfelabSpurzheim	20101022.100526	20101022.101014	8	0.011766	60	0	60-180	60	151	GapExp	0	49	2	3	0	distractor	1	449	776	66697	11.765	11.697	11.832
ProbeTrack12	6	ProbeTrack	11.3	WolfelabSpurzheim	20101022.100526	20101022.101020	8	0.011766	60	10	60-180	60	61	GapExp	0	50	2	1	1	target	1	343	829	67526	11.765	11.754	11.776
ProbeTrack12	6	ProbeTrack	11.3	WolfelabSpurzheim	20101022.100526	20101022.101025	8	0.011766	60	10	60-180	60	74	GapExp	0	51	2	45	1	target	1	390	805	68331	11.765	11.754	11.777
ProbeTrack12	6	ProbeTrack	11.3	WolfelabSpurzheim	20101022.100526	20101022.101031	8	0.011766	60	10	60-180	60	75	GapExp	0	52	2	45	1	target	1	343	829	69160	11.765	11.753	11.775
ProbeTrack12	6	ProbeTrack	11.3	WolfelabSpurzheim	20101022.100526	20101022.101036	8	0.011766	60	10	60-180	60	103	GapExp	0	53	2	45	0	distractor	1	449	776	69936	11.765	11.753	11.778
ProbeTrack12	6	ProbeTrack	11.3	WolfelabSpurzheim	20101022.100526	20101022.101044	8	0.011766	60	10	60-180	60	129	GapExp	0	54	2	3	0	distractor	1	379	811	70747	11.765	11.753	11.776
ProbeTrack12	6	ProbeTrack	11.3	WolfelabSpurzheim	20101022.100526	20101022.101050	8	0.011766	60	10	60-180	60	101	GapExp	0	55	2	0	1	target	1	390	805	71552	11.765	11.753	11.775
ProbeTrack12	6	ProbeTrack	11.3	WolfelabSpurzheim	20101022.100526	20101022.101055	8	0.011766	60	10	60-180	60	163	GapExp	0	56	2	1	1	target	1	296	852	72404	11.765	11.755	11.777
ProbeTrack12	6	ProbeTrack	11.3	WolfelabSpurzheim	20101022.100526	20101022.101101	8	0.011766	60	10	60-180	60	123	GapExp	0	57	2	3	1	target	1	320	840	73244	11.765	11.754	11.777
ProbeTrack12	6	ProbeTrack	11.3	WolfelabSpurzheim	20101022.100526	20101022.101107	8	0.011766	60	10	60-180	60	94	GapExp	0	58	2	1	0	distractor	1	485	758	74002	11.765	11.754	11.775
ProbeTrack12	6	ProbeTrack	11.3	WolfelabSpurzheim	20101022.100526	20101022.101112	8	0.011766	60	0	60-180	60	99	GapExp	0	59	2	3	0	distractor	1	555	723	74725	11.765	11.746	11.785
ProbeTrack12	6	ProbeTrack	11.3	WolfelabSpurzheim	20101022.100526	20101022.101118	8	0.011766	60	0	60-180	60	74	GapExp	0	60	2	45	1	target	1	355	823	75548	11.765	11.755	11.776
ProbeTrack12	6	ProbeTrack	11.3	WolfelabSpurzheim	20101022.100526	20101022.101123	8	0.011766	60	0	60-180	60	152	GapExp	0	61	2	1	1	target	1	390	805	76353	11.765	11.746	11.793
ProbeTrack12	6	ProbeTrack	11.3	WolfelabSpurzheim	20101022.100526	20101022.101129	8	0.011766	60	10	60-180	60	117	GapExp	0	62	2	3	0	distractor	1	461	770	77123	11.765	11.755	11.777
ProbeTrack12	6	ProbeTrack	11.3	WolfelabSpurzheim	20101022.100526	20101022.101135	8	0.011766	60	0	60-180	60	157	GapExp	0	63	2	0	1	target	1	649	676	77799	11.765	11.753	11.776
ProbeTrack12	6	ProbeTrack	11.3	WolfelabSpurzheim	20101022.100526	20101022.101141	8	0.011766	60	0	60-180	60	100	GapExp	0	64	2	0	1	target	1	437	782	78581	11.765	11.754	11.777
ProbeTrack12	6	ProbeTrack	11.3	WolfelabSpurzheim	20101022.100526	20101022.101146	8	0.011766	60	10	60-180	60	150	GapExp	0	65	2	3	0	distractor	1	438	781	79362	11.765	11.753	11.776
ProbeTrack12	6	ProbeTrack	11.3	WolfelabSpurzheim	20101022.100526	20101022.101152	8	0.011766	60	0	60-180	60	125	GapExp	0	66	2	0	1	target	1	285	858	80220	11.765	11.753	11.776
ProbeTrack12	6	ProbeTrack	11.3	WolfelabSpurzheim	20101022.100526	20101022.101158	8	0.011766	60	0	60-180	60	120	GapExp	0	67	2	1	0	distractor	1	426	787	81007	11.765	11.743	11.797
ProbeTrack12	6	ProbeTrack	11.3	WolfelabSpurzheim	20101022.100526	20101022.101203	8	0.011766	60	10	60-180	60	105	GapExp	0	68	2	45	1	target	1	344	828	81835	11.765	11.752	11.776
ProbeTrack12	6	ProbeTrack	11.3	WolfelabSpurzheim	20101022.100526	20101022.101209	8	0.011766	60	0	60-180	60	93	GapExp	0	69	2	0	0	distractor	1	379	811	82646	11.765	11.754	11.777
ProbeTrack12	6	ProbeTrack	11.3	WolfelabSpurzheim	20101022.100526	20101022.101214	8	0.011766	60	0	60-180	60	72	GapExp	0	70	2	1	0	distractor	1	473	764	83410	11.765	11.755	11.774
ProbeTrack12	6	ProbeTrack	11.3	WolfelabSpurzheim	20101022.100526	20101022.101219	8	0.011766	60	10	60-180	60	105	GapExp	0	71	2	45	0	distractor	1	426	787	84197	11.765	11.753	11.776
ProbeTrack12	6	ProbeTrack	11.3	WolfelabSpurzheim	20101022.100526	20101022.101225	8	0.011766	60	0	60-180	60	67	GapExp	0	72	2	45	1	target	1	402	799	84996	11.765	11.738	11.794
ProbeTrack12	6	ProbeTrack	11.3	WolfelabSpurzheim	20101022.100526	20101022.101230	8	0.011766	60	10	60-180	60	98	GapExp	0	73	2	0	0	distractor	1	355	823	85819	11.765	11.754	11.777
ProbeTrack12	6	ProbeTrack	11.3	WolfelabSpurzheim	20101022.100526	20101022.101235	8	0.011766	60	0	60-180	60	131	GapExp	0	74	2	1	0	distractor	1	391	805	86624	11.765	11.754	11.776
ProbeTrack12	6	ProbeTrack	11.3	WolfelabSpurzheim	20101022.100526	20101022.101241	8	0.011766	60	0	60-180	60	145	GapExp	0	75	2	3	1	target	1	355	823	87447	11.765	11.754	11.777
ProbeTrack12	6	ProbeTrack	11.3	WolfelabSpurzheim	20101022.100526	20101022.101247	8	0.011766	60	0	60-180	60	102	GapExp	0	76	2	3	0	distractor	1	343	829	88276	11.821	11.754	23.542
ProbeTrack12	6	ProbeTrack	11.3	WolfelabSpurzheim	20101022.100526	20101022.101252	8	0.011766	60	10	60-180	60	134	GapExp	0	77	2	0	0	target	0	849	-1000	87276	11.765	11.753	11.776
ProbeTrack12	6	ProbeTrack	11.3	WolfelabSpurzheim	20101022.100526	20101022.101258	8	0.011766	60	0	60-180	60	128	GapExp	0	78	2	0	0	distractor	1	485	758	88034	11.765	11.740	11.792
ProbeTrack12	6	ProbeTrack	11.3	WolfelabSpurzheim	20101022.100526	20101022.101305	8	0.011766	60	0	60-180	60	150	GapExp	0	79	2	3	1	target	1	403	799	88833	11.765	11.709	11.823
ProbeTrack12	6	ProbeTrack	11.3	WolfelabSpurzheim	20101022.100526	20101022.101311	8	0.011766	60	10	60-180	60	84	GapExp	0	80	2	45	1	target	1	332	834	89667	11.765	11.755	11.775
ProbeTrack12	6	ProbeTrack	11.3	WolfelabSpurzheim	20101022.100526	20101022.101316	8	0.011766	60	0	60-180	60	126	GapExp	0	81	2	3	1	target	1	344	828	90495	11.765	11.753	11.776
ProbeTrack12	6	ProbeTrack	11.3	WolfelabSpurzheim	20101022.100526	20101022.101323	8	0.011766	60	10	60-180	60	129	GapExp	0	82	2	45	0	distractor	1	450	775	91270	11.765	11.754	11.776
ProbeTrack12	6	ProbeTrack	11.3	WolfelabSpurzheim	20101022.100526	20101022.101329	8	0.011766	60	10	60-180	60	139	GapExp	0	83	2	1	1	target	1	437	782	92052	11.765	11.727	11.805
ProbeTrack12	6	ProbeTrack	11.3	WolfelabSpurzheim	20101022.100526	20101022.101335	8	0.011766	60	10	60-180	60	166	GapExp	0	84	2	45	0	distractor	1	449	776	92828	11.765	11.715	11.817
ProbeTrack12	6	ProbeTrack	11.3	WolfelabSpurzheim	20101022.100526	20101022.101342	8	0.011766	60	0	60-180	60	159	GapExp	0	85	2	0	0	distractor	1	449	776	93604	11.765	11.755	11.776
ProbeTrack12	6	ProbeTrack	11.3	WolfelabSpurzheim	20101022.100526	20101022.101348	8	0.011766	60	0	60-180	60	67	GapExp	0	86	2	0	0	distractor	1	743	629	94233	11.765	11.740	11.785
ProbeTrack12	6	ProbeTrack	11.3	WolfelabSpurzheim	20101022.100526	20101022.101354	8	0.011766	60	10	60-180	60	66	GapExp	0	87	2	0	1	target	1	379	811	95044	11.765	11.755	11.776
ProbeTrack12	6	ProbeTrack	11.3	WolfelabSpurzheim	20101022.100526	20101022.101358	8	0.011766	60	10	60-180	60	161	GapExp	0	88	2	1	1	target	1	344	828	95872	11.765	11.754	11.776
ProbeTrack12	6	ProbeTrack	11.3	WolfelabSpurzheim	20101022.100526	20101022.101405	8	0.011766	60	0	60-180	60	67	GapExp	0	89	2	0	1	target	1	367	817	96689	11.765	11.754	11.775
ProbeTrack12	6	ProbeTrack	11.3	WolfelabSpurzheim	20101022.100526	20101022.101410	8	0.011766	60	10	60-180	60	176	GapExp	0	90	2	3	1	target	1	320	840	97529	11.765	11.755	11.776
ProbeTrack12	6	ProbeTrack	11.3	WolfelabSpurzheim	20101022.100526	20101022.101416	8	0.011766	60	10	60-180	60	67	GapExp	0	91	2	1	0	target	0	543	-1000	96529	11.765	11.755	11.777
ProbeTrack12	6	ProbeTrack	11.3	WolfelabSpurzheim	20101022.100526	20101022.101421	8	0.011766	60	0	60-180	60	79	GapExp	0	92	2	0	0	distractor	1	520	740	97269	11.765	11.740	11.794
ProbeTrack12	6	ProbeTrack	11.3	WolfelabSpurzheim	20101022.100526	20101022.101426	8	0.011766	60	0	60-180	60	115	GapExp	0	93	2	1	0	distractor	1	767	617	97886	11.765	11.751	11.776
ProbeTrack12	6	ProbeTrack	11.3	WolfelabSpurzheim	20101022.100526	20101022.101432	8	0.011766	60	0	60-180	60	136	GapExp	0	94	2	0	0	distractor	1	426	787	98673	11.765	11.733	11.797
ProbeTrack12	6	ProbeTrack	11.3	WolfelabSpurzheim	20101022.100526	20101022.101438	8	0.011766	60	0	60-180	60	126	GapExp	0	95	2	3	0	distractor	1	402	799	99472	11.765	11.755	11.775
ProbeTrack12	6	ProbeTrack	11.3	WolfelabSpurzheim	20101022.100526	20101022.101444	8	0.011766	60	0	60-180	60	76	GapExp	0	96	2	45	0	distractor	1	379	811	100283	11.765	11.754	11.778
ProbeTrack12	6	ProbeTrack	11.3	WolfelabSpurzheim	20101022.100526	20101022.101450	8	0.011766	60	10	60-180	60	117	GapExp	0	97	2	1	0	distractor	1	355	823	101106	11.765	11.754	11.775
ProbeTrack12	6	ProbeTrack	11.3	WolfelabSpurzheim	20101022.100526	20101022.101456	8	0.011766	60	10	60-180	60	95	GapExp	0	98	2	0	0	distractor	1	672	664	101770	11.765	11.755	11.776
ProbeTrack12	6	ProbeTrack	11.3	WolfelabSpurzheim	20101022.100526	20101022.101501	8	0.011766	60	10	60-180	60	154	GapExp	0	99	2	1	1	target	1	355	823	102593	11.765	11.754	11.776
ProbeTrack12	6	ProbeTrack	11.3	WolfelabSpurzheim	20101022.100526	20101022.101507	8	0.011766	60	10	60-180	60	121	GapExp	0	100	2	0	0	distractor	1	379	811	103404	11.765	11.755	11.778
ProbeTrack12	6	ProbeTrack	11.3	WolfelabSpurzheim	20101022.100526	20101022.101515	8	0.011766	60	0	60-180	60	152	GapExp	0	101	2	3	0	distractor	1	450	775	104179	11.765	11.753	11.776
ProbeTrack12	6	ProbeTrack	11.3	WolfelabSpurzheim	20101022.100526	20101022.101535	8	0.011766	60	0	60-180	60	99	GapExp	0	102	2	1	1	target	1	332	834	105013	11.765	11.754	11.776
ProbeTrack12	6	ProbeTrack	11.3	WolfelabSpurzheim	20101022.100526	20101022.101540	8	0.011766	60	10	60-180	60	147	GapExp	0	103	2	0	1	target	1	461	770	105783	11.765	11.753	11.777
ProbeTrack12	6	ProbeTrack	11.3	WolfelabSpurzheim	20101022.100526	20101022.101546	8	0.011766	60	10	60-180	60	96	GapExp	0	104	2	1	1	target	1	379	811	106594	11.765	11.753	11.777
ProbeTrack12	6	ProbeTrack	11.3	WolfelabSpurzheim	20101022.100526	20101022.101551	8	0.011766	60	10	60-180	60	111	GapExp	0	105	2	3	1	target	1	308	846	107440	11.765	11.755	11.776
ProbeTrack12	6	ProbeTrack	11.3	WolfelabSpurzheim	20101022.100526	20101022.101557	8	0.011766	60	0	60-180	60	158	GapExp	0	106	2	0	1	target	1	285	858	108298	11.765	11.753	11.775
ProbeTrack12	6	ProbeTrack	11.3	WolfelabSpurzheim	20101022.100526	20101022.101603	8	0.011766	60	0	60-180	60	103	GapExp	0	107	2	45	0	distractor	1	438	781	109079	11.765	11.753	11.776
ProbeTrack12	6	ProbeTrack	11.3	WolfelabSpurzheim	20101022.100526	20101022.101608	8	0.011766	60	0	60-180	60	163	GapExp	0	108	2	3	0	distractor	1	449	776	109855	11.765	11.751	11.782
ProbeTrack12	6	ProbeTrack	11.3	WolfelabSpurzheim	20101022.100526	20101022.101615	8	0.011766	60	0	60-180	60	108	GapExp	0	109	2	1	0	distractor	1	461	770	110625	11.765	11.754	11.776
ProbeTrack12	6	ProbeTrack	11.3	WolfelabSpurzheim	20101022.100526	20101022.101620	8	0.011766	60	0	60-180	60	135	GapExp	0	110	2	3	1	target	1	332	834	111459	11.765	11.754	11.776
ProbeTrack12	6	ProbeTrack	11.3	WolfelabSpurzheim	20101022.100526	20101022.101626	8	0.011766	60	0	60-180	60	145	GapExp	0	111	2	45	0	distractor	1	449	776	112235	11.765	11.754	11.776
ProbeTrack12	6	ProbeTrack	11.3	WolfelabSpurzheim	20101022.100526	20101022.101632	8	0.011766	60	0	60-180	60	93	GapExp	0	112	2	0	0	distractor	1	485	758	112993	11.765	11.753	11.776
ProbeTrack12	6	ProbeTrack	11.3	WolfelabSpurzheim	20101022.100526	20101022.101637	8	0.011766	60	0	60-180	60	64	GapExp	0	113	2	0	1	target	1	367	817	113810	11.765	11.754	11.776
ProbeTrack12	6	ProbeTrack	11.3	WolfelabSpurzheim	20101022.100526	20101022.101642	8	0.011766	60	10	60-180	60	75	GapExp	0	114	2	1	0	distractor	1	344	828	114638	11.765	11.755	11.776
ProbeTrack12	6	ProbeTrack	11.3	WolfelabSpurzheim	20101022.100526	20101022.101647	8	0.011766	60	0	60-180	60	112	GapExp	0	115	2	0	0	distractor	1	367	817	115455	11.765	11.754	11.776
ProbeTrack12	6	ProbeTrack	11.3	WolfelabSpurzheim	20101022.100526	20101022.101652	8	0.011766	60	10	60-180	60	89	GapExp	0	116	2	0	1	target	1	532	734	116189	11.765	11.754	11.776
ProbeTrack12	6	ProbeTrack	11.3	WolfelabSpurzheim	20101022.100526	20101022.101658	8	0.011766	60	0	60-180	60	170	GapExp	0	117	2	1	1	target	1	296	852	117041	11.765	11.733	11.791
ProbeTrack12	6	ProbeTrack	11.3	WolfelabSpurzheim	20101022.100526	20101022.101704	8	0.011766	60	10	60-180	60	129	GapExp	0	118	2	3	0	distractor	1	379	811	117852	11.765	11.754	11.776
ProbeTrack12	6	ProbeTrack	11.3	WolfelabSpurzheim	20101022.100526	20101022.101709	8	0.011766	60	10	60-180	60	155	GapExp	0	119	2	45	1	target	1	367	817	118669	11.765	11.755	11.776
ProbeTrack12	6	ProbeTrack	11.3	WolfelabSpurzheim	20101022.100526	20101022.101716	8	0.011766	60	10	60-180	60	121	GapExp	0	120	2	0	1	target	1	367	817	119486	11.765	11.755	11.776
ProbeTrack12	6	ProbeTrack	11.3	WolfelabSpurzheim	20101022.100526	20101022.101721	8	0.011766	60	0	60-180	60	174	GapExp	0	121	2	45	0	distractor	1	414	793	120279	11.765	11.709	11.814
ProbeTrack12	6	ProbeTrack	11.3	WolfelabSpurzheim	20101022.100526	20101022.101728	8	0.011766	60	10	60-180	60	127	GapExp	0	122	2	3	0	distractor	1	520	740	121019	11.765	11.753	11.775
ProbeTrack12	6	ProbeTrack	11.3	WolfelabSpurzheim	20101022.100526	20101022.101734	8	0.011766	60	0	60-180	60	116	GapExp	0	123	2	45	1	target	1	285	858	121877	11.765	11.754	11.776
ProbeTrack12	6	ProbeTrack	11.3	WolfelabSpurzheim	20101022.100526	20101022.101740	8	0.011766	60	0	60-180	60	176	GapExp	0	124	2	1	1	target	1	367	817	122694	11.765	11.754	11.775
ProbeTrack12	6	ProbeTrack	11.3	WolfelabSpurzheim	20101022.100526	20101022.101746	8	0.011766	60	10	60-180	60	103	GapExp	0	125	2	0	0	distractor	1	437	782	123476	11.765	11.753	11.776
ProbeTrack12	6	ProbeTrack	11.3	WolfelabSpurzheim	20101022.100526	20101022.101751	8	0.011766	60	0	60-180	60	64	GapExp	0	126	2	45	0	distractor	1	450	775	124251	11.765	11.754	11.777
ProbeTrack12	6	ProbeTrack	11.3	WolfelabSpurzheim	20101022.100526	20101022.101757	8	0.011766	60	10	60-180	60	136	GapExp	0	127	2	0	1	target	1	355	823	125074	11.765	11.740	11.798
ProbeTrack12	6	ProbeTrack	11.3	WolfelabSpurzheim	20101022.100526	20101022.101803	8	0.011766	60	0	60-180	60	111	GapExp	0	128	2	3	1	target	1	308	846	125920	11.765	11.754	11.777
ProbeTrack12	6	ProbeTrack	11.3	WolfelabSpurzheim	20101022.100526	20101022.101808	8	0.011766	60	10	60-180	60	110	GapExp	0	129	2	3	1	target	1	508	746	126666	11.765	11.754	11.776
ProbeTrack12	6	ProbeTrack	11.3	WolfelabSpurzheim	20101022.100526	20101022.101814	8	0.011766	60	10	60-180	60	69	GapExp	0	130	2	45	0	distractor	1	438	781	127447	11.765	11.754	11.777
ProbeTrack12	6	ProbeTrack	11.3	WolfelabSpurzheim	20101022.100526	20101022.101819	8	0.011766	60	10	60-180	60	67	GapExp	0	131	2	3	1	target	1	332	834	128281	11.765	11.754	11.775
ProbeTrack12	6	ProbeTrack	11.3	WolfelabSpurzheim	20101022.100526	20101022.101824	8	0.011766	60	10	60-180	60	154	GapExp	0	132	2	45	0	distractor	1	438	781	129062	11.765	11.744	11.784
ProbeTrack12	6	ProbeTrack	11.3	WolfelabSpurzheim	20101022.100526	20101022.101831	8	0.011766	60	10	60-180	60	119	GapExp	0	133	2	45	0	distractor	1	485	758	129820	11.765	11.754	11.777
ProbeTrack12	6	ProbeTrack	11.3	WolfelabSpurzheim	20101022.100526	20101022.101837	8	0.011766	60	0	60-180	60	109	GapExp	0	134	2	45	0	distractor	1	473	764	130584	11.765	11.753	11.776
ProbeTrack12	6	ProbeTrack	11.3	WolfelabSpurzheim	20101022.100526	20101022.101842	8	0.011766	60	0	60-180	60	101	GapExp	0	135	2	0	0	distractor	1	355	823	131407	11.765	11.753	11.775
ProbeTrack12	6	ProbeTrack	11.3	WolfelabSpurzheim	20101022.100526	20101022.101848	8	0.011766	60	10	60-180	60	143	GapExp	0	136	2	1	0	distractor	1	391	805	132212	11.765	11.754	11.777
ProbeTrack12	6	ProbeTrack	11.3	WolfelabSpurzheim	20101022.100526	20101022.101854	8	0.011766	60	10	60-180	60	138	GapExp	0	137	2	1	0	distractor	1	402	799	133011	11.765	11.754	11.778
ProbeTrack12	6	ProbeTrack	11.3	WolfelabSpurzheim	20101022.100526	20101022.101900	8	0.011766	60	0	60-180	60	146	GapExp	0	138	2	45	0	distractor	1	426	787	133798	11.765	11.754	11.776
ProbeTrack12	6	ProbeTrack	11.3	WolfelabSpurzheim	20101022.100526	20101022.101906	8	0.011766	60	10	60-180	60	74	GapExp	0	139	2	1	1	target	1	320	840	134638	11.765	11.755	11.778
ProbeTrack12	6	ProbeTrack	11.3	WolfelabSpurzheim	20101022.100526	20101022.101911	8	0.011766	60	0	60-180	60	103	GapExp	0	140	2	0	0	distractor	1	402	799	135437	11.765	11.754	11.776
ProbeTrack12	6	ProbeTrack	11.3	WolfelabSpurzheim	20101022.100526	20101022.101916	8	0.011766	60	0	60-180	60	123	GapExp	0	141	2	1	1	distractor	0	414	-1000	134437	11.765	11.756	11.776
ProbeTrack12	6	ProbeTrack	11.3	WolfelabSpurzheim	20101022.100526	20101022.101924	8	0.011766	60	0	60-180	60	151	GapExp	0	142	2	45	1	target	1	426	787	135224	11.765	11.753	11.777
ProbeTrack12	6	ProbeTrack	11.3	WolfelabSpurzheim	20101022.100526	20101022.101930	8	0.011766	60	0	60-180	60	121	GapExp	0	143	2	45	0	distractor	1	450	775	135999	11.765	11.754	11.777
ProbeTrack12	6	ProbeTrack	11.3	WolfelabSpurzheim	20101022.100526	20101022.101936	8	0.011766	60	10	60-180	60	71	GapExp	0	144	2	0	1	distractor	0	778	-1000	134999	11.765	11.754	11.775
ProbeTrack12	6	ProbeTrack	11.3	WolfelabSpurzheim	20101022.100526	20101022.101942	8	0.011766	60	0	60-180	60	98	GapExp	0	145	2	0	1	target	1	367	817	135816	11.765	11.755	11.776
ProbeTrack12	6	ProbeTrack	11.3	WolfelabSpurzheim	20101022.100526	20101022.101947	8	0.011766	60	10	60-180	60	91	GapExp	0	146	2	45	0	distractor	1	485	758	136574	11.765	11.754	11.776
ProbeTrack12	6	ProbeTrack	11.3	WolfelabSpurzheim	20101022.100526	20101022.101953	8	0.011766	60	0	60-180	60	147	GapExp	0	147	2	3	1	target	1	296	852	137426	11.765	11.754	11.777
ProbeTrack12	6	ProbeTrack	11.3	WolfelabSpurzheim	20101022.100526	20101022.101958	8	0.011766	60	10	60-180	60	108	GapExp	0	148	2	45	1	target	1	343	829	138255	11.765	11.754	11.776
ProbeTrack12	6	ProbeTrack	11.3	WolfelabSpurzheim	20101022.100526	20101022.102004	8	0.011766	60	0	60-180	60	79	GapExp	0	149	2	45	0	distractor	1	473	764	139019	11.765	11.754	11.777
ProbeTrack12	6	ProbeTrack	11.3	WolfelabSpurzheim	20101022.100526	20101022.102010	8	0.011766	60	0	60-180	60	107	GapExp	0	150	2	3	0	distractor	1	508	746	139765	11.765	11.753	11.775
ProbeTrack12	6	ProbeTrack	11.3	WolfelabSpurzheim	20101022.100526	20101022.102015	8	0.011766	60	10	60-180	60	122	GapExp	0	151	2	45	0	distractor	1	461	770	140535	11.765	11.754	11.776
ProbeTrack12	6	ProbeTrack	11.3	WolfelabSpurzheim	20101022.100526	20101022.102021	8	0.011766	60	10	60-180	60	140	GapExp	0	152	2	3	0	distractor	1	449	776	141311	11.765	11.754	11.779
ProbeTrack12	6	ProbeTrack	11.3	WolfelabSpurzheim	20101022.100526	20101022.102027	8	0.011766	60	10	60-180	60	95	GapExp	0	153	2	0	1	target	1	402	799	142110	11.765	11.754	11.776
ProbeTrack12	6	ProbeTrack	11.3	WolfelabSpurzheim	20101022.100526	20101022.102032	8	0.011766	60	0	60-180	60	118	GapExp	0	154	2	3	0	distractor	1	450	775	142885	11.765	11.754	11.777
ProbeTrack12	6	ProbeTrack	11.3	WolfelabSpurzheim	20101022.100526	20101022.102038	8	0.011766	60	10	60-180	60	178	GapExp	0	155	2	45	0	distractor	1	449	776	143661	11.765	11.753	11.775
ProbeTrack12	6	ProbeTrack	11.3	WolfelabSpurzheim	20101022.100526	20101022.102045	8	0.011766	60	0	60-180	60	140	GapExp	0	156	2	45	0	distractor	1	414	793	144454	11.765	11.754	11.777
ProbeTrack12	6	ProbeTrack	11.3	WolfelabSpurzheim	20101022.100526	20101022.102052	8	0.011766	60	0	60-180	60	62	GapExp	0	157	2	1	0	distractor	1	555	723	145177	11.765	11.741	11.783
ProbeTrack12	6	ProbeTrack	11.3	WolfelabSpurzheim	20101022.100526	20101022.102056	8	0.011766	60	0	60-180	60	151	GapExp	0	158	2	45	0	distractor	1	532	734	145911	11.765	11.752	11.780
ProbeTrack12	6	ProbeTrack	11.3	WolfelabSpurzheim	20101022.100526	20101022.102103	8	0.011766	60	10	60-180	60	177	GapExp	0	159	2	45	1	target	1	320	840	146751	11.765	11.754	11.777
ProbeTrack12	6	ProbeTrack	11.3	WolfelabSpurzheim	20101022.100526	20101022.102110	8	0.011766	60	10	60-180	60	62	GapExp	0	160	2	0	1	target	1	402	799	147550	11.765	11.754	11.776
ProbeTrack12	6	ProbeTrack	11.3	WolfelabSpurzheim	20101022.100526	20101022.102115	8	0.011766	60	10	60-180	60	115	GapExp	0	161	2	1	0	distractor	1	367	817	148367	11.765	11.754	11.775
ProbeTrack12	6	ProbeTrack	11.3	WolfelabSpurzheim	20101022.100526	20101022.102120	8	0.011766	60	0	60-180	60	84	GapExp	0	162	2	1	1	target	1	379	811	149178	11.765	11.755	11.775
ProbeTrack12	6	ProbeTrack	11.3	WolfelabSpurzheim	20101022.100526	20101022.102125	8	0.011766	60	10	60-180	60	73	GapExp	0	163	2	3	1	distractor	0	320	-1000	148178	11.765	11.754	11.776
ProbeTrack12	6	ProbeTrack	11.3	WolfelabSpurzheim	20101022.100526	20101022.102131	8	0.011766	60	0	60-180	60	107	GapExp	0	164	2	1	1	target	1	343	829	149007	11.765	11.754	11.776
ProbeTrack12	6	ProbeTrack	11.3	WolfelabSpurzheim	20101022.100526	20101022.102136	8	0.011766	60	10	60-180	60	121	GapExp	0	165	2	1	1	target	1	391	805	149812	11.765	11.755	11.777
ProbeTrack12	6	ProbeTrack	11.3	WolfelabSpurzheim	20101022.100526	20101022.102142	8	0.011766	60	0	60-180	60	172	GapExp	0	166	2	45	1	target	1	438	781	150593	11.765	11.754	11.776
ProbeTrack12	6	ProbeTrack	11.3	WolfelabSpurzheim	20101022.100526	20101022.102148	8	0.011766	60	0	60-180	60	63	GapExp	0	167	2	1	1	target	1	367	817	151410	11.765	11.756	11.777
ProbeTrack12	6	ProbeTrack	11.3	WolfelabSpurzheim	20101022.100526	20101022.102154	8	0.011766	60	10	60-180	60	137	GapExp	0	168	2	45	1	target	1	367	817	152227	11.765	11.754	11.777
ProbeTrack12	6	ProbeTrack	11.3	WolfelabSpurzheim	20101022.100526	20101022.102200	8	0.011766	60	0	60-180	60	134	GapExp	0	169	2	1	0	distractor	1	508	746	152973	11.765	11.750	11.777
ProbeTrack12	6	ProbeTrack	11.3	WolfelabSpurzheim	20101022.100526	20101022.102206	8	0.011766	60	0	60-180	60	114	GapExp	0	170	2	3	1	target	1	402	799	153772	11.765	11.753	11.778
ProbeTrack12	6	ProbeTrack	11.3	WolfelabSpurzheim	20101022.100526	20101022.102211	8	0.011766	60	0	60-180	60	75	GapExp	0	171	2	0	1	target	1	343	829	154601	11.765	11.751	11.776
ProbeTrack12	6	ProbeTrack	11.3	WolfelabSpurzheim	20101022.100526	20101022.102216	8	0.011766	60	0	60-180	60	62	GapExp	0	172	2	3	1	target	1	332	834	155435	11.765	11.754	11.777
ProbeTrack12	6	ProbeTrack	11.3	WolfelabSpurzheim	20101022.100526	20101022.102221	8	0.011766	60	0	60-180	60	86	GapExp	0	173	2	0	0	distractor	1	438	781	156216	11.765	11.753	11.776
ProbeTrack12	6	ProbeTrack	11.3	WolfelabSpurzheim	20101022.100526	20101022.102226	8	0.011766	60	10	60-180	60	179	GapExp	0	174	2	0	1	target	1	308	846	157062	11.765	11.724	11.800
ProbeTrack12	6	ProbeTrack	11.3	WolfelabSpurzheim	20101022.100526	20101022.102232	8	0.011766	60	10	60-180	60	136	GapExp	0	175	2	3	0	distractor	1	415	793	157855	11.765	11.753	11.776
ProbeTrack12	6	ProbeTrack	11.3	WolfelabSpurzheim	20101022.100526	20101022.102238	8	0.011766	60	10	60-180	60	105	GapExp	0	176	2	3	1	target	1	320	840	158695	11.765	11.753	11.776
ProbeTrack12	6	ProbeTrack	11.3	WolfelabSpurzheim	20101022.100526	20101022.102243	8	0.011766	60	0	60-180	60	77	GapExp	0	177	2	1	0	distractor	1	391	805	159500	11.765	11.755	11.776
ProbeTrack12	6	ProbeTrack	11.3	WolfelabSpurzheim	20101022.100526	20101022.102248	8	0.011766	60	10	60-180	60	80	GapExp	0	178	2	3	0	distractor	1	379	811	160311	11.765	11.754	11.775
ProbeTrack12	6	ProbeTrack	11.3	WolfelabSpurzheim	20101022.100526	20101022.102253	8	0.011766	60	10	60-180	60	61	GapExp	0	179	2	1	0	distractor	1	438	781	161092	11.765	11.755	11.777
ProbeTrack12	6	ProbeTrack	11.3	WolfelabSpurzheim	20101022.100526	20101022.102258	8	0.011766	60	0	60-180	60	104	GapExp	0	180	2	45	0	distractor	1	473	764	161856	11.765	11.749	11.780
ProbeTrack12	6	ProbeTrack	11.3	WolfelabSpurzheim	20101022.100526	20101022.102304	8	0.011766	60	0	60-180	60	173	GapExp	0	181	2	3	0	distractor	1	461	770	162626	11.765	11.706	11.833
ProbeTrack12	6	ProbeTrack	11.3	WolfelabSpurzheim	20101022.100526	20101022.102311	8	0.011766	60	10	60-180	60	62	GapExp	0	182	2	0	1	target	1	426	787	163413	11.765	11.753	11.776
ProbeTrack12	6	ProbeTrack	11.3	WolfelabSpurzheim	20101022.100526	20101022.102316	8	0.011766	60	10	60-180	60	165	GapExp	0	183	2	1	1	distractor	0	955	-1000	162413	11.765	11.753	11.776
ProbeTrack12	6	ProbeTrack	11.3	WolfelabSpurzheim	20101022.100526	20101022.102322	8	0.011766	60	10	60-180	60	107	GapExp	0	184	2	0	0	target	0	343	-1000	161413	11.765	11.754	11.776
ProbeTrack12	6	ProbeTrack	11.3	WolfelabSpurzheim	20101022.100526	20101022.102328	8	0.011766	60	10	60-180	60	132	GapExp	0	185	2	0	0	distractor	1	449	776	162189	11.765	11.754	11.776
ProbeTrack12	6	ProbeTrack	11.3	WolfelabSpurzheim	20101022.100526	20101022.102334	8	0.011766	60	0	60-180	60	174	GapExp	0	186	2	45	0	distractor	1	426	787	162976	11.765	11.754	11.776
ProbeTrack12	6	ProbeTrack	11.3	WolfelabSpurzheim	20101022.100526	20101022.102341	8	0.011766	60	10	60-180	60	120	GapExp	0	187	2	0	0	distractor	1	485	758	163734	11.765	11.754	11.777
ProbeTrack12	6	ProbeTrack	11.3	WolfelabSpurzheim	20101022.100526	20101022.102346	8	0.011766	60	0	60-180	60	68	GapExp	0	188	2	1	1	target	1	379	811	164545	11.765	11.755	11.775
ProbeTrack12	6	ProbeTrack	11.3	WolfelabSpurzheim	20101022.100526	20101022.102351	8	0.011766	60	0	60-180	60	138	GapExp	0	189	2	45	1	target	1	379	811	165356	11.765	11.755	11.776
ProbeTrack12	6	ProbeTrack	11.3	WolfelabSpurzheim	20101022.100526	20101022.102357	8	0.011766	60	10	60-180	60	140	GapExp	0	190	2	45	1	target	1	355	823	166179	11.765	11.754	11.776
ProbeTrack12	6	ProbeTrack	11.3	WolfelabSpurzheim	20101022.100526	20101022.102403	8	0.011766	60	0	60-180	60	139	GapExp	0	191	2	3	1	target	1	332	834	167013	11.765	11.754	11.777
ProbeTrack12	6	ProbeTrack	11.3	WolfelabSpurzheim	20101022.100526	20101022.102409	8	0.011766	60	10	60-180	60	86	GapExp	0	192	2	0	0	distractor	1	426	787	167800	11.765	11.754	11.776
ProbeTrack12	6	ProbeTrack	11.3	WolfelabSpurzheim	20101022.100526	20101022.102414	8	0.011766	60	10	60-180	60	83	GapExp	0	193	2	0	1	target	1	437	782	168582	11.765	11.754	11.776
ProbeTrack12	6	ProbeTrack	11.3	WolfelabSpurzheim	20101022.100526	20101022.102419	8	0.011766	60	0	60-180	60	63	GapExp	0	194	2	1	0	distractor	1	543	729	169311	11.765	11.754	11.777
ProbeTrack12	6	ProbeTrack	11.3	WolfelabSpurzheim	20101022.100526	20101022.102424	8	0.011766	60	0	60-180	60	161	GapExp	0	195	2	0	0	distractor	1	555	723	170034	11.765	11.752	11.776
ProbeTrack12	6	ProbeTrack	11.3	WolfelabSpurzheim	20101022.100526	20101022.102430	8	0.011766	60	0	60-180	60	86	GapExp	0	196	2	3	0	distractor	1	402	799	170833	11.765	11.753	11.776
ProbeTrack12	6	ProbeTrack	11.3	WolfelabSpurzheim	20101022.100526	20101022.102436	8	0.011766	60	10	60-180	60	166	GapExp	0	197	2	0	0	distractor	1	485	758	171591	11.765	11.750	11.776
ProbeTrack12	6	ProbeTrack	11.3	WolfelabSpurzheim	20101022.100526	20101022.102442	8	0.011766	60	10	60-180	60	167	GapExp	0	198	2	1	0	distractor	1	461	770	172361	11.765	11.723	11.811
ProbeTrack12	6	ProbeTrack	11.3	WolfelabSpurzheim	20101022.100526	20101022.102448	8	0.011766	60	0	60-180	60	136	GapExp	0	199	2	0	0	distractor	1	402	799	173160	11.765	11.754	11.777
ProbeTrack12	6	ProbeTrack	11.3	WolfelabSpurzheim	20101022.100526	20101022.102454	8	0.011766	60	10	60-180	60	140	GapExp	0	200	2	45	1	distractor	0	590	-1000	172160	11.765	11.741	11.789
ProbeTrack12	6	ProbeTrack	11.3	WolfelabSpurzheim	20101022.100526	20101022.102500	8	0.011766	60	0	60-180	60	73	GapExp	0	201	2	0	1	target	1	332	834	172994	11.765	11.754	11.775
ProbeTrack12	6	ProbeTrack	11.3	WolfelabSpurzheim	20101022.100526	20101022.102615	8	0.011766	60	10	60-180	60	161	GapExp	0	202	2	3	1	target	1	285	858	173852	11.765	11.753	11.775
ProbeTrack12	6	ProbeTrack	11.3	WolfelabSpurzheim	20101022.100526	20101022.102621	8	0.011766	60	10	60-180	60	94	GapExp	0	203	2	3	0	distractor	1	379	811	174663	11.765	11.754	11.776
ProbeTrack12	6	ProbeTrack	11.3	WolfelabSpurzheim	20101022.100526	20101022.102626	8	0.011766	60	10	60-180	60	107	GapExp	0	204	2	3	0	distractor	1	343	829	175492	11.765	11.753	11.775
ProbeTrack12	6	ProbeTrack	11.3	WolfelabSpurzheim	20101022.100526	20101022.102631	8	0.011766	60	10	60-180	60	117	GapExp	0	205	2	1	1	target	1	320	840	176332	11.765	11.755	11.775
ProbeTrack12	6	ProbeTrack	11.3	WolfelabSpurzheim	20101022.100526	20101022.102637	8	0.011766	60	0	60-180	60	149	GapExp	0	206	2	1	1	target	1	343	829	177161	11.765	11.755	11.780
ProbeTrack12	6	ProbeTrack	11.3	WolfelabSpurzheim	20101022.100526	20101022.102643	8	0.011766	60	0	60-180	60	83	GapExp	0	207	2	45	1	target	1	285	858	178019	11.765	11.753	11.776
ProbeTrack12	6	ProbeTrack	11.3	WolfelabSpurzheim	20101022.100526	20101022.102648	8	0.011766	60	10	60-180	60	167	GapExp	0	208	2	3	1	target	1	284	858	178877	11.765	11.753	11.776
ProbeTrack12	6	ProbeTrack	11.3	WolfelabSpurzheim	20101022.100526	20101022.102654	8	0.011766	60	10	60-180	60	89	GapExp	0	209	2	1	0	distractor	1	367	817	179694	11.765	11.753	11.776
ProbeTrack12	6	ProbeTrack	11.3	WolfelabSpurzheim	20101022.100526	20101022.102659	8	0.011766	60	0	60-180	60	135	GapExp	0	210	2	45	1	target	1	285	858	180552	11.765	11.741	11.785
ProbeTrack12	6	ProbeTrack	11.3	WolfelabSpurzheim	20101022.100526	20101022.102705	8	0.011766	60	10	60-180	60	106	GapExp	0	211	2	1	1	target	1	297	852	181404	11.765	11.754	11.774
ProbeTrack12	6	ProbeTrack	11.3	WolfelabSpurzheim	20101022.100526	20101022.102711	8	0.011766	60	10	60-180	60	143	GapExp	0	212	2	0	1	target	1	414	793	182197	11.765	11.754	11.777
ProbeTrack12	6	ProbeTrack	11.3	WolfelabSpurzheim	20101022.100526	20101022.102717	8	0.011766	60	0	60-180	60	93	GapExp	0	213	2	45	1	target	1	296	852	183049	11.765	11.754	11.776
ProbeTrack12	6	ProbeTrack	11.3	WolfelabSpurzheim	20101022.100526	20101022.102722	8	0.011766	60	0	60-180	60	164	GapExp	0	214	2	3	1	target	1	296	852	183901	11.765	11.746	11.782
ProbeTrack12	6	ProbeTrack	11.3	WolfelabSpurzheim	20101022.100526	20101022.102728	8	0.011766	60	10	60-180	60	109	GapExp	0	215	2	1	0	target	0	308	-1000	182901	11.765	11.753	11.787
ProbeTrack12	6	ProbeTrack	11.3	WolfelabSpurzheim	20101022.100526	20101022.102734	8	0.011766	60	10	60-180	60	136	GapExp	0	216	2	3	0	distractor	1	520	740	183641	11.765	11.753	11.776
ProbeTrack12	6	ProbeTrack	11.3	WolfelabSpurzheim	20101022.100526	20101022.102740	8	0.011766	60	10	60-180	60	146	GapExp	0	217	2	3	1	target	1	367	817	184458	11.765	11.754	11.776
ProbeTrack12	6	ProbeTrack	11.3	WolfelabSpurzheim	20101022.100526	20101022.102746	8	0.011766	60	10	60-180	60	159	GapExp	0	218	2	45	0	distractor	1	414	793	185251	11.765	11.753	11.777
ProbeTrack12	6	ProbeTrack	11.3	WolfelabSpurzheim	20101022.100526	20101022.102752	8	0.011766	60	10	60-180	60	144	GapExp	0	219	2	45	1	target	1	356	822	186073	11.765	11.753	11.775
ProbeTrack12	6	ProbeTrack	11.3	WolfelabSpurzheim	20101022.100526	20101022.102759	8	0.011766	60	0	60-180	60	153	GapExp	0	220	2	0	1	target	1	414	793	186866	11.765	11.750	11.777
ProbeTrack12	6	ProbeTrack	11.3	WolfelabSpurzheim	20101022.100526	20101022.102805	8	0.011766	60	0	60-180	60	171	GapExp	0	221	2	0	1	distractor	0	391	-1000	185866	11.765	11.727	11.796
ProbeTrack12	6	ProbeTrack	11.3	WolfelabSpurzheim	20101022.100526	20101022.102811	8	0.011766	60	10	60-180	60	71	GapExp	0	222	2	45	1	target	1	356	822	186688	11.765	11.754	11.776
ProbeTrack12	6	ProbeTrack	11.3	WolfelabSpurzheim	20101022.100526	20101022.102817	8	0.011766	60	10	60-180	60	66	GapExp	0	223	2	0	0	distractor	1	555	723	187411	11.765	11.754	11.777
ProbeTrack12	6	ProbeTrack	11.3	WolfelabSpurzheim	20101022.100526	20101022.102822	8	0.011766	60	0	60-180	60	129	GapExp	0	224	2	45	1	target	1	355	823	188234	11.765	11.754	11.776
ProbeTrack12	6	ProbeTrack	11.3	WolfelabSpurzheim	20101022.100526	20101022.102828	8	0.011766	60	0	60-180	60	71	GapExp	0	225	2	1	1	target	1	414	793	189027	11.765	11.731	11.792
ProbeTrack12	6	ProbeTrack	11.3	WolfelabSpurzheim	20101022.100526	20101022.102833	8	0.011766	60	0	60-180	60	143	GapExp	0	226	2	0	1	target	1	390	805	189832	11.765	11.739	11.792
ProbeTrack12	6	ProbeTrack	11.3	WolfelabSpurzheim	20101022.100526	20101022.102839	8	0.011766	60	10	60-180	60	88	GapExp	0	227	2	1	0	distractor	1	473	764	190596	11.765	11.754	11.776
ProbeTrack12	6	ProbeTrack	11.3	WolfelabSpurzheim	20101022.100526	20101022.102844	8	0.011766	60	0	60-180	60	111	GapExp	0	228	2	1	0	distractor	1	426	787	191383	11.765	11.753	11.776
ProbeTrack12	6	ProbeTrack	11.3	WolfelabSpurzheim	20101022.100526	20101022.102850	8	0.011766	60	0	60-180	60	146	GapExp	0	229	2	0	1	target	1	343	829	192212	11.765	11.753	11.776
ProbeTrack12	6	ProbeTrack	11.3	WolfelabSpurzheim	20101022.100526	20101022.102856	8	0.011766	60	0	60-180	60	98	GapExp	0	230	2	45	1	target	1	355	823	193035	11.765	11.753	11.776
ProbeTrack12	6	ProbeTrack	11.3	WolfelabSpurzheim	20101022.100526	20101022.102901	8	0.011766	60	10	60-180	60	80	GapExp	0	231	2	45	0	distractor	1	485	758	193793	11.765	11.754	11.777
ProbeTrack12	6	ProbeTrack	11.3	WolfelabSpurzheim	20101022.100526	20101022.102907	8	0.011766	60	10	60-180	60	173	GapExp	0	232	2	0	0	target	0	426	-1000	192793	11.765	11.754	11.777
ProbeTrack12	6	ProbeTrack	11.3	WolfelabSpurzheim	20101022.100526	20101022.102914	8	0.011766	60	10	60-180	60	123	GapExp	0	233	2	1	1	target	1	356	822	193615	11.765	11.749	11.777
ProbeTrack12	6	ProbeTrack	11.3	WolfelabSpurzheim	20101022.100526	20101022.102920	8	0.011766	60	10	60-180	60	132	GapExp	0	234	2	1	0	distractor	1	567	717	194332	11.765	11.735	11.797
ProbeTrack12	6	ProbeTrack	11.3	WolfelabSpurzheim	20101022.100526	20101022.102925	8	0.011766	60	0	60-180	60	115	GapExp	0	235	2	1	0	distractor	1	449	776	195108	11.765	11.754	11.776
ProbeTrack12	6	ProbeTrack	11.3	WolfelabSpurzheim	20101022.100526	20101022.102931	8	0.011766	60	10	60-180	60	81	GapExp	0	236	2	1	1	target	1	614	693	195801	11.765	11.755	11.777
ProbeTrack12	6	ProbeTrack	11.3	WolfelabSpurzheim	20101022.100526	20101022.102936	8	0.011766	60	0	60-180	60	79	GapExp	0	237	2	45	1	target	1	355	823	196624	11.765	11.754	11.775
ProbeTrack12	6	ProbeTrack	11.3	WolfelabSpurzheim	20101022.100526	20101022.102942	8	0.011766	60	0	60-180	60	151	GapExp	0	238	2	1	1	target	1	332	834	197458	11.765	11.754	11.777
ProbeTrack12	6	ProbeTrack	11.3	WolfelabSpurzheim	20101022.100526	20101022.102948	8	0.011766	60	10	60-180	60	129	GapExp	0	239	2	45	0	target	0	485	-1000	196458	11.765	11.741	11.796
ProbeTrack12	6	ProbeTrack	11.3	WolfelabSpurzheim	20101022.100526	20101022.102954	8	0.011766	60	10	60-180	60	134	GapExp	0	240	2	45	0	distractor	1	766	617	197075	11.765	11.740	11.783
ProbeTrack12	6	ProbeTrack	11.3	WolfelabSpurzheim	20101022.100526	20101022.103002	8	0.011766	60	0	60-180	60	148	GapExp	0	241	2	3	1	target	1	402	799	197874	11.765	11.699	11.834
ProbeTrack12	6	ProbeTrack	11.3	WolfelabSpurzheim	20101022.100526	20101022.103008	8	0.011766	60	10	60-180	60	143	GapExp	0	242	2	45	0	distractor	1	532	734	198608	11.765	11.750	11.776
ProbeTrack12	6	ProbeTrack	11.3	WolfelabSpurzheim	20101022.100526	20101022.103016	8	0.011766	60	10	60-180	60	69	GapExp	0	243	2	3	0	distractor	1	497	752	199360	11.765	11.752	11.776
ProbeTrack12	6	ProbeTrack	11.3	WolfelabSpurzheim	20101022.100526	20101022.103022	8	0.011766	60	0	60-180	60	120	GapExp	0	244	2	1	0	distractor	1	426	787	200147	11.765	11.754	11.775
ProbeTrack12	6	ProbeTrack	11.3	WolfelabSpurzheim	20101022.100526	20101022.103028	8	0.011766	60	10	60-180	60	158	GapExp	0	245	2	1	0	distractor	1	426	787	200934	11.765	11.729	11.777
ProbeTrack12	6	ProbeTrack	11.3	WolfelabSpurzheim	20101022.100526	20101022.103034	8	0.011766	60	0	60-180	60	106	GapExp	0	246	2	3	1	target	1	367	817	201751	11.765	11.742	11.788
ProbeTrack12	6	ProbeTrack	11.3	WolfelabSpurzheim	20101022.100526	20101022.103041	8	0.011766	60	10	60-180	60	148	GapExp	0	247	2	3	1	target	1	367	817	202568	11.765	11.753	11.777
ProbeTrack12	6	ProbeTrack	11.3	WolfelabSpurzheim	20101022.100526	20101022.103048	8	0.011766	60	10	60-180	60	90	GapExp	0	248	2	0	1	target	1	402	799	203367	11.765	11.754	11.776
ProbeTrack12	6	ProbeTrack	11.3	WolfelabSpurzheim	20101022.100526	20101022.103053	8	0.011766	60	0	60-180	60	106	GapExp	0	249	2	3	1	target	1	355	823	204190	11.765	11.754	11.778
ProbeTrack12	6	ProbeTrack	11.3	WolfelabSpurzheim	20101022.100526	20101022.103059	8	0.011766	60	0	60-180	60	175	GapExp	0	250	2	3	0	distractor	1	532	734	204924	11.765	11.717	11.808
ProbeTrack12	6	ProbeTrack	11.3	WolfelabSpurzheim	20101022.103146	20101022.103159	8	0.011765	60	10	60-180	60	165	GapExp	1	1	2	0	1	target	1	367	817	205741	11.890	11.755	23.536
ProbeTrack12	6	ProbeTrack	11.3	WolfelabSpurzheim	20101022.103146	20101022.103206	8	0.011765	60	0	60-180	60	105	GapExp	1	2	2	3	0	distractor	1	438	781	206522	11.818	11.738	23.536
ProbeTrack12	6	ProbeTrack	11.3	WolfelabSpurzheim	20101022.103146	20101022.103218	8	0.011765	60	0	60-180	60	84	GapExp	1	3	2	1	0	distractor	1	508	746	207268	11.765	11.755	11.775
ProbeTrack12	6	ProbeTrack	11.3	WolfelabSpurzheim	20101022.103146	20101022.103224	8	0.011765	60	10	60-180	60	68	GapExp	1	4	2	1	0	distractor	1	414	793	208061	11.765	11.753	11.775
ProbeTrack12	6	ProbeTrack	11.3	WolfelabSpurzheim	20101022.103146	20101022.103229	8	0.011765	60	0	60-180	60	89	GapExp	1	5	2	1	1	target	1	438	781	208842	11.880	11.754	11.776
ProbeTrack12	6	ProbeTrack	11.3	WolfelabSpurzheim	20101022.103146	20101022.103235	8	0.011765	60	0	60-180	60	155	GapExp	1	6	2	45	1	target	1	320	840	209682	11.765	11.753	11.776
ProbeTrack12	6	ProbeTrack	11.3	WolfelabSpurzheim	20101022.103146	20101022.103241	8	0.011765	60	0	60-180	60	80	GapExp	1	7	2	0	0	distractor	1	427	787	210469	11.765	11.754	11.776
ProbeTrack12	6	ProbeTrack	11.3	WolfelabSpurzheim	20101022.103146	20101022.103246	8	0.011765	60	10	60-180	60	147	GapExp	1	8	2	3	0	distractor	1	426	787	211256	11.765	11.755	11.776
ProbeTrack12	6	ProbeTrack	11.3	WolfelabSpurzheim	20101022.103146	20101022.103252	8	0.011765	60	0	60-180	60	85	GapExp	1	9	2	3	1	target	1	426	787	212043	11.765	11.754	11.775
ProbeTrack12	6	ProbeTrack	11.3	WolfelabSpurzheim	20101022.103146	20101022.103257	8	0.011765	60	0	60-180	60	128	GapExp	1	10	2	0	1	target	1	355	823	212866	11.765	11.753	11.781
ProbeTrack12	6	ProbeTrack	11.3	WolfelabSpurzheim	20101022.103146	20101022.103303	8	0.011765	60	10	60-180	60	90	GapExp	0	11	2	3	1	target	1	320	840	213706	11.765	11.752	11.776
ProbeTrack12	6	ProbeTrack	11.3	WolfelabSpurzheim	20101022.103146	20101022.103309	8	0.011765	60	10	60-180	60	176	GapExp	0	12	2	3	1	target	1	332	834	214540	11.765	11.753	11.777
ProbeTrack12	6	ProbeTrack	11.3	WolfelabSpurzheim	20101022.103146	20101022.103315	8	0.011765	60	10	60-180	60	74	GapExp	0	13	2	0	1	target	1	390	805	215345	11.765	11.754	11.776
ProbeTrack12	6	ProbeTrack	11.3	WolfelabSpurzheim	20101022.103146	20101022.103321	8	0.011765	60	0	60-180	60	94	GapExp	0	14	2	0	1	target	1	308	846	216191	11.765	11.754	11.776
ProbeTrack12	6	ProbeTrack	11.3	WolfelabSpurzheim	20101022.103146	20101022.103326	8	0.011765	60	0	60-180	60	114	GapExp	0	15	2	45	0	distractor	1	543	729	216920	11.765	11.754	11.776
ProbeTrack12	6	ProbeTrack	11.3	WolfelabSpurzheim	20101022.103146	20101022.103332	8	0.011765	60	0	60-180	60	86	GapExp	0	16	2	0	1	target	1	332	834	217754	11.765	11.753	11.775
ProbeTrack12	6	ProbeTrack	11.3	WolfelabSpurzheim	20101022.103146	20101022.103337	8	0.011765	60	10	60-180	60	176	GapExp	0	17	2	45	1	target	1	320	840	218594	11.765	11.733	11.797
ProbeTrack12	6	ProbeTrack	11.3	WolfelabSpurzheim	20101022.103146	20101022.103344	8	0.011765	60	0	60-180	60	168	GapExp	0	18	2	0	0	distractor	1	426	787	219381	11.765	11.753	11.776
ProbeTrack12	6	ProbeTrack	11.3	WolfelabSpurzheim	20101022.103146	20101022.103350	8	0.011765	60	0	60-180	60	114	GapExp	0	19	2	0	1	target	1	355	823	220204	11.765	11.754	11.777
ProbeTrack12	6	ProbeTrack	11.3	WolfelabSpurzheim	20101022.103146	20101022.103355	8	0.011765	60	0	60-180	60	73	GapExp	0	20	2	3	1	target	1	331	835	221039	11.765	11.755	11.776
ProbeTrack12	6	ProbeTrack	11.3	WolfelabSpurzheim	20101022.103146	20101022.103400	8	0.011765	60	10	60-180	60	178	GapExp	0	21	2	0	0	distractor	1	343	829	221868	11.765	11.754	11.775
ProbeTrack12	6	ProbeTrack	11.3	WolfelabSpurzheim	20101022.103146	20101022.103407	8	0.011765	60	10	60-180	60	114	GapExp	0	22	2	45	1	target	1	296	852	222720	11.765	11.753	11.777
ProbeTrack12	6	ProbeTrack	11.3	WolfelabSpurzheim	20101022.103146	20101022.103413	8	0.011765	60	10	60-180	60	162	GapExp	0	23	2	0	1	target	1	484	758	223478	11.765	11.753	11.776
ProbeTrack12	6	ProbeTrack	11.3	WolfelabSpurzheim	20101022.103146	20101022.103419	8	0.011765	60	0	60-180	60	138	GapExp	0	24	2	1	0	distractor	1	402	799	224277	11.765	11.753	11.776
ProbeTrack12	6	ProbeTrack	11.3	WolfelabSpurzheim	20101022.103146	20101022.103425	8	0.011765	60	10	60-180	60	138	GapExp	0	25	2	1	0	distractor	1	426	787	225064	11.765	11.754	11.776
ProbeTrack12	6	ProbeTrack	11.3	WolfelabSpurzheim	20101022.103146	20101022.103431	8	0.011765	60	10	60-180	60	97	GapExp	0	26	2	1	0	distractor	1	461	770	225834	11.765	11.754	11.776
ProbeTrack12	6	ProbeTrack	11.3	WolfelabSpurzheim	20101022.103146	20101022.103437	8	0.011765	60	0	60-180	60	120	GapExp	0	27	2	0	1	target	1	379	811	226645	11.765	11.754	11.777
ProbeTrack12	6	ProbeTrack	11.3	WolfelabSpurzheim	20101022.103146	20101022.103442	8	0.011765	60	10	60-180	60	112	GapExp	0	28	2	1	1	target	1	367	817	227462	11.765	11.754	11.776
ProbeTrack12	6	ProbeTrack	11.3	WolfelabSpurzheim	20101022.103146	20101022.103448	8	0.011765	60	0	60-180	60	143	GapExp	0	29	2	45	1	target	1	296	852	228314	11.765	11.749	11.784
ProbeTrack12	6	ProbeTrack	11.3	WolfelabSpurzheim	20101022.103146	20101022.103455	8	0.011765	60	0	60-180	60	101	GapExp	0	30	2	1	0	distractor	1	508	746	229060	11.765	11.755	11.775
ProbeTrack12	6	ProbeTrack	11.3	WolfelabSpurzheim	20101022.103146	20101022.103502	8	0.011765	60	0	60-180	60	79	GapExp	0	31	2	1	1	target	1	379	811	229871	11.765	11.753	11.775
ProbeTrack12	6	ProbeTrack	11.3	WolfelabSpurzheim	20101022.103146	20101022.103508	8	0.011765	60	10	60-180	60	103	GapExp	0	32	2	1	1	target	1	402	799	230670	11.765	11.754	11.776
ProbeTrack12	6	ProbeTrack	11.3	WolfelabSpurzheim	20101022.103146	20101022.103513	8	0.011765	60	10	60-180	60	132	GapExp	0	33	2	1	0	distractor	1	461	770	231440	11.765	11.752	11.779
ProbeTrack12	6	ProbeTrack	11.3	WolfelabSpurzheim	20101022.103146	20101022.103519	8	0.011765	60	10	60-180	60	164	GapExp	0	34	2	0	0	distractor	1	414	793	232233	11.765	11.754	11.776
ProbeTrack12	6	ProbeTrack	11.3	WolfelabSpurzheim	20101022.103146	20101022.103526	8	0.011765	60	10	60-180	60	108	GapExp	0	35	2	3	1	target	1	391	805	233038	11.765	11.754	11.776
ProbeTrack12	6	ProbeTrack	11.3	WolfelabSpurzheim	20101022.103146	20101022.103531	8	0.011765	60	0	60-180	60	178	GapExp	0	36	2	3	0	distractor	1	438	781	233819	11.765	11.754	11.776
ProbeTrack12	6	ProbeTrack	11.3	WolfelabSpurzheim	20101022.103146	20101022.103537	8	0.011765	60	0	60-180	60	153	GapExp	0	37	2	0	1	target	1	473	764	234583	11.765	11.754	11.778
ProbeTrack12	6	ProbeTrack	11.3	WolfelabSpurzheim	20101022.103146	20101022.103544	8	0.011765	60	0	60-180	60	148	GapExp	0	38	2	1	1	target	1	320	840	235423	11.765	11.754	11.777
ProbeTrack12	6	ProbeTrack	11.3	WolfelabSpurzheim	20101022.103146	20101022.103550	8	0.011765	60	10	60-180	60	126	GapExp	0	39	2	1	1	target	1	320	840	236263	11.765	11.755	11.776
ProbeTrack12	6	ProbeTrack	11.3	WolfelabSpurzheim	20101022.103146	20101022.103556	8	0.011765	60	0	60-180	60	158	GapExp	0	40	2	0	0	distractor	1	402	799	237062	11.765	11.751	11.775
ProbeTrack12	6	ProbeTrack	11.3	WolfelabSpurzheim	20101022.103146	20101022.103602	8	0.011765	60	10	60-180	60	116	GapExp	0	41	2	1	1	target	1	473	764	237826	11.765	11.754	11.777
ProbeTrack12	6	ProbeTrack	11.3	WolfelabSpurzheim	20101022.103146	20101022.103608	8	0.011765	60	0	60-180	60	146	GapExp	0	42	2	0	1	target	1	402	799	238625	11.765	11.752	11.777
ProbeTrack12	6	ProbeTrack	11.3	WolfelabSpurzheim	20101022.103146	20101022.103614	8	0.011765	60	10	60-180	60	131	GapExp	0	43	2	3	1	target	1	367	817	239442	11.765	11.754	11.776
ProbeTrack12	6	ProbeTrack	11.3	WolfelabSpurzheim	20101022.103146	20101022.103620	8	0.011765	60	10	60-180	60	122	GapExp	0	44	2	0	0	distractor	1	778	611	240053	11.765	11.734	11.794
ProbeTrack12	6	ProbeTrack	11.3	WolfelabSpurzheim	20101022.103146	20101022.103627	8	0.011765	60	0	60-180	60	81	GapExp	0	45	2	0	0	distractor	1	579	711	240764	11.765	11.755	11.776
ProbeTrack12	6	ProbeTrack	11.3	WolfelabSpurzheim	20101022.103146	20101022.103632	8	0.011765	60	0	60-180	60	70	GapExp	0	46	2	0	1	target	1	355	823	241587	11.765	11.753	11.777
ProbeTrack12	6	ProbeTrack	11.3	WolfelabSpurzheim	20101022.103146	20101022.103637	8	0.011765	60	0	60-180	60	61	GapExp	0	47	2	1	1	target	1	355	823	242410	11.765	11.754	11.775
ProbeTrack12	6	ProbeTrack	11.3	WolfelabSpurzheim	20101022.103146	20101022.103642	8	0.011765	60	0	60-180	60	106	GapExp	0	48	2	0	0	distractor	1	426	787	243197	11.765	11.753	11.776
ProbeTrack12	6	ProbeTrack	11.3	WolfelabSpurzheim	20101022.103146	20101022.103647	8	0.011765	60	10	60-180	60	96	GapExp	0	49	2	3	0	distractor	1	415	793	243990	11.765	11.754	11.778
ProbeTrack12	6	ProbeTrack	11.3	WolfelabSpurzheim	20101022.103146	20101022.103653	8	0.011765	60	10	60-180	60	156	GapExp	0	50	2	0	0	distractor	1	402	799	244789	11.765	11.754	11.775
ProbeTrack12	6	ProbeTrack	11.3	WolfelabSpurzheim	20101022.103146	20101022.103659	8	0.011765	60	0	60-180	60	84	GapExp	0	51	2	45	1	target	1	320	840	245629	11.765	11.753	11.777
ProbeTrack12	6	ProbeTrack	11.3	WolfelabSpurzheim	20101022.103146	20101022.103756	8	0.011765	60	10	60-180	60	115	GapExp	0	52	2	0	0	distractor	1	508	746	246375	11.765	11.731	11.802
ProbeTrack12	6	ProbeTrack	11.3	WolfelabSpurzheim	20101022.103146	20101022.103801	8	0.011765	60	10	60-180	60	148	GapExp	0	53	2	0	1	target	1	437	782	247157	11.765	11.754	11.776
ProbeTrack12	6	ProbeTrack	11.3	WolfelabSpurzheim	20101022.103146	20101022.103807	8	0.011765	60	10	60-180	60	179	GapExp	0	54	2	1	1	target	1	320	840	247997	11.765	11.754	11.775
ProbeTrack12	6	ProbeTrack	11.3	WolfelabSpurzheim	20101022.103146	20101022.103814	8	0.011765	60	0	60-180	60	123	GapExp	0	55	2	45	0	distractor	1	437	782	248779	11.765	11.753	11.775
ProbeTrack12	6	ProbeTrack	11.3	WolfelabSpurzheim	20101022.103146	20101022.103820	8	0.011765	60	10	60-180	60	62	GapExp	0	56	2	45	0	distractor	1	426	787	249566	11.765	11.754	11.776
ProbeTrack12	6	ProbeTrack	11.3	WolfelabSpurzheim	20101022.103146	20101022.103825	8	0.011765	60	0	60-180	60	72	GapExp	0	57	2	1	0	distractor	1	438	781	250347	11.765	11.754	11.776
ProbeTrack12	6	ProbeTrack	11.3	WolfelabSpurzheim	20101022.103146	20101022.103830	8	0.011765	60	10	60-180	60	71	GapExp	0	58	2	0	0	distractor	1	390	805	251152	11.765	11.755	11.776
ProbeTrack12	6	ProbeTrack	11.3	WolfelabSpurzheim	20101022.103146	20101022.103835	8	0.011765	60	0	60-180	60	81	GapExp	0	59	2	45	1	target	1	390	805	251957	11.765	11.754	11.776
ProbeTrack12	6	ProbeTrack	11.3	WolfelabSpurzheim	20101022.103146	20101022.103844	8	0.011765	60	0	60-180	60	102	GapExp	0	60	2	1	1	target	1	391	805	252762	11.765	11.755	11.775
ProbeTrack12	6	ProbeTrack	11.3	WolfelabSpurzheim	20101022.103146	20101022.103849	8	0.011765	60	0	60-180	60	89	GapExp	0	61	2	45	1	target	1	532	734	253496	11.765	11.753	11.776
ProbeTrack12	6	ProbeTrack	11.3	WolfelabSpurzheim	20101022.103146	20101022.103855	8	0.011765	60	10	60-180	60	78	GapExp	0	62	2	3	0	distractor	1	402	799	254295	11.765	11.756	11.776
ProbeTrack12	6	ProbeTrack	11.3	WolfelabSpurzheim	20101022.103146	20101022.103900	8	0.011765	60	10	60-180	60	144	GapExp	0	63	2	0	0	distractor	1	414	793	255088	11.765	11.753	11.778
ProbeTrack12	6	ProbeTrack	11.3	WolfelabSpurzheim	20101022.103146	20101022.103906	8	0.011765	60	10	60-180	60	85	GapExp	0	64	2	1	1	target	1	332	834	255922	11.765	11.753	11.777
ProbeTrack12	6	ProbeTrack	11.3	WolfelabSpurzheim	20101022.103146	20101022.103911	8	0.011765	60	10	60-180	60	151	GapExp	0	65	2	1	0	distractor	1	449	776	256698	11.765	11.753	11.776
ProbeTrack12	6	ProbeTrack	11.3	WolfelabSpurzheim	20101022.103146	20101022.103917	8	0.011765	60	10	60-180	60	152	GapExp	0	66	2	0	0	distractor	1	473	764	257462	11.765	11.754	11.776
ProbeTrack12	6	ProbeTrack	11.3	WolfelabSpurzheim	20101022.103146	20101022.103924	8	0.011765	60	0	60-180	60	92	GapExp	0	67	2	1	1	target	1	438	781	258243	11.765	11.755	11.776
ProbeTrack12	6	ProbeTrack	11.3	WolfelabSpurzheim	20101022.103146	20101022.103929	8	0.011765	60	0	60-180	60	103	GapExp	0	68	2	45	0	distractor	1	390	805	259048	11.765	11.753	11.776
ProbeTrack12	6	ProbeTrack	11.3	WolfelabSpurzheim	20101022.103146	20101022.103935	8	0.011765	60	0	60-180	60	152	GapExp	0	69	2	3	1	target	1	343	829	259877	11.765	11.754	11.777
ProbeTrack12	6	ProbeTrack	11.3	WolfelabSpurzheim	20101022.103146	20101022.103941	8	0.011765	60	0	60-180	60	136	GapExp	0	70	2	1	0	distractor	1	402	799	260676	11.765	11.754	11.778
ProbeTrack12	6	ProbeTrack	11.3	WolfelabSpurzheim	20101022.103146	20101022.103946	8	0.011765	60	0	60-180	60	148	GapExp	0	71	2	3	1	target	1	355	823	261499	11.765	11.734	11.792
ProbeTrack12	6	ProbeTrack	11.3	WolfelabSpurzheim	20101022.103146	20101022.103952	8	0.011765	60	0	60-180	60	170	GapExp	0	72	2	3	0	distractor	1	426	787	262286	11.765	11.740	11.788
ProbeTrack12	6	ProbeTrack	11.3	WolfelabSpurzheim	20101022.103146	20101022.103958	8	0.011765	60	10	60-180	60	156	GapExp	0	73	2	3	1	distractor	0	355	-1000	261286	11.765	11.741	11.783
ProbeTrack12	6	ProbeTrack	11.3	WolfelabSpurzheim	20101022.103146	20101022.104004	8	0.011765	60	0	60-180	60	139	GapExp	0	74	2	45	1	target	1	320	840	262126	11.765	11.754	11.776
ProbeTrack12	6	ProbeTrack	11.3	WolfelabSpurzheim	20101022.103146	20101022.104011	8	0.011765	60	10	60-180	60	87	GapExp	0	75	2	45	0	distractor	1	509	746	262872	11.765	11.735	11.797
ProbeTrack12	6	ProbeTrack	11.3	WolfelabSpurzheim	20101022.103146	20101022.104017	8	0.011765	60	10	60-180	60	160	GapExp	0	76	2	3	1	target	1	379	811	263683	11.765	11.753	11.777
ProbeTrack12	6	ProbeTrack	11.3	WolfelabSpurzheim	20101022.103146	20101022.104023	8	0.011765	60	10	60-180	60	99	GapExp	0	77	2	45	1	target	1	379	811	264494	11.810	11.755	23.535
ProbeTrack12	6	ProbeTrack	11.3	WolfelabSpurzheim	20101022.103146	20101022.104029	8	0.011765	60	0	60-180	60	122	GapExp	0	78	2	1	1	target	1	309	846	265340	11.765	11.754	11.776
ProbeTrack12	6	ProbeTrack	11.3	WolfelabSpurzheim	20101022.103146	20101022.104034	8	0.011765	60	10	60-180	60	61	GapExp	0	79	2	0	1	target	1	426	787	266127	11.765	11.753	11.776
ProbeTrack12	6	ProbeTrack	11.3	WolfelabSpurzheim	20101022.103146	20101022.104040	8	0.011765	60	10	60-180	60	104	GapExp	0	80	2	0	1	target	1	367	817	266944	11.765	11.738	11.794
ProbeTrack12	6	ProbeTrack	11.3	WolfelabSpurzheim	20101022.103146	20101022.104045	8	0.011765	60	10	60-180	60	138	GapExp	0	81	2	3	0	distractor	1	414	793	267737	11.765	11.753	11.776
ProbeTrack12	6	ProbeTrack	11.3	WolfelabSpurzheim	20101022.103146	20101022.104051	8	0.011765	60	10	60-180	60	143	GapExp	0	82	2	0	0	distractor	1	402	799	268536	11.765	11.753	11.777
ProbeTrack12	6	ProbeTrack	11.3	WolfelabSpurzheim	20101022.103146	20101022.104057	8	0.011765	60	0	60-180	60	74	GapExp	0	83	2	45	1	target	1	426	787	269323	11.765	11.754	11.776
ProbeTrack12	6	ProbeTrack	11.3	WolfelabSpurzheim	20101022.103146	20101022.104103	8	0.011765	60	10	60-180	60	109	GapExp	0	84	2	0	1	target	1	414	793	270116	11.765	11.755	11.777
ProbeTrack12	6	ProbeTrack	11.3	WolfelabSpurzheim	20101022.103146	20101022.104108	8	0.011765	60	0	60-180	60	154	GapExp	0	85	2	1	0	distractor	1	426	787	270903	11.765	11.754	11.777
ProbeTrack12	6	ProbeTrack	11.3	WolfelabSpurzheim	20101022.103146	20101022.104114	8	0.011765	60	0	60-180	60	84	GapExp	0	86	2	1	1	target	1	391	805	271708	11.765	11.754	11.775
ProbeTrack12	6	ProbeTrack	11.3	WolfelabSpurzheim	20101022.103146	20101022.104119	8	0.011765	60	0	60-180	60	103	GapExp	0	87	2	45	0	distractor	1	438	781	272489	11.765	11.754	11.777
ProbeTrack12	6	ProbeTrack	11.3	WolfelabSpurzheim	20101022.103146	20101022.104125	8	0.011765	60	10	60-180	60	142	GapExp	0	88	2	0	0	distractor	1	437	782	273271	11.765	11.733	11.798
ProbeTrack12	6	ProbeTrack	11.3	WolfelabSpurzheim	20101022.103146	20101022.104131	8	0.011765	60	10	60-180	60	160	GapExp	0	89	2	3	0	distractor	1	450	775	274046	11.765	11.755	11.777
ProbeTrack12	6	ProbeTrack	11.3	WolfelabSpurzheim	20101022.103146	20101022.104137	8	0.011765	60	0	60-180	60	146	GapExp	0	90	2	45	1	target	1	355	823	274869	11.765	11.754	11.776
ProbeTrack12	6	ProbeTrack	11.3	WolfelabSpurzheim	20101022.103146	20101022.104144	8	0.011765	60	0	60-180	60	167	GapExp	0	91	2	0	0	distractor	1	438	781	275650	11.765	11.754	11.776
ProbeTrack12	6	ProbeTrack	11.3	WolfelabSpurzheim	20101022.103146	20101022.104150	8	0.011765	60	0	60-180	60	70	GapExp	0	92	2	0	0	distractor	1	461	770	276420	11.765	11.743	11.789
ProbeTrack12	6	ProbeTrack	11.3	WolfelabSpurzheim	20101022.103146	20101022.104155	8	0.011765	60	0	60-180	60	136	GapExp	0	93	2	45	0	distractor	1	402	799	277219	11.765	11.753	11.775
ProbeTrack12	6	ProbeTrack	11.3	WolfelabSpurzheim	20101022.103146	20101022.104202	8	0.011765	60	10	60-180	60	88	GapExp	0	94	2	1	0	distractor	1	332	834	278053	11.765	11.753	11.776
ProbeTrack12	6	ProbeTrack	11.3	WolfelabSpurzheim	20101022.103146	20101022.104207	8	0.011765	60	10	60-180	60	123	GapExp	0	95	2	1	0	distractor	1	473	764	278817	11.765	11.754	11.777
ProbeTrack12	6	ProbeTrack	11.3	WolfelabSpurzheim	20101022.103146	20101022.104213	8	0.011765	60	0	60-180	60	170	GapExp	0	96	2	0	0	distractor	1	449	776	279593	11.765	11.730	11.793
ProbeTrack12	6	ProbeTrack	11.3	WolfelabSpurzheim	20101022.103146	20101022.104220	8	0.011765	60	10	60-180	60	66	GapExp	0	97	2	3	0	distractor	1	414	793	280386	11.765	11.754	11.777
ProbeTrack12	6	ProbeTrack	11.3	WolfelabSpurzheim	20101022.103146	20101022.104225	8	0.011765	60	10	60-180	60	123	GapExp	0	98	2	45	0	distractor	1	391	805	281191	11.765	11.753	11.776
ProbeTrack12	6	ProbeTrack	11.3	WolfelabSpurzheim	20101022.103146	20101022.104231	8	0.011765	60	0	60-180	60	154	GapExp	0	99	2	0	0	distractor	1	402	799	281990	11.765	11.727	11.797
ProbeTrack12	6	ProbeTrack	11.3	WolfelabSpurzheim	20101022.103146	20101022.104238	8	0.011765	60	0	60-180	60	70	GapExp	0	100	2	0	0	distractor	1	508	746	282736	11.765	11.720	11.807
ProbeTrack12	6	ProbeTrack	11.3	WolfelabSpurzheim	20101022.103146	20101022.104243	8	0.011765	60	10	60-180	60	171	GapExp	0	101	2	1	1	target	1	438	781	283517	11.765	11.755	11.777
ProbeTrack12	6	ProbeTrack	11.3	WolfelabSpurzheim	20101022.103146	20101022.104348	8	0.011765	60	0	60-180	60	96	GapExp	0	102	2	3	0	distractor	1	438	781	284298	11.765	11.754	11.776
ProbeTrack12	6	ProbeTrack	11.3	WolfelabSpurzheim	20101022.103146	20101022.104353	8	0.011765	60	10	60-180	60	111	GapExp	0	103	2	1	1	target	1	379	811	285109	11.765	11.753	11.777
ProbeTrack12	6	ProbeTrack	11.3	WolfelabSpurzheim	20101022.103146	20101022.104359	8	0.011765	60	10	60-180	60	171	GapExp	0	104	2	1	1	target	1	285	858	285967	11.765	11.754	11.776
ProbeTrack12	6	ProbeTrack	11.3	WolfelabSpurzheim	20101022.103146	20101022.104405	8	0.011765	60	10	60-180	60	62	GapExp	0	105	2	3	0	distractor	1	414	793	286760	11.765	11.754	11.776
ProbeTrack12	6	ProbeTrack	11.3	WolfelabSpurzheim	20101022.103146	20101022.104410	8	0.011765	60	10	60-180	60	111	GapExp	0	106	2	45	0	distractor	1	414	793	287553	11.765	11.739	11.785
ProbeTrack12	6	ProbeTrack	11.3	WolfelabSpurzheim	20101022.103146	20101022.104416	8	0.011765	60	0	60-180	60	175	GapExp	0	107	2	1	0	distractor	1	426	787	288340	11.765	11.746	11.781
ProbeTrack12	6	ProbeTrack	11.3	WolfelabSpurzheim	20101022.103146	20101022.104422	8	0.011765	60	0	60-180	60	159	GapExp	0	108	2	45	1	target	1	367	817	289157	11.765	11.738	11.795
ProbeTrack12	6	ProbeTrack	11.3	WolfelabSpurzheim	20101022.103146	20101022.104429	8	0.011765	60	10	60-180	60	95	GapExp	0	109	2	3	0	distractor	1	344	828	289985	11.765	11.754	11.776
ProbeTrack12	6	ProbeTrack	11.3	WolfelabSpurzheim	20101022.103146	20101022.104434	8	0.011765	60	10	60-180	60	148	GapExp	0	110	2	3	0	distractor	1	379	811	290796	11.765	11.754	11.777
ProbeTrack12	6	ProbeTrack	11.3	WolfelabSpurzheim	20101022.103146	20101022.104440	8	0.011765	60	10	60-180	60	80	GapExp	0	111	2	45	1	target	1	379	811	291607	11.765	11.754	11.775
ProbeTrack12	6	ProbeTrack	11.3	WolfelabSpurzheim	20101022.103146	20101022.104446	8	0.011765	60	0	60-180	60	74	GapExp	0	112	2	1	1	target	1	390	805	292412	11.765	11.755	11.777
ProbeTrack12	6	ProbeTrack	11.3	WolfelabSpurzheim	20101022.103146	20101022.104451	8	0.011765	60	0	60-180	60	99	GapExp	0	113	2	0	1	target	1	355	823	293235	11.765	11.753	11.775
ProbeTrack12	6	ProbeTrack	11.3	WolfelabSpurzheim	20101022.103146	20101022.104456	8	0.011765	60	0	60-180	60	114	GapExp	0	114	2	0	0	distractor	1	367	817	294052	11.765	11.755	11.776
ProbeTrack12	6	ProbeTrack	11.3	WolfelabSpurzheim	20101022.103146	20101022.104502	8	0.011765	60	10	60-180	60	121	GapExp	0	115	2	3	1	target	1	415	793	294845	11.765	11.753	11.778
ProbeTrack12	6	ProbeTrack	11.3	WolfelabSpurzheim	20101022.103146	20101022.104507	8	0.011765	60	10	60-180	60	157	GapExp	0	116	2	45	0	distractor	1	508	746	295591	11.765	11.754	11.775
ProbeTrack12	6	ProbeTrack	11.3	WolfelabSpurzheim	20101022.103146	20101022.104514	8	0.011765	60	0	60-180	60	149	GapExp	0	117	2	45	0	distractor	1	449	776	296367	11.765	11.745	11.789
ProbeTrack12	6	ProbeTrack	11.3	WolfelabSpurzheim	20101022.103146	20101022.104520	8	0.011765	60	0	60-180	60	146	GapExp	0	118	2	3	0	distractor	1	367	817	297184	11.765	11.755	11.777
ProbeTrack12	6	ProbeTrack	11.3	WolfelabSpurzheim	20101022.103146	20101022.104526	8	0.011765	60	0	60-180	60	153	GapExp	0	119	2	1	1	target	1	332	834	298018	11.765	11.755	11.777
ProbeTrack12	6	ProbeTrack	11.3	WolfelabSpurzheim	20101022.103146	20101022.104532	8	0.011765	60	0	60-180	60	62	GapExp	0	120	2	3	1	target	1	331	835	298853	11.765	11.753	11.775
ProbeTrack12	6	ProbeTrack	11.3	WolfelabSpurzheim	20101022.103146	20101022.104537	8	0.011765	60	0	60-180	60	166	GapExp	0	121	2	1	0	distractor	1	379	811	299664	11.765	11.754	11.776
ProbeTrack12	6	ProbeTrack	11.3	WolfelabSpurzheim	20101022.103146	20101022.104543	8	0.011765	60	0	60-180	60	137	GapExp	0	122	2	3	0	distractor	1	414	793	300457	11.765	11.755	11.774
ProbeTrack12	6	ProbeTrack	11.3	WolfelabSpurzheim	20101022.103146	20101022.104549	8	0.011765	60	0	60-180	60	135	GapExp	0	123	2	3	0	distractor	1	426	787	301244	11.765	11.744	11.783
ProbeTrack12	6	ProbeTrack	11.3	WolfelabSpurzheim	20101022.103146	20101022.104555	8	0.011765	60	10	60-180	60	122	GapExp	0	124	2	3	1	target	1	332	834	302078	11.765	11.752	11.776
ProbeTrack12	6	ProbeTrack	11.3	WolfelabSpurzheim	20101022.103146	20101022.104601	8	0.011765	60	10	60-180	60	61	GapExp	0	125	2	3	0	distractor	1	379	811	302889	11.765	11.749	11.776
ProbeTrack12	6	ProbeTrack	11.3	WolfelabSpurzheim	20101022.103146	20101022.104606	8	0.011765	60	10	60-180	60	136	GapExp	0	126	2	0	1	target	1	449	776	303665	11.765	11.734	11.789
ProbeTrack12	6	ProbeTrack	11.3	WolfelabSpurzheim	20101022.103146	20101022.104612	8	0.011765	60	10	60-180	60	68	GapExp	0	127	2	45	1	target	1	391	805	304470	11.765	11.754	11.777
ProbeTrack12	6	ProbeTrack	11.3	WolfelabSpurzheim	20101022.103146	20101022.104618	8	0.011765	60	10	60-180	60	120	GapExp	0	128	2	3	0	distractor	1	368	816	305286	11.765	11.754	11.776
ProbeTrack12	6	ProbeTrack	11.3	WolfelabSpurzheim	20101022.103146	20101022.104624	8	0.011765	60	0	60-180	60	82	GapExp	0	129	2	45	0	distractor	1	379	811	306097	11.765	11.754	11.776
ProbeTrack12	6	ProbeTrack	11.3	WolfelabSpurzheim	20101022.103146	20101022.104630	8	0.011765	60	0	60-180	60	91	GapExp	0	130	2	1	1	target	1	426	787	306884	11.765	11.753	11.777
ProbeTrack12	6	ProbeTrack	11.3	WolfelabSpurzheim	20101022.103146	20101022.104635	8	0.011765	60	0	60-180	60	152	GapExp	0	131	2	0	0	distractor	1	437	782	307666	11.765	11.755	11.777
ProbeTrack12	6	ProbeTrack	11.3	WolfelabSpurzheim	20101022.103146	20101022.104641	8	0.011765	60	0	60-180	60	89	GapExp	0	132	2	1	1	target	1	355	823	308489	11.765	11.755	11.775
ProbeTrack12	6	ProbeTrack	11.3	WolfelabSpurzheim	20101022.103146	20101022.104646	8	0.011765	60	0	60-180	60	77	GapExp	0	133	2	1	0	distractor	1	402	799	309288	11.765	11.754	11.776
ProbeTrack12	6	ProbeTrack	11.3	WolfelabSpurzheim	20101022.103146	20101022.104651	8	0.011765	60	10	60-180	60	175	GapExp	0	134	2	3	0	distractor	1	367	817	310105	11.765	11.754	11.776
ProbeTrack12	6	ProbeTrack	11.3	WolfelabSpurzheim	20101022.103146	20101022.104657	8	0.011765	60	10	60-180	60	179	GapExp	0	135	2	0	0	distractor	1	414	793	310898	11.765	11.753	11.776
ProbeTrack12	6	ProbeTrack	11.3	WolfelabSpurzheim	20101022.103146	20101022.104704	8	0.011765	60	0	60-180	60	163	GapExp	0	136	2	1	0	distractor	1	426	787	311685	11.765	11.740	11.789
ProbeTrack12	6	ProbeTrack	11.3	WolfelabSpurzheim	20101022.103146	20101022.104710	8	0.011765	60	10	60-180	60	171	GapExp	0	137	2	1	0	distractor	1	355	823	312508	11.765	11.755	11.776
ProbeTrack12	6	ProbeTrack	11.3	WolfelabSpurzheim	20101022.103146	20101022.104716	8	0.011765	60	0	60-180	60	140	GapExp	0	138	2	0	1	target	1	332	834	313342	11.765	11.753	11.776
ProbeTrack12	6	ProbeTrack	11.3	WolfelabSpurzheim	20101022.103146	20101022.104721	8	0.011765	60	0	60-180	60	143	GapExp	0	139	2	1	0	distractor	1	438	781	314123	11.765	11.753	11.775
ProbeTrack12	6	ProbeTrack	11.3	WolfelabSpurzheim	20101022.103146	20101022.104727	8	0.011765	60	0	60-180	60	169	GapExp	0	140	2	3	1	target	1	344	828	314951	11.765	11.754	11.776
ProbeTrack12	6	ProbeTrack	11.3	WolfelabSpurzheim	20101022.103146	20101022.104733	8	0.011765	60	0	60-180	60	135	GapExp	0	141	2	3	1	target	1	344	828	315779	11.765	11.755	11.777
ProbeTrack12	6	ProbeTrack	11.3	WolfelabSpurzheim	20101022.103146	20101022.104742	8	0.011765	60	0	60-180	60	96	GapExp	0	142	2	3	1	target	1	343	829	316608	11.765	11.749	11.778
ProbeTrack12	6	ProbeTrack	11.3	WolfelabSpurzheim	20101022.103146	20101022.104747	8	0.011765	60	0	60-180	60	124	GapExp	0	143	2	0	1	target	1	402	799	317407	11.765	11.743	11.793
ProbeTrack12	6	ProbeTrack	11.3	WolfelabSpurzheim	20101022.103146	20101022.104753	8	0.011765	60	0	60-180	60	179	GapExp	0	144	2	1	1	target	1	332	834	318241	11.765	11.754	11.776
ProbeTrack12	6	ProbeTrack	11.3	WolfelabSpurzheim	20101022.103146	20101022.104800	8	0.011765	60	0	60-180	60	120	GapExp	0	145	2	45	1	target	1	296	852	319093	11.765	11.736	11.787
ProbeTrack12	6	ProbeTrack	11.3	WolfelabSpurzheim	20101022.103146	20101022.104806	8	0.011765	60	0	60-180	60	134	GapExp	0	146	2	3	1	target	1	320	840	319933	11.765	11.755	11.775
ProbeTrack12	6	ProbeTrack	11.3	WolfelabSpurzheim	20101022.103146	20101022.104811	8	0.011765	60	0	60-180	60	98	GapExp	0	147	2	45	1	target	1	473	764	320697	11.765	11.731	11.800
ProbeTrack12	6	ProbeTrack	11.3	WolfelabSpurzheim	20101022.103146	20101022.104817	8	0.011765	60	10	60-180	60	130	GapExp	0	148	2	45	1	target	1	320	840	321537	11.765	11.755	11.776
ProbeTrack12	6	ProbeTrack	11.3	WolfelabSpurzheim	20101022.103146	20101022.104823	8	0.011765	60	10	60-180	60	69	GapExp	0	149	2	0	0	distractor	1	391	805	322342	11.765	11.755	11.777
ProbeTrack12	6	ProbeTrack	11.3	WolfelabSpurzheim	20101022.103146	20101022.104828	8	0.011765	60	10	60-180	60	161	GapExp	0	150	2	1	0	distractor	1	402	799	323141	11.765	11.754	11.775
ProbeTrack12	6	ProbeTrack	11.3	WolfelabSpurzheim	20101022.103146	20101022.104834	8	0.011765	60	10	60-180	60	110	GapExp	0	151	2	1	0	distractor	1	438	781	323922	11.765	11.754	11.776
ProbeTrack12	6	ProbeTrack	11.3	WolfelabSpurzheim	20101022.103146	20101022.105047	8	0.011765	60	10	60-180	60	89	GapExp	0	152	2	45	1	target	1	308	846	324768	11.765	11.754	11.776
ProbeTrack12	6	ProbeTrack	11.3	WolfelabSpurzheim	20101022.103146	20101022.105053	8	0.011765	60	10	60-180	60	97	GapExp	0	153	2	0	0	distractor	1	379	811	325579	11.765	11.754	11.776
ProbeTrack12	6	ProbeTrack	11.3	WolfelabSpurzheim	20101022.103146	20101022.105058	8	0.011765	60	0	60-180	60	80	GapExp	0	154	2	45	0	distractor	1	379	811	326390	11.765	11.745	11.789
ProbeTrack12	6	ProbeTrack	11.3	WolfelabSpurzheim	20101022.103146	20101022.105104	8	0.011765	60	10	60-180	60	61	GapExp	0	155	2	45	0	distractor	1	367	817	327207	11.765	11.738	11.789
ProbeTrack12	6	ProbeTrack	11.3	WolfelabSpurzheim	20101022.103146	20101022.105109	8	0.011765	60	0	60-180	60	62	GapExp	0	156	2	1	1	target	1	379	811	328018	11.765	11.754	11.777
ProbeTrack12	6	ProbeTrack	11.3	WolfelabSpurzheim	20101022.103146	20101022.105114	8	0.011765	60	10	60-180	60	106	GapExp	0	157	2	45	0	distractor	1	368	816	328834	11.765	11.754	11.775
ProbeTrack12	6	ProbeTrack	11.3	WolfelabSpurzheim	20101022.103146	20101022.105120	8	0.011765	60	10	60-180	60	110	GapExp	0	158	2	0	0	distractor	1	426	787	329621	11.765	11.754	11.776
ProbeTrack12	6	ProbeTrack	11.3	WolfelabSpurzheim	20101022.103146	20101022.105125	8	0.011765	60	10	60-180	60	173	GapExp	0	159	2	0	1	target	1	332	834	330455	11.765	11.739	11.792
ProbeTrack12	6	ProbeTrack	11.3	WolfelabSpurzheim	20101022.103146	20101022.105132	8	0.011765	60	10	60-180	60	65	GapExp	0	160	2	1	1	target	1	356	822	331277	11.765	11.754	11.776
ProbeTrack12	6	ProbeTrack	11.3	WolfelabSpurzheim	20101022.103146	20101022.105137	8	0.011765	60	0	60-180	60	119	GapExp	0	161	2	1	1	target	1	332	834	332111	11.765	11.753	11.778
ProbeTrack12	6	ProbeTrack	11.3	WolfelabSpurzheim	20101022.103146	20101022.105143	8	0.011765	60	10	60-180	60	64	GapExp	0	162	2	1	0	distractor	1	367	817	332928	11.765	11.737	11.784
ProbeTrack12	6	ProbeTrack	11.3	WolfelabSpurzheim	20101022.103146	20101022.105148	8	0.011765	60	0	60-180	60	176	GapExp	0	163	2	45	1	target	1	367	817	333745	11.765	11.754	11.779
ProbeTrack12	6	ProbeTrack	11.3	WolfelabSpurzheim	20101022.103146	20101022.105155	8	0.011765	60	0	60-180	60	157	GapExp	0	164	2	45	0	distractor	1	438	781	334526	11.765	11.754	11.776
ProbeTrack12	6	ProbeTrack	11.3	WolfelabSpurzheim	20101022.103146	20101022.105204	8	0.011765	60	0	60-180	60	67	GapExp	0	165	2	3	1	target	1	414	793	335319	11.765	11.753	11.776
ProbeTrack12	6	ProbeTrack	11.3	WolfelabSpurzheim	20101022.103146	20101022.105208	8	0.011765	60	0	60-180	60	112	GapExp	0	166	2	3	1	target	1	356	822	336141	11.765	11.753	11.776
ProbeTrack12	6	ProbeTrack	11.3	WolfelabSpurzheim	20101022.103146	20101022.105214	8	0.011765	60	10	60-180	60	164	GapExp	0	167	2	45	1	target	1	320	840	336981	11.765	11.740	11.793
ProbeTrack12	6	ProbeTrack	11.3	WolfelabSpurzheim	20101022.103146	20101022.105220	8	0.011765	60	0	60-180	60	89	GapExp	0	168	2	3	0	distractor	1	379	811	337792	11.765	11.754	11.775
ProbeTrack12	6	ProbeTrack	11.3	WolfelabSpurzheim	20101022.103146	20101022.105226	8	0.011765	60	0	60-180	60	99	GapExp	0	169	2	1	0	distractor	1	355	823	338615	11.765	11.753	11.775
ProbeTrack12	6	ProbeTrack	11.3	WolfelabSpurzheim	20101022.103146	20101022.105231	8	0.011765	60	10	60-180	60	74	GapExp	0	170	2	1	0	distractor	1	379	811	339426	11.765	11.727	11.805
ProbeTrack12	6	ProbeTrack	11.3	WolfelabSpurzheim	20101022.103146	20101022.105236	8	0.011765	60	10	60-180	60	161	GapExp	0	171	2	45	0	distractor	1	532	734	340160	11.765	11.753	11.776
ProbeTrack12	6	ProbeTrack	11.3	WolfelabSpurzheim	20101022.103146	20101022.105243	8	0.011765	60	10	60-180	60	74	GapExp	0	172	2	45	0	distractor	1	379	811	340971	11.765	11.730	11.800
ProbeTrack12	6	ProbeTrack	11.3	WolfelabSpurzheim	20101022.103146	20101022.105248	8	0.011765	60	10	60-180	60	178	GapExp	0	173	2	45	1	target	1	332	834	341805	11.765	11.754	11.776
ProbeTrack12	6	ProbeTrack	11.3	WolfelabSpurzheim	20101022.103146	20101022.105255	8	0.011765	60	0	60-180	60	175	GapExp	0	174	2	3	1	target	1	379	811	342616	11.765	11.753	11.776
ProbeTrack12	6	ProbeTrack	11.3	WolfelabSpurzheim	20101022.103146	20101022.105301	8	0.011765	60	10	60-180	60	142	GapExp	0	175	2	45	1	target	1	297	852	343468	11.765	11.754	11.775
ProbeTrack12	6	ProbeTrack	11.3	WolfelabSpurzheim	20101022.103146	20101022.105308	8	0.011765	60	10	60-180	60	89	GapExp	0	176	2	45	0	distractor	1	414	793	344261	11.765	11.753	11.779
ProbeTrack12	6	ProbeTrack	11.3	WolfelabSpurzheim	20101022.103146	20101022.105313	8	0.011765	60	10	60-180	60	147	GapExp	0	177	2	45	1	target	1	344	828	345089	11.765	11.754	11.775
ProbeTrack12	6	ProbeTrack	11.3	WolfelabSpurzheim	20101022.103146	20101022.105320	8	0.011765	60	10	60-180	60	116	GapExp	0	178	2	0	1	target	1	343	829	345918	11.765	11.750	11.780
ProbeTrack12	6	ProbeTrack	11.3	WolfelabSpurzheim	20101022.103146	20101022.105325	8	0.011765	60	10	60-180	60	106	GapExp	0	179	2	3	0	distractor	1	343	829	346747	11.765	11.754	11.776
ProbeTrack12	6	ProbeTrack	11.3	WolfelabSpurzheim	20101022.103146	20101022.105331	8	0.011765	60	10	60-180	60	110	GapExp	0	180	2	45	0	distractor	1	414	793	347540	11.765	11.753	11.777
ProbeTrack12	6	ProbeTrack	11.3	WolfelabSpurzheim	20101022.103146	20101022.105338	8	0.011765	60	0	60-180	60	97	GapExp	0	181	2	45	1	target	1	308	846	348386	11.765	11.738	11.794
ProbeTrack12	6	ProbeTrack	11.3	WolfelabSpurzheim	20101022.103146	20101022.105343	8	0.011765	60	0	60-180	60	97	GapExp	0	182	2	45	0	distractor	1	391	805	349191	11.765	11.753	11.776
ProbeTrack12	6	ProbeTrack	11.3	WolfelabSpurzheim	20101022.103146	20101022.105349	8	0.011765	60	0	60-180	60	82	GapExp	0	183	2	3	1	target	1	402	799	349990	11.765	11.753	11.775
ProbeTrack12	6	ProbeTrack	11.3	WolfelabSpurzheim	20101022.103146	20101022.105354	8	0.011765	60	10	60-180	60	150	GapExp	0	184	2	45	1	target	1	320	840	350830	11.765	11.754	11.778
ProbeTrack12	6	ProbeTrack	11.3	WolfelabSpurzheim	20101022.103146	20101022.105401	8	0.011765	60	10	60-180	60	80	GapExp	0	185	2	45	0	distractor	1	355	823	351653	11.765	11.754	11.776
ProbeTrack12	6	ProbeTrack	11.3	WolfelabSpurzheim	20101022.103146	20101022.105408	8	0.011765	60	10	60-180	60	82	GapExp	0	186	2	3	0	distractor	1	367	817	352470	11.765	11.754	11.776
ProbeTrack12	6	ProbeTrack	11.3	WolfelabSpurzheim	20101022.103146	20101022.105414	8	0.011765	60	10	60-180	60	71	GapExp	0	187	2	45	0	target	0	438	-1000	351470	11.765	11.754	11.777
ProbeTrack12	6	ProbeTrack	11.3	WolfelabSpurzheim	20101022.103146	20101022.105419	8	0.011765	60	0	60-180	60	130	GapExp	0	188	2	3	1	target	1	379	811	352281	11.765	11.754	11.776
ProbeTrack12	6	ProbeTrack	11.3	WolfelabSpurzheim	20101022.103146	20101022.105425	8	0.011765	60	0	60-180	60	75	GapExp	0	189	2	45	0	distractor	1	426	787	353068	11.765	11.755	11.775
ProbeTrack12	6	ProbeTrack	11.3	WolfelabSpurzheim	20101022.103146	20101022.105431	8	0.011765	60	10	60-180	60	84	GapExp	0	190	2	3	1	target	1	449	776	353844	11.765	11.753	11.777
ProbeTrack12	6	ProbeTrack	11.3	WolfelabSpurzheim	20101022.103146	20101022.105436	8	0.011765	60	10	60-180	60	74	GapExp	0	191	2	45	1	target	1	344	828	354672	11.765	11.754	11.776
ProbeTrack12	6	ProbeTrack	11.3	WolfelabSpurzheim	20101022.103146	20101022.105441	8	0.011765	60	0	60-180	60	68	GapExp	0	192	2	3	1	target	1	331	835	355507	11.765	11.754	11.777
ProbeTrack12	6	ProbeTrack	11.3	WolfelabSpurzheim	20101022.103146	20101022.105446	8	0.011765	60	0	60-180	60	86	GapExp	0	193	2	3	0	distractor	1	461	770	356277	11.765	11.753	11.776
ProbeTrack12	6	ProbeTrack	11.3	WolfelabSpurzheim	20101022.103146	20101022.105452	8	0.011765	60	10	60-180	60	85	GapExp	0	194	2	3	1	target	1	296	852	357129	11.765	11.755	11.776
ProbeTrack12	6	ProbeTrack	11.3	WolfelabSpurzheim	20101022.103146	20101022.105457	8	0.011765	60	10	60-180	60	127	GapExp	0	195	2	1	0	distractor	1	379	811	357940	11.765	11.754	11.776
ProbeTrack12	6	ProbeTrack	11.3	WolfelabSpurzheim	20101022.103146	20101022.105503	8	0.011765	60	0	60-180	60	92	GapExp	0	196	2	0	0	distractor	1	367	817	358757	11.765	11.718	11.810
ProbeTrack12	6	ProbeTrack	11.3	WolfelabSpurzheim	20101022.103146	20101022.105508	8	0.011765	60	10	60-180	60	72	GapExp	0	197	2	3	0	distractor	1	368	816	359573	11.765	11.755	11.776
ProbeTrack12	6	ProbeTrack	11.3	WolfelabSpurzheim	20101022.103146	20101022.105513	8	0.011765	60	10	60-180	60	125	GapExp	0	198	2	0	1	target	1	438	781	360354	11.765	11.753	11.777
ProbeTrack12	6	ProbeTrack	11.3	WolfelabSpurzheim	20101022.103146	20101022.105519	8	0.011765	60	0	60-180	60	80	GapExp	0	199	2	0	1	target	1	426	787	361141	11.765	11.754	11.775
ProbeTrack12	6	ProbeTrack	11.3	WolfelabSpurzheim	20101022.103146	20101022.105524	8	0.011765	60	0	60-180	60	172	GapExp	0	200	2	1	0	distractor	1	402	799	361940	11.765	11.738	11.787
ProbeTrack12	6	ProbeTrack	11.3	WolfelabSpurzheim	20101022.103146	20101022.105530	8	0.011765	60	0	60-180	60	111	GapExp	0	201	2	0	1	target	1	343	829	362769	11.765	11.754	11.777
ProbeTrack12	6	ProbeTrack	11.3	WolfelabSpurzheim	20101022.103146	20101022.105537	8	0.011765	60	0	60-180	60	70	GapExp	0	202	2	3	0	distractor	1	414	793	363562	11.765	11.755	11.775
ProbeTrack12	6	ProbeTrack	11.3	WolfelabSpurzheim	20101022.103146	20101022.105542	8	0.011765	60	0	60-180	60	92	GapExp	0	203	2	45	0	distractor	1	473	764	364326	11.765	11.755	11.777
ProbeTrack12	6	ProbeTrack	11.3	WolfelabSpurzheim	20101022.103146	20101022.105547	8	0.011765	60	10	60-180	60	76	GapExp	0	204	2	0	1	target	1	367	817	365143	11.765	11.754	11.777
ProbeTrack12	6	ProbeTrack	11.3	WolfelabSpurzheim	20101022.103146	20101022.105553	8	0.011765	60	0	60-180	60	87	GapExp	0	205	2	1	0	distractor	1	379	811	365954	11.765	11.755	11.776
ProbeTrack12	6	ProbeTrack	11.3	WolfelabSpurzheim	20101022.103146	20101022.105559	8	0.011765	60	0	60-180	60	173	GapExp	0	206	2	45	1	target	1	320	840	366794	11.765	11.753	11.777
ProbeTrack12	6	ProbeTrack	11.3	WolfelabSpurzheim	20101022.103146	20101022.105606	8	0.011765	60	10	60-180	60	94	GapExp	0	207	2	0	0	distractor	1	390	805	367599	11.765	11.754	11.777
ProbeTrack12	6	ProbeTrack	11.3	WolfelabSpurzheim	20101022.103146	20101022.105611	8	0.011765	60	0	60-180	60	165	GapExp	0	208	2	1	1	target	1	308	846	368445	11.765	11.727	11.795
ProbeTrack12	6	ProbeTrack	11.3	WolfelabSpurzheim	20101022.103146	20101022.105617	8	0.011765	60	10	60-180	60	161	GapExp	0	209	2	3	1	target	1	390	805	369250	11.765	11.753	11.776
ProbeTrack12	6	ProbeTrack	11.3	WolfelabSpurzheim	20101022.103146	20101022.105624	8	0.011765	60	0	60-180	60	170	GapExp	0	210	2	3	0	distractor	1	449	776	370026	11.765	11.752	11.777
ProbeTrack12	6	ProbeTrack	11.3	WolfelabSpurzheim	20101022.103146	20101022.105631	8	0.011765	60	10	60-180	60	83	GapExp	0	211	2	3	1	target	1	320	840	370866	11.765	11.754	11.775
ProbeTrack12	6	ProbeTrack	11.3	WolfelabSpurzheim	20101022.103146	20101022.105636	8	0.011765	60	10	60-180	60	119	GapExp	0	212	2	3	0	distractor	1	367	817	371683	11.765	11.712	11.810
ProbeTrack12	6	ProbeTrack	11.3	WolfelabSpurzheim	20101022.103146	20101022.105642	8	0.011765	60	0	60-180	60	147	GapExp	0	213	2	3	0	distractor	1	391	805	372488	11.765	11.751	11.777
ProbeTrack12	6	ProbeTrack	11.3	WolfelabSpurzheim	20101022.103146	20101022.105648	8	0.011765	60	0	60-180	60	121	GapExp	0	214	2	0	0	distractor	1	437	782	373270	11.765	11.754	11.777
ProbeTrack12	6	ProbeTrack	11.3	WolfelabSpurzheim	20101022.103146	20101022.105654	8	0.011765	60	0	60-180	60	143	GapExp	0	215	2	45	1	target	1	320	840	374110	11.765	11.754	11.777
ProbeTrack12	6	ProbeTrack	11.3	WolfelabSpurzheim	20101022.103146	20101022.105700	8	0.011765	60	0	60-180	60	91	GapExp	0	216	2	0	1	target	1	379	811	374921	11.765	11.754	11.775
ProbeTrack12	6	ProbeTrack	11.3	WolfelabSpurzheim	20101022.103146	20101022.105706	8	0.011765	60	0	60-180	60	168	GapExp	0	217	2	1	0	distractor	1	403	799	375720	11.765	11.734	11.794
ProbeTrack12	6	ProbeTrack	11.3	WolfelabSpurzheim	20101022.103146	20101022.105712	8	0.011765	60	10	60-180	60	166	GapExp	0	218	2	0	1	target	1	402	799	376519	11.765	11.753	11.776
ProbeTrack12	6	ProbeTrack	11.3	WolfelabSpurzheim	20101022.103146	20101022.105720	8	0.011765	60	0	60-180	60	136	GapExp	0	219	2	45	0	distractor	1	414	793	377312	11.765	11.753	11.776
ProbeTrack12	6	ProbeTrack	11.3	WolfelabSpurzheim	20101022.103146	20101022.105726	8	0.011765	60	0	60-180	60	82	GapExp	0	220	2	0	1	target	1	343	829	378141	11.765	11.754	11.775
ProbeTrack12	6	ProbeTrack	11.3	WolfelabSpurzheim	20101022.103146	20101022.105731	8	0.011765	60	0	60-180	60	179	GapExp	0	221	2	0	1	target	1	379	811	378952	11.765	11.754	11.775
ProbeTrack12	6	ProbeTrack	11.3	WolfelabSpurzheim	20101022.103146	20101022.105737	8	0.011765	60	10	60-180	60	85	GapExp	0	222	2	45	0	target	0	438	-1000	377952	11.765	11.754	11.778
ProbeTrack12	6	ProbeTrack	11.3	WolfelabSpurzheim	20101022.103146	20101022.105743	8	0.011765	60	0	60-180	60	100	GapExp	0	223	2	45	1	target	1	331	835	378787	11.765	11.754	11.776
ProbeTrack12	6	ProbeTrack	11.3	WolfelabSpurzheim	20101022.103146	20101022.105749	8	0.011765	60	10	60-180	60	180	GapExp	0	224	2	1	0	distractor	1	391	805	379592	11.765	11.750	11.777
ProbeTrack12	6	ProbeTrack	11.3	WolfelabSpurzheim	20101022.103146	20101022.105756	8	0.011765	60	10	60-180	60	62	GapExp	0	225	2	1	1	target	1	320	840	380432	11.765	11.754	11.776
ProbeTrack12	6	ProbeTrack	11.3	WolfelabSpurzheim	20101022.103146	20101022.105801	8	0.011765	60	10	60-180	60	120	GapExp	0	226	2	1	0	distractor	1	402	799	381231	11.765	11.754	11.776
ProbeTrack12	6	ProbeTrack	11.3	WolfelabSpurzheim	20101022.103146	20101022.105807	8	0.011765	60	0	60-180	60	160	GapExp	0	227	2	3	1	target	1	496	752	381983	11.765	11.754	11.777
ProbeTrack12	6	ProbeTrack	11.3	WolfelabSpurzheim	20101022.103146	20101022.105814	8	0.011765	60	10	60-180	60	102	GapExp	0	228	2	3	1	target	1	344	828	382811	11.765	11.717	11.809
ProbeTrack12	6	ProbeTrack	11.3	WolfelabSpurzheim	20101022.103146	20101022.105821	8	0.011765	60	10	60-180	60	169	GapExp	0	229	2	1	1	target	1	296	852	383663	11.765	11.738	11.788
ProbeTrack12	6	ProbeTrack	11.3	WolfelabSpurzheim	20101022.103146	20101022.105827	8	0.011765	60	0	60-180	60	167	GapExp	0	230	2	3	0	distractor	1	438	781	384444	11.765	11.754	11.776
ProbeTrack12	6	ProbeTrack	11.3	WolfelabSpurzheim	20101022.103146	20101022.105834	8	0.011765	60	10	60-180	60	133	GapExp	0	231	2	1	1	target	1	320	840	385284	11.765	11.754	11.776
ProbeTrack12	6	ProbeTrack	11.3	WolfelabSpurzheim	20101022.103146	20101022.105840	8	0.011765	60	0	60-180	60	100	GapExp	0	232	2	3	0	distractor	1	450	775	386059	11.765	11.755	11.776
ProbeTrack12	6	ProbeTrack	11.3	WolfelabSpurzheim	20101022.103146	20101022.105846	8	0.011765	60	10	60-180	60	119	GapExp	0	233	2	1	1	target	1	390	805	386864	11.765	11.754	11.776
ProbeTrack12	6	ProbeTrack	11.3	WolfelabSpurzheim	20101022.103146	20101022.105851	8	0.011765	60	10	60-180	60	153	GapExp	0	234	2	0	1	target	1	343	829	387693	11.765	11.755	11.776
ProbeTrack12	6	ProbeTrack	11.3	WolfelabSpurzheim	20101022.103146	20101022.105858	8	0.011765	60	10	60-180	60	103	GapExp	0	235	2	45	1	target	1	343	829	388522	11.765	11.753	11.776
ProbeTrack12	6	ProbeTrack	11.3	WolfelabSpurzheim	20101022.103146	20101022.105904	8	0.011765	60	10	60-180	60	103	GapExp	0	236	2	0	1	target	1	344	828	389350	11.765	11.754	11.776
ProbeTrack12	6	ProbeTrack	11.3	WolfelabSpurzheim	20101022.103146	20101022.105909	8	0.011765	60	10	60-180	60	93	GapExp	0	237	2	3	1	target	1	402	799	390149	11.765	11.756	11.776
ProbeTrack12	6	ProbeTrack	11.3	WolfelabSpurzheim	20101022.103146	20101022.105915	8	0.011765	60	0	60-180	60	153	GapExp	0	238	2	0	0	distractor	1	414	793	390942	11.765	11.754	11.778
ProbeTrack12	6	ProbeTrack	11.3	WolfelabSpurzheim	20101022.103146	20101022.105923	8	0.011765	60	10	60-180	60	139	GapExp	0	239	2	3	1	target	1	367	817	391759	11.765	11.752	11.776
ProbeTrack12	6	ProbeTrack	11.3	WolfelabSpurzheim	20101022.103146	20101022.105929	8	0.011765	60	10	60-180	60	152	GapExp	0	240	2	1	0	distractor	1	367	817	392576	11.765	11.743	11.792
ProbeTrack12	6	ProbeTrack	11.3	WolfelabSpurzheim	20101022.103146	20101022.105936	8	0.011765	60	0	60-180	60	161	GapExp	0	241	2	0	0	distractor	1	355	823	393399	11.765	11.754	11.776
ProbeTrack12	6	ProbeTrack	11.3	WolfelabSpurzheim	20101022.103146	20101022.105942	8	0.011765	60	0	60-180	60	92	GapExp	0	242	2	45	0	distractor	1	390	805	394204	11.765	11.754	11.776
ProbeTrack12	6	ProbeTrack	11.3	WolfelabSpurzheim	20101022.103146	20101022.105948	8	0.011765	60	10	60-180	60	91	GapExp	0	243	2	1	1	target	1	309	846	395050	11.765	11.736	11.793
ProbeTrack12	6	ProbeTrack	11.3	WolfelabSpurzheim	20101022.103146	20101022.105955	8	0.011765	60	0	60-180	60	65	GapExp	0	244	2	45	0	distractor	1	379	811	395861	11.765	11.743	11.786
ProbeTrack12	6	ProbeTrack	11.3	WolfelabSpurzheim	20101022.103146	20101022.110001	8	0.011765	60	0	60-180	60	76	GapExp	0	245	2	1	0	distractor	1	355	823	396684	11.765	11.754	11.776
ProbeTrack12	6	ProbeTrack	11.3	WolfelabSpurzheim	20101022.103146	20101022.110007	8	0.011765	60	0	60-180	60	175	GapExp	0	246	2	3	0	distractor	1	332	834	397518	11.765	11.752	11.778
ProbeTrack12	6	ProbeTrack	11.3	WolfelabSpurzheim	20101022.103146	20101022.110013	8	0.011765	60	0	60-180	60	131	GapExp	0	247	2	3	0	distractor	1	402	799	398317	11.765	11.754	11.778
ProbeTrack12	6	ProbeTrack	11.3	WolfelabSpurzheim	20101022.103146	20101022.110020	8	0.011765	60	10	60-180	60	68	GapExp	0	248	2	45	0	distractor	1	355	823	399140	11.765	11.753	11.776
ProbeTrack12	6	ProbeTrack	11.3	WolfelabSpurzheim	20101022.103146	20101022.110027	8	0.011765	60	10	60-180	60	85	GapExp	0	249	2	0	1	target	1	344	828	399968	11.765	11.754	11.777
ProbeTrack12	6	ProbeTrack	11.3	WolfelabSpurzheim	20101022.103146	20101022.110034	8	0.011765	60	10	60-180	60	178	GapExp	0	250	2	45	1	target	1	320	840	400808	11.765	11.735	11.799
