exp	sub	code	rev	comp	runtime	trialtime	nstim	refreshdur	cuedur	gapdur	gapOnsetRange	durPostProbe	gapOnsetTime	blocktype	prac	trial	ntargets	soa	probeTarget	resp	acc	rt	pts	tpts	meanFrameDur	minFrameDur	maxFrameDur
ProbeTrack12	3	ProbeTrack	11.3	WolfelabSpurzheim	20101014.113644	20101014.113714	8	0.011764	60	0	60-180	60	83	NoGap	1	1	2	3	0	distractor	1	2037	0	0	11.978	11.754	35.291
ProbeTrack12	3	ProbeTrack	11.3	WolfelabSpurzheim	20101014.113644	20101014.113727	8	0.011764	60	0	60-180	60	79	NoGap	1	2	2	45	1	target	1	496	752	752	11.813	11.753	23.527
ProbeTrack12	3	ProbeTrack	11.3	WolfelabSpurzheim	20101014.113644	20101014.113757	8	0.011764	60	0	60-180	60	146	NoGap	1	3	2	1	1	target	1	508	746	1498	11.765	11.753	11.776
ProbeTrack12	3	ProbeTrack	11.3	WolfelabSpurzheim	20101014.113644	20101014.113805	8	0.011764	60	0	60-180	60	111	NoGap	1	4	2	1	0	distractor	1	473	764	2262	11.765	11.727	11.795
ProbeTrack12	3	ProbeTrack	11.3	WolfelabSpurzheim	20101014.113644	20101014.113812	8	0.011764	60	0	60-180	60	145	NoGap	1	5	2	0	0	distractor	1	555	723	2985	11.765	11.753	11.776
ProbeTrack12	3	ProbeTrack	11.3	WolfelabSpurzheim	20101014.113644	20101014.113820	8	0.011764	60	0	60-180	60	113	NoGap	1	6	2	45	0	distractor	1	602	699	3684	11.765	11.740	11.793
ProbeTrack12	3	ProbeTrack	11.3	WolfelabSpurzheim	20101014.113644	20101014.113828	8	0.011764	60	0	60-180	60	168	NoGap	1	7	2	3	1	target	1	402	799	4483	11.765	11.754	11.777
ProbeTrack12	3	ProbeTrack	11.3	WolfelabSpurzheim	20101014.113644	20101014.113835	8	0.011764	60	0	60-180	60	75	NoGap	1	8	2	45	0	distractor	1	438	781	5264	11.765	11.753	11.776
ProbeTrack12	3	ProbeTrack	11.3	WolfelabSpurzheim	20101014.113644	20101014.113841	8	0.011764	60	0	60-180	60	103	NoGap	1	9	2	1	0	target	0	496	-1000	4264	11.765	11.754	11.775
ProbeTrack12	3	ProbeTrack	11.3	WolfelabSpurzheim	20101014.113644	20101014.113847	8	0.011764	60	0	60-180	60	113	NoGap	1	10	2	1	1	target	1	520	740	5004	11.765	11.743	11.785
ProbeTrack12	3	ProbeTrack	11.3	WolfelabSpurzheim	20101014.113644	20101014.113853	8	0.011764	60	0	60-180	60	97	NoGap	1	11	2	1	0	distractor	1	485	758	5762	11.765	11.754	11.777
ProbeTrack12	3	ProbeTrack	11.3	WolfelabSpurzheim	20101014.113644	20101014.113859	8	0.011764	60	0	60-180	60	180	NoGap	1	12	2	0	1	target	1	473	764	6526	11.765	11.749	11.786
ProbeTrack12	3	ProbeTrack	11.3	WolfelabSpurzheim	20101014.113644	20101014.113906	8	0.011764	60	0	60-180	60	142	NoGap	1	13	2	45	1	distractor	0	743	-1000	5526	11.765	11.755	11.777
ProbeTrack12	3	ProbeTrack	11.3	WolfelabSpurzheim	20101014.113644	20101014.113913	8	0.011764	60	0	60-180	60	103	NoGap	1	14	2	1	0	distractor	1	473	764	6290	11.765	11.753	11.776
ProbeTrack12	3	ProbeTrack	11.3	WolfelabSpurzheim	20101014.113644	20101014.113920	8	0.011764	60	0	60-180	60	167	NoGap	1	15	2	3	0	distractor	1	520	740	7030	11.765	11.754	11.776
ProbeTrack12	3	ProbeTrack	11.3	WolfelabSpurzheim	20101014.113644	20101014.113927	8	0.011764	60	0	60-180	60	154	NoGap	1	16	2	45	1	target	1	497	752	7782	11.765	11.754	11.776
ProbeTrack12	3	ProbeTrack	11.3	WolfelabSpurzheim	20101014.113644	20101014.113933	8	0.011764	60	0	60-180	60	83	NoGap	1	17	2	3	0	distractor	1	626	687	8469	11.765	11.753	11.776
ProbeTrack12	3	ProbeTrack	11.3	WolfelabSpurzheim	20101014.113644	20101014.113939	8	0.011764	60	0	60-180	60	85	NoGap	1	18	2	0	1	target	1	520	740	9209	11.765	11.754	11.775
ProbeTrack12	3	ProbeTrack	11.3	WolfelabSpurzheim	20101014.113644	20101014.113944	8	0.011764	60	0	60-180	60	79	NoGap	1	19	2	0	0	distractor	1	508	746	9955	11.765	11.754	11.775
ProbeTrack12	3	ProbeTrack	11.3	WolfelabSpurzheim	20101014.113644	20101014.113949	8	0.011764	60	0	60-180	60	108	NoGap	1	20	2	45	1	target	1	602	699	10654	11.765	11.753	11.777
ProbeTrack12	3	ProbeTrack	11.3	WolfelabSpurzheim	20101014.113644	20101014.113956	8	0.011764	60	0	60-180	60	69	NoGap	1	21	2	0	0	distractor	1	437	782	11436	11.765	11.754	11.775
ProbeTrack12	3	ProbeTrack	11.3	WolfelabSpurzheim	20101014.113644	20101014.114001	8	0.011764	60	0	60-180	60	78	NoGap	1	22	2	3	0	distractor	1	602	699	12135	11.765	11.754	11.777
ProbeTrack12	3	ProbeTrack	11.3	WolfelabSpurzheim	20101014.113644	20101014.114007	8	0.011764	60	0	60-180	60	109	NoGap	1	23	2	1	1	target	1	415	793	12928	11.765	11.754	11.777
ProbeTrack12	3	ProbeTrack	11.3	WolfelabSpurzheim	20101014.113644	20101014.114012	8	0.011764	60	0	60-180	60	68	NoGap	1	24	2	1	1	target	1	426	787	13715	11.765	11.753	11.776
ProbeTrack12	3	ProbeTrack	11.3	WolfelabSpurzheim	20101014.113644	20101014.114017	8	0.011764	60	0	60-180	60	178	NoGap	1	25	2	0	1	target	1	402	799	14514	11.765	11.754	11.778
ProbeTrack12	3	ProbeTrack	11.3	WolfelabSpurzheim	20101014.113644	20101014.114024	8	0.011764	60	0	60-180	60	65	NoGap	1	26	2	45	0	distractor	1	379	811	15325	11.765	11.755	11.777
ProbeTrack12	3	ProbeTrack	11.3	WolfelabSpurzheim	20101014.113644	20101014.114029	8	0.011764	60	0	60-180	60	99	NoGap	1	27	2	3	1	target	1	367	817	16142	11.765	11.754	11.776
ProbeTrack12	3	ProbeTrack	11.3	WolfelabSpurzheim	20101014.113644	20101014.114034	8	0.011764	60	0	60-180	60	93	NoGap	1	28	2	45	1	target	1	343	829	16971	11.765	11.749	11.778
ProbeTrack12	3	ProbeTrack	11.3	WolfelabSpurzheim	20101014.113644	20101014.114040	8	0.011764	60	0	60-180	60	134	NoGap	1	29	2	0	1	target	1	355	823	17794	11.765	11.748	11.784
ProbeTrack12	3	ProbeTrack	11.3	WolfelabSpurzheim	20101014.113644	20101014.114046	8	0.011764	60	0	60-180	60	80	NoGap	1	30	2	45	0	distractor	1	473	764	18558	11.765	11.754	11.776
ProbeTrack12	3	ProbeTrack	11.3	WolfelabSpurzheim	20101014.113644	20101014.114052	8	0.011764	60	0	60-180	60	96	NoGap	1	31	2	0	1	target	1	426	787	19345	11.765	11.754	11.775
ProbeTrack12	3	ProbeTrack	11.3	WolfelabSpurzheim	20101014.113644	20101014.114058	8	0.011764	60	0	60-180	60	178	NoGap	1	32	2	1	0	distractor	1	391	805	20150	11.765	11.755	11.776
ProbeTrack12	3	ProbeTrack	11.3	WolfelabSpurzheim	20101014.113644	20101014.114104	8	0.011764	60	0	60-180	60	122	NoGap	1	33	2	3	1	target	1	426	787	20937	11.765	11.754	11.776
ProbeTrack12	3	ProbeTrack	11.3	WolfelabSpurzheim	20101014.113644	20101014.114110	8	0.011764	60	0	60-180	60	117	NoGap	1	34	2	3	1	target	1	426	787	21724	11.765	11.754	11.777
ProbeTrack12	3	ProbeTrack	11.3	WolfelabSpurzheim	20101014.113644	20101014.114116	8	0.011764	60	0	60-180	60	84	NoGap	1	35	2	3	1	target	1	332	834	22558	11.765	11.754	11.776
ProbeTrack12	3	ProbeTrack	11.3	WolfelabSpurzheim	20101014.113644	20101014.114121	8	0.011764	60	0	60-180	60	169	NoGap	1	36	2	45	0	distractor	1	520	740	23298	11.765	11.752	11.777
ProbeTrack12	3	ProbeTrack	11.3	WolfelabSpurzheim	20101014.113644	20101014.114128	8	0.011764	60	0	60-180	60	95	NoGap	1	37	2	3	0	target	0	543	-1000	22298	11.765	11.755	11.777
ProbeTrack12	3	ProbeTrack	11.3	WolfelabSpurzheim	20101014.113644	20101014.114134	8	0.011764	60	0	60-180	60	97	NoGap	1	38	2	0	0	distractor	1	638	681	22979	11.765	11.756	11.778
ProbeTrack12	3	ProbeTrack	11.3	WolfelabSpurzheim	20101014.113644	20101014.114142	8	0.011764	60	0	60-180	60	150	NoGap	1	39	2	0	0	distractor	1	579	711	23690	11.765	11.753	11.777
ProbeTrack12	3	ProbeTrack	11.3	WolfelabSpurzheim	20101014.113644	20101014.114148	8	0.011764	60	0	60-180	60	165	NoGap	1	40	2	1	1	target	1	343	829	24519	11.765	11.754	11.777
ProbeTrack12	3	ProbeTrack	11.3	WolfelabSpurzheim	20101014.114240	20101014.114251	8	0.011766	60	0	60-180	60	172	GapPrac	1	1	2	45	1	target	1	438	781	25300	11.907	11.739	35.293
ProbeTrack12	3	ProbeTrack	11.3	WolfelabSpurzheim	20101014.114240	20101014.114301	8	0.011766	60	10	60-180	60	156	GapPrac	1	2	2	45	0	distractor	1	555	723	26023	11.765	11.753	11.776
ProbeTrack12	3	ProbeTrack	11.3	WolfelabSpurzheim	20101014.114240	20101014.114309	8	0.011766	60	0	60-180	60	123	GapPrac	1	3	2	1	0	distractor	1	414	793	26816	11.915	11.753	23.527
ProbeTrack12	3	ProbeTrack	11.3	WolfelabSpurzheim	20101014.114240	20101014.114315	8	0.011766	60	0	60-180	60	160	GapPrac	1	4	2	3	1	target	1	496	752	27568	11.765	11.754	11.781
ProbeTrack12	3	ProbeTrack	11.3	WolfelabSpurzheim	20101014.114240	20101014.114322	8	0.011766	60	10	60-180	60	78	GapPrac	1	5	2	0	0	distractor	1	625	688	28256	11.765	11.754	11.775
ProbeTrack12	3	ProbeTrack	11.3	WolfelabSpurzheim	20101014.114240	20101014.114328	8	0.011766	60	0	60-180	60	98	GapPrac	1	6	2	0	0	distractor	1	708	646	28902	11.765	11.753	11.775
ProbeTrack12	3	ProbeTrack	11.3	WolfelabSpurzheim	20101014.114240	20101014.114334	8	0.011766	60	10	60-180	60	88	GapPrac	1	7	2	3	1	target	1	367	817	29719	11.765	11.754	11.776
ProbeTrack12	3	ProbeTrack	11.3	WolfelabSpurzheim	20101014.114240	20101014.114340	8	0.011766	60	0	60-180	60	153	GapPrac	1	8	2	45	1	target	1	391	805	30524	11.765	11.753	11.777
ProbeTrack12	3	ProbeTrack	11.3	WolfelabSpurzheim	20101014.114240	20101014.114348	8	0.011766	60	0	60-180	60	68	GapPrac	1	9	2	3	0	distractor	1	496	752	31276	11.765	11.739	11.785
ProbeTrack12	3	ProbeTrack	11.3	WolfelabSpurzheim	20101014.114240	20101014.114353	8	0.011766	60	0	60-180	60	145	GapPrac	1	10	2	1	1	target	1	520	740	32016	11.765	11.754	11.777
ProbeTrack12	3	ProbeTrack	11.3	WolfelabSpurzheim	20101014.114240	20101014.114359	8	0.011766	60	10	60-180	60	169	GapPrac	1	11	2	3	0	distractor	1	438	781	32797	11.765	11.753	11.777
ProbeTrack12	3	ProbeTrack	11.3	WolfelabSpurzheim	20101014.114240	20101014.114406	8	0.011766	60	10	60-180	60	127	GapPrac	1	12	2	45	1	target	1	449	776	33573	11.765	11.754	11.777
ProbeTrack12	3	ProbeTrack	11.3	WolfelabSpurzheim	20101014.114240	20101014.114413	8	0.011766	60	10	60-180	60	126	GapPrac	1	13	2	1	0	distractor	1	508	746	34319	11.765	11.752	11.777
ProbeTrack12	3	ProbeTrack	11.3	WolfelabSpurzheim	20101014.114240	20101014.114419	8	0.011766	60	0	60-180	60	142	GapPrac	1	14	2	45	0	distractor	1	520	740	35059	11.765	11.713	11.821
ProbeTrack12	3	ProbeTrack	11.3	WolfelabSpurzheim	20101014.114240	20101014.114426	8	0.011766	60	10	60-180	60	173	GapPrac	1	15	2	0	1	target	1	437	782	35841	11.765	11.754	11.777
ProbeTrack12	3	ProbeTrack	11.3	WolfelabSpurzheim	20101014.114240	20101014.114433	8	0.011766	60	0	60-180	60	164	GapPrac	1	16	2	1	0	distractor	1	461	770	36611	11.765	11.752	11.776
ProbeTrack12	3	ProbeTrack	11.3	WolfelabSpurzheim	20101014.114240	20101014.114439	8	0.011766	60	10	60-180	60	72	GapPrac	1	17	2	45	0	distractor	1	485	758	37369	11.765	11.754	11.775
ProbeTrack12	3	ProbeTrack	11.3	WolfelabSpurzheim	20101014.114240	20101014.114445	8	0.011766	60	0	60-180	60	157	GapPrac	1	18	2	0	1	target	1	508	746	38115	11.765	11.754	11.778
ProbeTrack12	3	ProbeTrack	11.3	WolfelabSpurzheim	20101014.114240	20101014.114451	8	0.011766	60	10	60-180	60	171	GapPrac	1	19	2	1	1	target	1	438	781	38896	11.765	11.754	11.776
ProbeTrack12	3	ProbeTrack	11.3	WolfelabSpurzheim	20101014.114240	20101014.114458	8	0.011766	60	0	60-180	60	100	GapPrac	1	20	2	3	1	target	1	532	734	39630	11.765	11.754	11.775
ProbeTrack12	3	ProbeTrack	11.3	WolfelabSpurzheim	20101014.114534	20101014.114601	8	0.011766	60	10	60-180	60	71	GapExp	1	1	2	3	0	distractor	1	485	758	40388	11.940	11.753	23.533
ProbeTrack12	3	ProbeTrack	11.3	WolfelabSpurzheim	20101014.114534	20101014.114609	8	0.011766	60	10	60-180	60	179	GapExp	1	2	2	3	1	target	1	414	793	41181	11.842	11.750	11.782
ProbeTrack12	3	ProbeTrack	11.3	WolfelabSpurzheim	20101014.114534	20101014.114618	8	0.011766	60	10	60-180	60	83	GapExp	1	3	2	45	0	distractor	1	438	781	41962	11.765	11.753	11.778
ProbeTrack12	3	ProbeTrack	11.3	WolfelabSpurzheim	20101014.114534	20101014.114628	8	0.011766	60	0	60-180	60	90	GapExp	1	4	2	3	0	distractor	1	825	588	42550	11.817	11.754	23.525
ProbeTrack12	3	ProbeTrack	11.3	WolfelabSpurzheim	20101014.114534	20101014.114635	8	0.011766	60	0	60-180	60	100	GapExp	1	5	2	0	0	distractor	1	532	734	43284	11.765	11.755	11.776
ProbeTrack12	3	ProbeTrack	11.3	WolfelabSpurzheim	20101014.114534	20101014.114642	8	0.011766	60	0	60-180	60	61	GapExp	1	6	2	45	1	target	1	414	793	44077	11.765	11.754	11.776
ProbeTrack12	3	ProbeTrack	11.3	WolfelabSpurzheim	20101014.114534	20101014.114647	8	0.011766	60	0	60-180	60	114	GapExp	1	7	2	0	1	target	1	532	734	44811	11.765	11.754	11.775
ProbeTrack12	3	ProbeTrack	11.3	WolfelabSpurzheim	20101014.114534	20101014.114653	8	0.011766	60	0	60-180	60	82	GapExp	1	8	2	1	0	distractor	1	450	775	45586	11.765	11.754	11.774
ProbeTrack12	3	ProbeTrack	11.3	WolfelabSpurzheim	20101014.114534	20101014.114659	8	0.011766	60	10	60-180	60	107	GapExp	1	9	2	0	1	distractor	0	367	-1000	44586	11.765	11.753	11.777
ProbeTrack12	3	ProbeTrack	11.3	WolfelabSpurzheim	20101014.114534	20101014.114705	8	0.011766	60	10	60-180	60	106	GapExp	1	10	2	1	1	target	1	332	834	45420	11.765	11.755	11.778
ProbeTrack12	3	ProbeTrack	11.3	WolfelabSpurzheim	20101014.114534	20101014.114712	8	0.011766	60	10	60-180	60	174	GapExp	0	11	2	3	0	distractor	1	508	746	46166	11.765	11.753	11.777
ProbeTrack12	3	ProbeTrack	11.3	WolfelabSpurzheim	20101014.114534	20101014.114718	8	0.011766	60	10	60-180	60	75	GapExp	0	12	2	45	0	distractor	1	438	781	46947	11.765	11.754	11.776
ProbeTrack12	3	ProbeTrack	11.3	WolfelabSpurzheim	20101014.114534	20101014.114725	8	0.011766	60	10	60-180	60	179	GapExp	0	13	2	0	1	target	1	449	776	47723	11.765	11.754	11.777
ProbeTrack12	3	ProbeTrack	11.3	WolfelabSpurzheim	20101014.114534	20101014.114732	8	0.011766	60	0	60-180	60	147	GapExp	0	14	2	0	0	distractor	1	508	746	48469	11.765	11.755	11.775
ProbeTrack12	3	ProbeTrack	11.3	WolfelabSpurzheim	20101014.114534	20101014.114738	8	0.011766	60	10	60-180	60	98	GapExp	0	15	2	45	1	target	1	438	781	49250	11.765	11.755	11.777
ProbeTrack12	3	ProbeTrack	11.3	WolfelabSpurzheim	20101014.114534	20101014.114745	8	0.011766	60	10	60-180	60	162	GapExp	0	16	2	3	0	distractor	1	438	781	50031	11.765	11.753	11.776
ProbeTrack12	3	ProbeTrack	11.3	WolfelabSpurzheim	20101014.114534	20101014.114751	8	0.011766	60	0	60-180	60	86	GapExp	0	17	2	1	0	distractor	1	591	705	50736	11.765	11.754	11.775
ProbeTrack12	3	ProbeTrack	11.3	WolfelabSpurzheim	20101014.114534	20101014.114758	8	0.011766	60	10	60-180	60	102	GapExp	0	18	2	1	0	distractor	1	449	776	51512	11.765	11.754	11.776
ProbeTrack12	3	ProbeTrack	11.3	WolfelabSpurzheim	20101014.114534	20101014.114804	8	0.011766	60	0	60-180	60	166	GapExp	0	19	2	3	0	distractor	1	473	764	52276	11.765	11.752	11.777
ProbeTrack12	3	ProbeTrack	11.3	WolfelabSpurzheim	20101014.114534	20101014.114811	8	0.011766	60	0	60-180	60	101	GapExp	0	20	2	1	0	distractor	1	532	734	53010	11.765	11.754	11.776
ProbeTrack12	3	ProbeTrack	11.3	WolfelabSpurzheim	20101014.114534	20101014.114817	8	0.011766	60	10	60-180	60	80	GapExp	0	21	2	0	1	distractor	0	414	-1000	52010	11.765	11.750	11.776
ProbeTrack12	3	ProbeTrack	11.3	WolfelabSpurzheim	20101014.114534	20101014.114822	8	0.011766	60	10	60-180	60	169	GapExp	0	22	2	3	1	target	1	461	770	52780	11.765	11.754	11.776
ProbeTrack12	3	ProbeTrack	11.3	WolfelabSpurzheim	20101014.114534	20101014.114830	8	0.011766	60	10	60-180	60	136	GapExp	0	23	2	1	1	distractor	0	390	-1000	51780	11.765	11.755	11.777
ProbeTrack12	3	ProbeTrack	11.3	WolfelabSpurzheim	20101014.114534	20101014.114836	8	0.011766	60	0	60-180	60	170	GapExp	0	24	2	0	1	target	1	437	782	52562	11.765	11.755	11.777
ProbeTrack12	3	ProbeTrack	11.3	WolfelabSpurzheim	20101014.114534	20101014.114845	8	0.011766	60	0	60-180	60	160	GapExp	0	25	2	0	1	target	1	484	758	53320	11.765	11.739	11.784
ProbeTrack12	3	ProbeTrack	11.3	WolfelabSpurzheim	20101014.114534	20101014.114852	8	0.011766	60	10	60-180	60	164	GapExp	0	26	2	3	1	target	1	473	764	54084	11.765	11.754	11.776
ProbeTrack12	3	ProbeTrack	11.3	WolfelabSpurzheim	20101014.114534	20101014.114900	8	0.011766	60	0	60-180	60	113	GapExp	0	27	2	3	0	distractor	1	485	758	54842	11.765	11.754	11.775
ProbeTrack12	3	ProbeTrack	11.3	WolfelabSpurzheim	20101014.114534	20101014.114906	8	0.011766	60	0	60-180	60	134	GapExp	0	28	2	45	0	distractor	1	661	670	55512	11.765	11.753	11.777
ProbeTrack12	3	ProbeTrack	11.3	WolfelabSpurzheim	20101014.114534	20101014.114913	8	0.011766	60	0	60-180	60	91	GapExp	0	29	2	3	1	target	1	485	758	56270	11.765	11.738	11.791
ProbeTrack12	3	ProbeTrack	11.3	WolfelabSpurzheim	20101014.114534	20101014.114919	8	0.011766	60	10	60-180	60	62	GapExp	0	30	2	45	0	distractor	1	473	764	57034	11.765	11.752	11.777
ProbeTrack12	3	ProbeTrack	11.3	WolfelabSpurzheim	20101014.114534	20101014.114926	8	0.011766	60	10	60-180	60	98	GapExp	0	31	2	1	1	target	1	344	828	57862	11.765	11.754	11.775
ProbeTrack12	3	ProbeTrack	11.3	WolfelabSpurzheim	20101014.114534	20101014.114932	8	0.011766	60	0	60-180	60	149	GapExp	0	32	2	45	0	distractor	1	567	717	58579	11.765	11.754	11.776
ProbeTrack12	3	ProbeTrack	11.3	WolfelabSpurzheim	20101014.114534	20101014.114939	8	0.011766	60	0	60-180	60	127	GapExp	0	33	2	3	0	distractor	1	485	758	59337	11.765	11.753	11.777
ProbeTrack12	3	ProbeTrack	11.3	WolfelabSpurzheim	20101014.114534	20101014.114945	8	0.011766	60	10	60-180	60	79	GapExp	0	34	2	1	1	target	1	391	805	60142	11.765	11.755	11.777
ProbeTrack12	3	ProbeTrack	11.3	WolfelabSpurzheim	20101014.114534	20101014.114951	8	0.011766	60	10	60-180	60	95	GapExp	0	35	2	3	0	distractor	1	414	793	60935	11.765	11.743	11.796
ProbeTrack12	3	ProbeTrack	11.3	WolfelabSpurzheim	20101014.114534	20101014.114958	8	0.011766	60	0	60-180	60	147	GapExp	0	36	2	1	0	distractor	1	555	723	61658	11.765	11.678	11.855
ProbeTrack12	3	ProbeTrack	11.3	WolfelabSpurzheim	20101014.114534	20101014.115004	8	0.011766	60	0	60-180	60	84	GapExp	0	37	2	3	0	distractor	1	614	693	62351	11.765	11.752	11.776
ProbeTrack12	3	ProbeTrack	11.3	WolfelabSpurzheim	20101014.114534	20101014.115010	8	0.011766	60	10	60-180	60	159	GapExp	0	38	2	45	1	target	1	485	758	63109	11.765	11.754	11.776
ProbeTrack12	3	ProbeTrack	11.3	WolfelabSpurzheim	20101014.114534	20101014.115018	8	0.011766	60	0	60-180	60	122	GapExp	0	39	2	1	0	distractor	1	461	770	63879	11.765	11.739	11.789
ProbeTrack12	3	ProbeTrack	11.3	WolfelabSpurzheim	20101014.114534	20101014.115025	8	0.011766	60	0	60-180	60	118	GapExp	0	40	2	45	1	target	1	520	740	64619	11.765	11.754	11.777
ProbeTrack12	3	ProbeTrack	11.3	WolfelabSpurzheim	20101014.114534	20101014.115032	8	0.011766	60	0	60-180	60	99	GapExp	0	41	2	45	0	distractor	1	461	770	65389	11.765	11.753	11.776
ProbeTrack12	3	ProbeTrack	11.3	WolfelabSpurzheim	20101014.114534	20101014.115040	8	0.011766	60	0	60-180	60	100	GapExp	0	42	2	3	0	distractor	1	497	752	66141	11.765	11.753	11.776
ProbeTrack12	3	ProbeTrack	11.3	WolfelabSpurzheim	20101014.114534	20101014.115046	8	0.011766	60	10	60-180	60	78	GapExp	0	43	2	0	1	target	1	743	629	66770	11.765	11.754	11.777
ProbeTrack12	3	ProbeTrack	11.3	WolfelabSpurzheim	20101014.114534	20101014.115052	8	0.011766	60	10	60-180	60	64	GapExp	0	44	2	3	0	distractor	1	367	817	67587	11.765	11.754	11.777
ProbeTrack12	3	ProbeTrack	11.3	WolfelabSpurzheim	20101014.114534	20101014.115058	8	0.011766	60	0	60-180	60	137	GapExp	0	45	2	3	1	target	1	390	805	68392	11.765	11.754	11.777
ProbeTrack12	3	ProbeTrack	11.3	WolfelabSpurzheim	20101014.114534	20101014.115107	8	0.011766	60	0	60-180	60	63	GapExp	0	46	2	1	1	target	1	591	705	69097	11.765	11.754	11.776
ProbeTrack12	3	ProbeTrack	11.3	WolfelabSpurzheim	20101014.114534	20101014.115113	8	0.011766	60	10	60-180	60	96	GapExp	0	47	2	0	1	target	1	320	840	69937	11.765	11.755	11.779
ProbeTrack12	3	ProbeTrack	11.3	WolfelabSpurzheim	20101014.114534	20101014.115119	8	0.011766	60	0	60-180	60	115	GapExp	0	48	2	45	0	distractor	1	438	781	70718	11.765	11.754	11.777
ProbeTrack12	3	ProbeTrack	11.3	WolfelabSpurzheim	20101014.114534	20101014.115126	8	0.011766	60	0	60-180	60	92	GapExp	0	49	2	3	0	distractor	1	473	764	71482	11.765	11.754	11.775
ProbeTrack12	3	ProbeTrack	11.3	WolfelabSpurzheim	20101014.114534	20101014.115132	8	0.011766	60	0	60-180	60	90	GapExp	0	50	2	1	1	target	1	461	770	72252	11.765	11.755	11.776
ProbeTrack12	3	ProbeTrack	11.3	WolfelabSpurzheim	20101014.114534	20101014.115138	8	0.011766	60	0	60-180	60	152	GapExp	0	51	2	45	1	target	1	379	811	73063	11.765	11.748	11.776
ProbeTrack12	3	ProbeTrack	11.3	WolfelabSpurzheim	20101014.114534	20101014.115145	8	0.011766	60	10	60-180	60	76	GapExp	0	52	2	45	0	distractor	1	485	758	73821	11.765	11.754	11.777
ProbeTrack12	3	ProbeTrack	11.3	WolfelabSpurzheim	20101014.114534	20101014.115151	8	0.011766	60	0	60-180	60	177	GapExp	0	53	2	0	1	target	1	438	781	74602	11.765	11.754	11.778
ProbeTrack12	3	ProbeTrack	11.3	WolfelabSpurzheim	20101014.114534	20101014.115159	8	0.011766	60	10	60-180	60	80	GapExp	0	54	2	1	1	target	1	367	817	75419	11.765	11.755	11.776
ProbeTrack12	3	ProbeTrack	11.3	WolfelabSpurzheim	20101014.114534	20101014.115205	8	0.011766	60	10	60-180	60	154	GapExp	0	55	2	45	1	target	1	532	734	76153	11.765	11.749	11.778
ProbeTrack12	3	ProbeTrack	11.3	WolfelabSpurzheim	20101014.114534	20101014.115214	8	0.011766	60	10	60-180	60	64	GapExp	0	56	2	1	1	target	1	426	787	76940	11.765	11.743	11.780
ProbeTrack12	3	ProbeTrack	11.3	WolfelabSpurzheim	20101014.114534	20101014.115222	8	0.011766	60	0	60-180	60	111	GapExp	0	57	2	1	1	target	1	379	811	77751	11.765	11.754	11.775
ProbeTrack12	3	ProbeTrack	11.3	WolfelabSpurzheim	20101014.114534	20101014.115228	8	0.011766	60	0	60-180	60	144	GapExp	0	58	2	1	1	target	1	379	811	78562	11.765	11.755	11.776
ProbeTrack12	3	ProbeTrack	11.3	WolfelabSpurzheim	20101014.114534	20101014.115234	8	0.011766	60	10	60-180	60	74	GapExp	0	59	2	45	0	distractor	1	450	775	79337	11.765	11.753	11.777
ProbeTrack12	3	ProbeTrack	11.3	WolfelabSpurzheim	20101014.114534	20101014.115240	8	0.011766	60	10	60-180	60	103	GapExp	0	60	2	3	0	distractor	1	461	770	80107	11.765	11.753	11.776
ProbeTrack12	3	ProbeTrack	11.3	WolfelabSpurzheim	20101014.114534	20101014.115247	8	0.011766	60	0	60-180	60	93	GapExp	0	61	2	0	0	distractor	1	520	740	80847	11.765	11.755	11.777
ProbeTrack12	3	ProbeTrack	11.3	WolfelabSpurzheim	20101014.114534	20101014.115253	8	0.011766	60	10	60-180	60	104	GapExp	0	62	2	45	0	distractor	1	567	717	81564	11.765	11.754	11.777
ProbeTrack12	3	ProbeTrack	11.3	WolfelabSpurzheim	20101014.114534	20101014.115259	8	0.011766	60	0	60-180	60	156	GapExp	0	63	2	0	0	distractor	1	496	752	82316	11.765	11.754	11.778
ProbeTrack12	3	ProbeTrack	11.3	WolfelabSpurzheim	20101014.114534	20101014.115306	8	0.011766	60	10	60-180	60	129	GapExp	0	64	2	3	1	target	1	449	776	83092	11.765	11.753	11.777
ProbeTrack12	3	ProbeTrack	11.3	WolfelabSpurzheim	20101014.114534	20101014.115312	8	0.011766	60	10	60-180	60	174	GapExp	0	65	2	0	1	target	1	449	776	83868	11.765	11.753	11.777
ProbeTrack12	3	ProbeTrack	11.3	WolfelabSpurzheim	20101014.114534	20101014.115320	8	0.011766	60	0	60-180	60	172	GapExp	0	66	2	45	1	target	1	402	799	84667	11.765	11.754	11.778
ProbeTrack12	3	ProbeTrack	11.3	WolfelabSpurzheim	20101014.114534	20101014.115328	8	0.011766	60	10	60-180	60	63	GapExp	0	67	2	3	0	distractor	1	661	670	85337	11.765	11.753	11.776
ProbeTrack12	3	ProbeTrack	11.3	WolfelabSpurzheim	20101014.114534	20101014.115333	8	0.011766	60	0	60-180	60	76	GapExp	0	68	2	3	0	distractor	1	520	740	86077	11.765	11.753	11.775
ProbeTrack12	3	ProbeTrack	11.3	WolfelabSpurzheim	20101014.114534	20101014.115340	8	0.011766	60	10	60-180	60	101	GapExp	0	69	2	1	1	target	1	391	805	86882	11.765	11.755	11.776
ProbeTrack12	3	ProbeTrack	11.3	WolfelabSpurzheim	20101014.114534	20101014.115346	8	0.011766	60	10	60-180	60	97	GapExp	0	70	2	45	0	target	0	473	-1000	85882	11.765	11.754	11.775
ProbeTrack12	3	ProbeTrack	11.3	WolfelabSpurzheim	20101014.114534	20101014.115354	8	0.011766	60	0	60-180	60	138	GapExp	0	71	2	0	1	target	1	449	776	86658	11.765	11.754	11.776
ProbeTrack12	3	ProbeTrack	11.3	WolfelabSpurzheim	20101014.114534	20101014.115401	8	0.011766	60	10	60-180	60	147	GapExp	0	72	2	3	1	target	1	496	752	87410	11.765	11.754	11.777
ProbeTrack12	3	ProbeTrack	11.3	WolfelabSpurzheim	20101014.114534	20101014.115408	8	0.011766	60	0	60-180	60	84	GapExp	0	73	2	45	1	target	1	438	781	88191	11.765	11.748	11.782
ProbeTrack12	3	ProbeTrack	11.3	WolfelabSpurzheim	20101014.114534	20101014.115414	8	0.011766	60	10	60-180	60	139	GapExp	0	74	2	1	0	distractor	1	449	776	88967	11.765	11.754	11.775
ProbeTrack12	3	ProbeTrack	11.3	WolfelabSpurzheim	20101014.114534	20101014.115421	8	0.011766	60	10	60-180	60	77	GapExp	0	75	2	45	0	distractor	1	520	740	89707	11.765	11.753	11.776
ProbeTrack12	3	ProbeTrack	11.3	WolfelabSpurzheim	20101014.114534	20101014.115427	8	0.011766	60	0	60-180	60	114	GapExp	0	76	2	0	1	target	1	496	752	90459	11.765	11.754	11.776
ProbeTrack12	3	ProbeTrack	11.3	WolfelabSpurzheim	20101014.114534	20101014.115435	8	0.011766	60	10	60-180	60	80	GapExp	0	77	2	45	0	distractor	1	473	764	91223	11.765	11.754	11.776
ProbeTrack12	3	ProbeTrack	11.3	WolfelabSpurzheim	20101014.114534	20101014.115442	8	0.011766	60	0	60-180	60	167	GapExp	0	78	2	3	0	distractor	1	449	776	91999	11.765	11.754	11.776
ProbeTrack12	3	ProbeTrack	11.3	WolfelabSpurzheim	20101014.114534	20101014.115449	8	0.011766	60	10	60-180	60	124	GapExp	0	79	2	45	0	distractor	1	531	735	92734	11.765	11.754	11.776
ProbeTrack12	3	ProbeTrack	11.3	WolfelabSpurzheim	20101014.114534	20101014.115456	8	0.011766	60	0	60-180	60	124	GapExp	0	80	2	1	0	distractor	1	498	751	93485	11.765	11.754	11.776
ProbeTrack12	3	ProbeTrack	11.3	WolfelabSpurzheim	20101014.114534	20101014.115503	8	0.011766	60	0	60-180	60	69	GapExp	0	81	2	0	1	target	1	391	805	94290	11.765	11.754	11.775
ProbeTrack12	3	ProbeTrack	11.3	WolfelabSpurzheim	20101014.114534	20101014.115508	8	0.011766	60	10	60-180	60	75	GapExp	0	82	2	45	1	target	1	391	805	95095	11.765	11.750	11.780
ProbeTrack12	3	ProbeTrack	11.3	WolfelabSpurzheim	20101014.114534	20101014.115515	8	0.011766	60	10	60-180	60	120	GapExp	0	83	2	45	0	distractor	1	379	811	95906	11.765	11.755	11.776
ProbeTrack12	3	ProbeTrack	11.3	WolfelabSpurzheim	20101014.114534	20101014.115522	8	0.011766	60	0	60-180	60	93	GapExp	0	84	2	0	0	distractor	1	532	734	96640	11.765	11.754	11.776
ProbeTrack12	3	ProbeTrack	11.3	WolfelabSpurzheim	20101014.114534	20101014.115528	8	0.011766	60	0	60-180	60	122	GapExp	0	85	2	3	1	target	1	402	799	97439	11.765	11.755	11.776
ProbeTrack12	3	ProbeTrack	11.3	WolfelabSpurzheim	20101014.114534	20101014.115537	8	0.011766	60	0	60-180	60	94	GapExp	0	86	2	3	1	target	1	391	805	98244	11.765	11.737	11.793
ProbeTrack12	3	ProbeTrack	11.3	WolfelabSpurzheim	20101014.114534	20101014.115543	8	0.011766	60	10	60-180	60	89	GapExp	0	87	2	3	1	target	1	403	799	99043	11.765	11.754	11.776
ProbeTrack12	3	ProbeTrack	11.3	WolfelabSpurzheim	20101014.114534	20101014.115551	8	0.011766	60	10	60-180	60	162	GapExp	0	88	2	45	1	target	1	438	781	99824	11.765	11.754	11.776
ProbeTrack12	3	ProbeTrack	11.3	WolfelabSpurzheim	20101014.114534	20101014.115559	8	0.011766	60	10	60-180	60	121	GapExp	0	89	2	3	0	target	0	367	-1000	98824	11.765	11.754	11.777
ProbeTrack12	3	ProbeTrack	11.3	WolfelabSpurzheim	20101014.114534	20101014.115605	8	0.011766	60	10	60-180	60	154	GapExp	0	90	2	3	0	distractor	1	520	740	99564	11.765	11.753	11.782
ProbeTrack12	3	ProbeTrack	11.3	WolfelabSpurzheim	20101014.114534	20101014.115613	8	0.011766	60	0	60-180	60	97	GapExp	0	91	2	0	1	target	1	590	705	100269	11.765	11.753	11.776
ProbeTrack12	3	ProbeTrack	11.3	WolfelabSpurzheim	20101014.114534	20101014.115620	8	0.011766	60	0	60-180	60	73	GapExp	0	92	2	0	1	target	1	461	770	101039	11.765	11.748	11.776
ProbeTrack12	3	ProbeTrack	11.3	WolfelabSpurzheim	20101014.114534	20101014.115626	8	0.011766	60	0	60-180	60	164	GapExp	0	93	2	0	1	target	1	379	811	101850	11.765	11.754	11.777
ProbeTrack12	3	ProbeTrack	11.3	WolfelabSpurzheim	20101014.114534	20101014.115633	8	0.011766	60	10	60-180	60	95	GapExp	0	94	2	45	0	distractor	1	449	776	102626	11.765	11.748	11.780
ProbeTrack12	3	ProbeTrack	11.3	WolfelabSpurzheim	20101014.114534	20101014.115640	8	0.011766	60	10	60-180	60	124	GapExp	0	95	2	1	1	target	1	438	781	103407	11.765	11.755	11.775
ProbeTrack12	3	ProbeTrack	11.3	WolfelabSpurzheim	20101014.114534	20101014.115647	8	0.011766	60	10	60-180	60	144	GapExp	0	96	2	0	1	target	1	450	775	104182	11.765	11.754	11.776
ProbeTrack12	3	ProbeTrack	11.3	WolfelabSpurzheim	20101014.114534	20101014.115653	8	0.011766	60	0	60-180	60	81	GapExp	0	97	2	0	0	distractor	1	555	723	104905	11.765	11.754	11.776
ProbeTrack12	3	ProbeTrack	11.3	WolfelabSpurzheim	20101014.114534	20101014.115702	8	0.011766	60	0	60-180	60	143	GapExp	0	98	2	1	0	distractor	1	461	770	105675	11.765	11.753	11.777
ProbeTrack12	3	ProbeTrack	11.3	WolfelabSpurzheim	20101014.114534	20101014.115708	8	0.011766	60	0	60-180	60	158	GapExp	0	99	2	3	1	target	1	449	776	106451	11.765	11.755	11.776
ProbeTrack12	3	ProbeTrack	11.3	WolfelabSpurzheim	20101014.114534	20101014.115717	8	0.011766	60	0	60-180	60	141	GapExp	0	100	2	3	0	distractor	1	696	652	107103	11.765	11.755	11.776
ProbeTrack12	3	ProbeTrack	11.3	WolfelabSpurzheim	20101014.114534	20101014.115724	8	0.011766	60	10	60-180	60	162	GapExp	0	101	2	3	1	target	1	355	823	107926	11.765	11.753	11.776
ProbeTrack12	3	ProbeTrack	11.3	WolfelabSpurzheim	20101014.114534	20101014.115731	8	0.011766	60	10	60-180	60	138	GapExp	0	102	2	0	0	distractor	1	461	770	108696	11.765	11.754	11.776
ProbeTrack12	3	ProbeTrack	11.3	WolfelabSpurzheim	20101014.114534	20101014.115738	8	0.011766	60	10	60-180	60	112	GapExp	0	103	2	3	0	distractor	1	755	623	109319	11.765	11.752	11.777
ProbeTrack12	3	ProbeTrack	11.3	WolfelabSpurzheim	20101014.114534	20101014.115745	8	0.011766	60	0	60-180	60	116	GapExp	0	104	2	1	1	target	1	485	758	110077	11.765	11.753	11.776
ProbeTrack12	3	ProbeTrack	11.3	WolfelabSpurzheim	20101014.114534	20101014.115751	8	0.011766	60	10	60-180	60	107	GapExp	0	105	2	3	1	target	1	379	811	110888	11.765	11.756	11.776
ProbeTrack12	3	ProbeTrack	11.3	WolfelabSpurzheim	20101014.114534	20101014.115758	8	0.011766	60	0	60-180	60	65	GapExp	0	106	2	45	0	distractor	1	473	764	111652	11.765	11.754	11.777
ProbeTrack12	3	ProbeTrack	11.3	WolfelabSpurzheim	20101014.114534	20101014.115804	8	0.011766	60	10	60-180	60	69	GapExp	0	107	2	3	0	distractor	1	414	793	112445	11.765	11.753	11.774
ProbeTrack12	3	ProbeTrack	11.3	WolfelabSpurzheim	20101014.114534	20101014.115810	8	0.011766	60	10	60-180	60	117	GapExp	0	108	2	0	0	distractor	1	684	658	113103	11.765	11.753	11.775
ProbeTrack12	3	ProbeTrack	11.3	WolfelabSpurzheim	20101014.114534	20101014.115816	8	0.011766	60	0	60-180	60	151	GapExp	0	109	2	1	0	distractor	1	438	781	113884	11.765	11.731	11.800
ProbeTrack12	3	ProbeTrack	11.3	WolfelabSpurzheim	20101014.114534	20101014.115823	8	0.011766	60	0	60-180	60	167	GapExp	0	110	2	3	1	target	1	355	823	114707	11.765	11.754	11.776
ProbeTrack12	3	ProbeTrack	11.3	WolfelabSpurzheim	20101014.114534	20101014.115830	8	0.011766	60	0	60-180	60	63	GapExp	0	111	2	0	0	distractor	1	497	752	115459	11.765	11.753	11.777
ProbeTrack12	3	ProbeTrack	11.3	WolfelabSpurzheim	20101014.114534	20101014.115836	8	0.011766	60	0	60-180	60	174	GapExp	0	112	2	1	1	target	1	414	793	116252	11.765	11.753	11.777
ProbeTrack12	3	ProbeTrack	11.3	WolfelabSpurzheim	20101014.114534	20101014.115843	8	0.011766	60	10	60-180	60	62	GapExp	0	113	2	0	1	target	1	390	805	117057	11.765	11.753	11.777
ProbeTrack12	3	ProbeTrack	11.3	WolfelabSpurzheim	20101014.114534	20101014.115848	8	0.011766	60	0	60-180	60	140	GapExp	0	114	2	3	1	target	1	461	770	117827	11.765	11.755	11.777
ProbeTrack12	3	ProbeTrack	11.3	WolfelabSpurzheim	20101014.114534	20101014.115855	8	0.011766	60	0	60-180	60	144	GapExp	0	115	2	0	1	target	1	414	793	118620	11.765	11.753	11.778
ProbeTrack12	3	ProbeTrack	11.3	WolfelabSpurzheim	20101014.114534	20101014.115901	8	0.011766	60	0	60-180	60	170	GapExp	0	116	2	45	1	target	1	379	811	119431	11.765	11.753	11.777
ProbeTrack12	3	ProbeTrack	11.3	WolfelabSpurzheim	20101014.114534	20101014.115908	8	0.011766	60	10	60-180	60	167	GapExp	0	117	2	1	1	target	1	355	823	120254	11.765	11.727	11.797
ProbeTrack12	3	ProbeTrack	11.3	WolfelabSpurzheim	20101014.114534	20101014.115915	8	0.011766	60	0	60-180	60	116	GapExp	0	118	2	1	0	distractor	1	661	670	120924	11.765	11.754	11.777
ProbeTrack12	3	ProbeTrack	11.3	WolfelabSpurzheim	20101014.114534	20101014.115921	8	0.011766	60	0	60-180	60	168	GapExp	0	119	2	45	1	target	1	508	746	121670	11.765	11.754	11.776
ProbeTrack12	3	ProbeTrack	11.3	WolfelabSpurzheim	20101014.114534	20101014.115929	8	0.011766	60	10	60-180	60	134	GapExp	0	120	2	1	0	distractor	1	461	770	122440	11.765	11.754	11.777
ProbeTrack12	3	ProbeTrack	11.3	WolfelabSpurzheim	20101014.114534	20101014.115937	8	0.011766	60	0	60-180	60	164	GapExp	0	121	2	45	0	distractor	1	696	652	123092	11.765	11.753	11.777
ProbeTrack12	3	ProbeTrack	11.3	WolfelabSpurzheim	20101014.114534	20101014.115945	8	0.011766	60	0	60-180	60	76	GapExp	0	122	2	3	1	target	1	414	793	123885	11.765	11.754	11.775
ProbeTrack12	3	ProbeTrack	11.3	WolfelabSpurzheim	20101014.114534	20101014.115951	8	0.011766	60	10	60-180	60	132	GapExp	0	123	2	3	0	distractor	1	532	734	124619	11.765	11.754	11.777
ProbeTrack12	3	ProbeTrack	11.3	WolfelabSpurzheim	20101014.114534	20101014.115957	8	0.011766	60	10	60-180	60	122	GapExp	0	124	2	1	0	distractor	1	591	705	125324	11.765	11.754	11.777
ProbeTrack12	3	ProbeTrack	11.3	WolfelabSpurzheim	20101014.114534	20101014.120004	8	0.011766	60	10	60-180	60	151	GapExp	0	125	2	45	1	target	1	555	723	126047	11.765	11.753	11.776
ProbeTrack12	3	ProbeTrack	11.3	WolfelabSpurzheim	20101014.114534	20101014.120012	8	0.011766	60	0	60-180	60	118	GapExp	0	126	2	45	1	target	1	426	787	126834	11.765	11.692	11.827
ProbeTrack12	3	ProbeTrack	11.3	WolfelabSpurzheim	20101014.114534	20101014.120020	8	0.011766	60	0	60-180	60	132	GapExp	0	127	2	0	1	target	1	367	817	127651	11.765	11.755	11.776
ProbeTrack12	3	ProbeTrack	11.3	WolfelabSpurzheim	20101014.114534	20101014.120026	8	0.011766	60	10	60-180	60	62	GapExp	0	128	2	3	0	distractor	1	449	776	128427	11.765	11.754	11.775
ProbeTrack12	3	ProbeTrack	11.3	WolfelabSpurzheim	20101014.114534	20101014.120032	8	0.011766	60	0	60-180	60	136	GapExp	0	129	2	0	0	distractor	1	449	776	129203	11.765	11.753	11.785
ProbeTrack12	3	ProbeTrack	11.3	WolfelabSpurzheim	20101014.114534	20101014.120038	8	0.011766	60	0	60-180	60	121	GapExp	0	130	2	1	1	target	1	461	770	129973	11.765	11.754	11.777
ProbeTrack12	3	ProbeTrack	11.3	WolfelabSpurzheim	20101014.114534	20101014.120045	8	0.011766	60	10	60-180	60	174	GapExp	0	131	2	1	0	distractor	1	414	793	130766	11.765	11.755	11.777
ProbeTrack12	3	ProbeTrack	11.3	WolfelabSpurzheim	20101014.114534	20101014.120052	8	0.011766	60	10	60-180	60	130	GapExp	0	132	2	0	0	distractor	1	484	758	131524	11.765	11.754	11.777
ProbeTrack12	3	ProbeTrack	11.3	WolfelabSpurzheim	20101014.114534	20101014.120059	8	0.011766	60	0	60-180	60	124	GapExp	0	133	2	0	0	distractor	1	602	699	132223	11.765	11.754	11.776
ProbeTrack12	3	ProbeTrack	11.3	WolfelabSpurzheim	20101014.114534	20101014.120106	8	0.011766	60	10	60-180	60	79	GapExp	0	134	2	0	0	distractor	1	508	746	132969	11.765	11.724	11.809
ProbeTrack12	3	ProbeTrack	11.3	WolfelabSpurzheim	20101014.114534	20101014.120112	8	0.011766	60	10	60-180	60	176	GapExp	0	135	2	0	0	distractor	1	532	734	133703	11.765	11.755	11.777
ProbeTrack12	3	ProbeTrack	11.3	WolfelabSpurzheim	20101014.114534	20101014.120120	8	0.011766	60	0	60-180	60	179	GapExp	0	136	2	0	0	distractor	1	731	635	134338	11.765	11.754	11.776
ProbeTrack12	3	ProbeTrack	11.3	WolfelabSpurzheim	20101014.114534	20101014.120128	8	0.011766	60	10	60-180	60	84	GapExp	0	137	2	1	1	target	1	355	823	135161	11.765	11.755	11.775
ProbeTrack12	3	ProbeTrack	11.3	WolfelabSpurzheim	20101014.114534	20101014.120133	8	0.011766	60	10	60-180	60	145	GapExp	0	138	2	0	0	distractor	1	637	682	135843	11.765	11.753	11.777
ProbeTrack12	3	ProbeTrack	11.3	WolfelabSpurzheim	20101014.114534	20101014.120141	8	0.011766	60	10	60-180	60	165	GapExp	0	139	2	45	1	target	1	402	799	136642	11.765	11.754	11.776
ProbeTrack12	3	ProbeTrack	11.3	WolfelabSpurzheim	20101014.114534	20101014.120148	8	0.011766	60	0	60-180	60	69	GapExp	0	140	2	3	0	distractor	1	520	740	137382	11.765	11.754	11.776
ProbeTrack12	3	ProbeTrack	11.3	WolfelabSpurzheim	20101014.114534	20101014.120154	8	0.011766	60	0	60-180	60	146	GapExp	0	141	2	0	0	distractor	1	696	652	138034	11.765	11.753	11.776
ProbeTrack12	3	ProbeTrack	11.3	WolfelabSpurzheim	20101014.114534	20101014.120201	8	0.011766	60	10	60-180	60	178	GapExp	0	142	2	45	0	target	0	661	-1000	137034	11.765	11.754	11.776
ProbeTrack12	3	ProbeTrack	11.3	WolfelabSpurzheim	20101014.114534	20101014.120209	8	0.011766	60	10	60-180	60	66	GapExp	0	143	2	45	0	distractor	1	461	770	137804	11.765	11.753	11.777
ProbeTrack12	3	ProbeTrack	11.3	WolfelabSpurzheim	20101014.114534	20101014.120217	8	0.011766	60	0	60-180	60	111	GapExp	0	144	2	1	1	distractor	0	485	-1000	136804	11.765	11.754	11.776
ProbeTrack12	3	ProbeTrack	11.3	WolfelabSpurzheim	20101014.114534	20101014.120223	8	0.011766	60	0	60-180	60	113	GapExp	0	145	2	45	1	target	1	390	805	137609	11.765	11.754	11.777
ProbeTrack12	3	ProbeTrack	11.3	WolfelabSpurzheim	20101014.114534	20101014.120231	8	0.011766	60	10	60-180	60	170	GapExp	0	146	2	0	1	target	1	402	799	138408	11.765	11.735	11.804
ProbeTrack12	3	ProbeTrack	11.3	WolfelabSpurzheim	20101014.114534	20101014.120238	8	0.011766	60	10	60-180	60	113	GapExp	0	147	2	3	1	target	1	426	787	139195	11.765	11.755	11.777
ProbeTrack12	3	ProbeTrack	11.3	WolfelabSpurzheim	20101014.114534	20101014.120245	8	0.011766	60	10	60-180	60	100	GapExp	0	148	2	0	0	distractor	1	543	729	139924	11.765	11.754	11.775
ProbeTrack12	3	ProbeTrack	11.3	WolfelabSpurzheim	20101014.114534	20101014.120252	8	0.011766	60	0	60-180	60	170	GapExp	0	149	2	3	1	target	1	426	787	140711	11.765	11.753	11.776
ProbeTrack12	3	ProbeTrack	11.3	WolfelabSpurzheim	20101014.114534	20101014.120259	8	0.011766	60	10	60-180	60	138	GapExp	0	150	2	1	0	distractor	1	426	787	141498	11.765	11.754	11.777
ProbeTrack12	3	ProbeTrack	11.3	WolfelabSpurzheim	20101014.114534	20101014.120306	8	0.011766	60	10	60-180	60	95	GapExp	0	151	2	3	1	target	1	555	723	142221	11.765	11.755	11.776
ProbeTrack12	3	ProbeTrack	11.3	WolfelabSpurzheim	20101014.114534	20101014.120313	8	0.011766	60	10	60-180	60	179	GapExp	0	152	2	45	0	distractor	1	497	752	142973	11.765	11.754	11.776
ProbeTrack12	3	ProbeTrack	11.3	WolfelabSpurzheim	20101014.114534	20101014.120320	8	0.011766	60	10	60-180	60	157	GapExp	0	153	2	1	1	target	1	391	805	143778	11.765	11.722	11.811
ProbeTrack12	3	ProbeTrack	11.3	WolfelabSpurzheim	20101014.114534	20101014.120326	8	0.011766	60	10	60-180	60	178	GapExp	0	154	2	45	1	target	1	414	793	144571	11.765	11.754	11.777
ProbeTrack12	3	ProbeTrack	11.3	WolfelabSpurzheim	20101014.114534	20101014.120334	8	0.011766	60	10	60-180	60	153	GapExp	0	155	2	0	0	distractor	1	473	764	145335	11.765	11.747	11.780
ProbeTrack12	3	ProbeTrack	11.3	WolfelabSpurzheim	20101014.114534	20101014.120341	8	0.011766	60	10	60-180	60	93	GapExp	0	156	2	3	1	target	1	496	752	146087	11.765	11.754	11.777
ProbeTrack12	3	ProbeTrack	11.3	WolfelabSpurzheim	20101014.114534	20101014.120347	8	0.011766	60	0	60-180	60	152	GapExp	0	157	2	45	1	target	1	379	811	146898	11.765	11.754	11.778
ProbeTrack12	3	ProbeTrack	11.3	WolfelabSpurzheim	20101014.114534	20101014.120355	8	0.011766	60	10	60-180	60	148	GapExp	0	158	2	3	0	target	0	508	-1000	145898	11.765	11.754	11.779
ProbeTrack12	3	ProbeTrack	11.3	WolfelabSpurzheim	20101014.114534	20101014.120401	8	0.011766	60	0	60-180	60	106	GapExp	0	159	2	0	0	target	0	590	-1000	144898	11.765	11.754	11.775
ProbeTrack12	3	ProbeTrack	11.3	WolfelabSpurzheim	20101014.114534	20101014.120408	8	0.011766	60	10	60-180	60	115	GapExp	0	160	2	3	1	target	1	508	746	145644	11.765	11.754	11.777
ProbeTrack12	3	ProbeTrack	11.3	WolfelabSpurzheim	20101014.114534	20101014.120415	8	0.011766	60	10	60-180	60	104	GapExp	0	161	2	0	1	target	1	390	805	146449	11.765	11.755	11.776
ProbeTrack12	3	ProbeTrack	11.3	WolfelabSpurzheim	20101014.114534	20101014.120422	8	0.011766	60	10	60-180	60	71	GapExp	0	162	2	0	0	distractor	1	508	746	147195	11.765	11.755	11.776
ProbeTrack12	3	ProbeTrack	11.3	WolfelabSpurzheim	20101014.114534	20101014.120428	8	0.011766	60	10	60-180	60	161	GapExp	0	163	2	1	0	distractor	1	473	764	147959	11.765	11.755	11.774
ProbeTrack12	3	ProbeTrack	11.3	WolfelabSpurzheim	20101014.114534	20101014.120436	8	0.011766	60	0	60-180	60	71	GapExp	0	164	2	45	0	distractor	1	496	752	148711	11.765	11.753	11.776
ProbeTrack12	3	ProbeTrack	11.3	WolfelabSpurzheim	20101014.114534	20101014.120442	8	0.011766	60	10	60-180	60	105	GapExp	0	165	2	45	1	target	1	544	728	149439	11.765	11.754	11.776
ProbeTrack12	3	ProbeTrack	11.3	WolfelabSpurzheim	20101014.114534	20101014.120451	8	0.011766	60	0	60-180	60	171	GapExp	0	166	2	3	1	target	1	402	799	150238	11.765	11.753	11.776
ProbeTrack12	3	ProbeTrack	11.3	WolfelabSpurzheim	20101014.114534	20101014.120458	8	0.011766	60	10	60-180	60	105	GapExp	0	167	2	1	1	target	1	696	652	150890	11.765	11.754	11.776
ProbeTrack12	3	ProbeTrack	11.3	WolfelabSpurzheim	20101014.114534	20101014.120505	8	0.011766	60	0	60-180	60	66	GapExp	0	168	2	3	0	distractor	1	602	699	151589	11.765	11.755	11.775
ProbeTrack12	3	ProbeTrack	11.3	WolfelabSpurzheim	20101014.114534	20101014.120512	8	0.011766	60	0	60-180	60	102	GapExp	0	169	2	45	1	target	1	391	805	152394	11.765	11.753	11.775
ProbeTrack12	3	ProbeTrack	11.3	WolfelabSpurzheim	20101014.114534	20101014.120519	8	0.011766	60	0	60-180	60	92	GapExp	0	170	2	45	0	distractor	1	461	770	153164	11.765	11.753	11.777
ProbeTrack12	3	ProbeTrack	11.3	WolfelabSpurzheim	20101014.114534	20101014.120526	8	0.011766	60	0	60-180	60	111	GapExp	0	171	2	1	0	distractor	1	532	734	153898	11.765	11.754	11.775
ProbeTrack12	3	ProbeTrack	11.3	WolfelabSpurzheim	20101014.114534	20101014.120531	8	0.011766	60	0	60-180	60	173	GapExp	0	172	2	0	0	distractor	1	532	734	154632	11.765	11.735	11.794
ProbeTrack12	3	ProbeTrack	11.3	WolfelabSpurzheim	20101014.114534	20101014.120538	8	0.011766	60	0	60-180	60	108	GapExp	0	173	2	1	1	target	1	438	781	155413	11.765	11.754	11.775
ProbeTrack12	3	ProbeTrack	11.3	WolfelabSpurzheim	20101014.114534	20101014.120545	8	0.011766	60	10	60-180	60	94	GapExp	0	174	2	1	0	distractor	1	438	781	156194	11.765	11.755	11.775
ProbeTrack12	3	ProbeTrack	11.3	WolfelabSpurzheim	20101014.114534	20101014.120551	8	0.011766	60	0	60-180	60	146	GapExp	0	175	2	45	0	distractor	1	450	775	156969	11.765	11.753	11.777
ProbeTrack12	3	ProbeTrack	11.3	WolfelabSpurzheim	20101014.114534	20101014.120558	8	0.011766	60	10	60-180	60	65	GapExp	0	176	2	1	1	target	1	402	799	157768	11.765	11.755	11.774
ProbeTrack12	3	ProbeTrack	11.3	WolfelabSpurzheim	20101014.114534	20101014.120604	8	0.011766	60	10	60-180	60	160	GapExp	0	177	2	3	1	target	1	414	793	158561	11.765	11.743	11.776
ProbeTrack12	3	ProbeTrack	11.3	WolfelabSpurzheim	20101014.114534	20101014.120611	8	0.011766	60	0	60-180	60	154	GapExp	0	178	2	1	0	distractor	1	485	758	159319	11.765	11.754	11.776
ProbeTrack12	3	ProbeTrack	11.3	WolfelabSpurzheim	20101014.114534	20101014.120618	8	0.011766	60	10	60-180	60	69	GapExp	0	179	2	1	0	distractor	1	708	646	159965	11.765	11.754	11.777
ProbeTrack12	3	ProbeTrack	11.3	WolfelabSpurzheim	20101014.114534	20101014.120624	8	0.011766	60	0	60-180	60	160	GapExp	0	180	2	1	0	distractor	1	520	740	160705	11.765	11.753	11.776
ProbeTrack12	3	ProbeTrack	11.3	WolfelabSpurzheim	20101014.114534	20101014.120632	8	0.011766	60	0	60-180	60	72	GapExp	0	181	2	3	1	target	1	450	775	161480	11.765	11.736	11.797
ProbeTrack12	3	ProbeTrack	11.3	WolfelabSpurzheim	20101014.114534	20101014.120638	8	0.011766	60	0	60-180	60	107	GapExp	0	182	2	3	1	distractor	0	543	-1000	160480	11.765	11.753	11.777
ProbeTrack12	3	ProbeTrack	11.3	WolfelabSpurzheim	20101014.114534	20101014.120644	8	0.011766	60	0	60-180	60	97	GapExp	0	183	2	45	1	target	1	462	769	161249	11.765	11.755	11.778
ProbeTrack12	3	ProbeTrack	11.3	WolfelabSpurzheim	20101014.114534	20101014.120651	8	0.011766	60	10	60-180	60	123	GapExp	0	184	2	0	0	distractor	1	509	746	161995	11.765	11.754	11.780
ProbeTrack12	3	ProbeTrack	11.3	WolfelabSpurzheim	20101014.114534	20101014.120659	8	0.011766	60	0	60-180	60	138	GapExp	0	185	2	3	0	distractor	1	602	699	162694	11.765	11.753	11.777
ProbeTrack12	3	ProbeTrack	11.3	WolfelabSpurzheim	20101014.114534	20101014.120706	8	0.011766	60	0	60-180	60	133	GapExp	0	186	2	3	0	distractor	1	567	717	163411	11.765	11.754	11.776
ProbeTrack12	3	ProbeTrack	11.3	WolfelabSpurzheim	20101014.114534	20101014.120713	8	0.011766	60	0	60-180	60	100	GapExp	0	187	2	1	1	target	1	426	787	164198	11.765	11.753	11.777
ProbeTrack12	3	ProbeTrack	11.3	WolfelabSpurzheim	20101014.114534	20101014.120719	8	0.011766	60	0	60-180	60	137	GapExp	0	188	2	0	0	target	0	778	-1000	163198	11.765	11.741	11.799
ProbeTrack12	3	ProbeTrack	11.3	WolfelabSpurzheim	20101014.114534	20101014.120726	8	0.011766	60	0	60-180	60	111	GapExp	0	189	2	45	0	distractor	1	638	681	163879	11.765	11.753	11.799
ProbeTrack12	3	ProbeTrack	11.3	WolfelabSpurzheim	20101014.114534	20101014.120734	8	0.011766	60	0	60-180	60	105	GapExp	0	190	2	45	1	target	1	508	746	164625	11.765	11.754	11.776
ProbeTrack12	3	ProbeTrack	11.3	WolfelabSpurzheim	20101014.114534	20101014.120741	8	0.011766	60	0	60-180	60	158	GapExp	0	191	2	3	1	target	1	402	799	165424	11.765	11.753	11.777
ProbeTrack12	3	ProbeTrack	11.3	WolfelabSpurzheim	20101014.114534	20101014.120747	8	0.011766	60	10	60-180	60	128	GapExp	0	192	2	3	1	target	1	414	793	166217	11.765	11.754	11.776
ProbeTrack12	3	ProbeTrack	11.3	WolfelabSpurzheim	20101014.114534	20101014.120754	8	0.011766	60	10	60-180	60	129	GapExp	0	193	2	1	0	distractor	1	825	588	166805	11.765	11.744	11.793
ProbeTrack12	3	ProbeTrack	11.3	WolfelabSpurzheim	20101014.114534	20101014.120801	8	0.011766	60	0	60-180	60	84	GapExp	0	194	2	45	1	target	1	450	775	167580	11.765	11.753	11.777
ProbeTrack12	3	ProbeTrack	11.3	WolfelabSpurzheim	20101014.114534	20101014.120808	8	0.011766	60	10	60-180	60	164	GapExp	0	195	2	45	0	target	0	508	-1000	166580	11.765	11.754	11.776
ProbeTrack12	3	ProbeTrack	11.3	WolfelabSpurzheim	20101014.114534	20101014.120816	8	0.011766	60	0	60-180	60	180	GapExp	0	196	2	45	0	distractor	1	661	670	167250	11.765	11.754	11.776
ProbeTrack12	3	ProbeTrack	11.3	WolfelabSpurzheim	20101014.114534	20101014.120824	8	0.011766	60	10	60-180	60	116	GapExp	0	197	2	1	0	distractor	1	485	758	168008	11.765	11.755	11.776
ProbeTrack12	3	ProbeTrack	11.3	WolfelabSpurzheim	20101014.114534	20101014.120831	8	0.011766	60	0	60-180	60	136	GapExp	0	198	2	0	0	distractor	1	544	728	168736	11.765	11.754	11.777
ProbeTrack12	3	ProbeTrack	11.3	WolfelabSpurzheim	20101014.114534	20101014.120838	8	0.011766	60	10	60-180	60	166	GapExp	0	199	2	1	0	distractor	1	673	664	169400	11.765	11.754	11.775
ProbeTrack12	3	ProbeTrack	11.3	WolfelabSpurzheim	20101014.114534	20101014.120845	8	0.011766	60	0	60-180	60	155	GapExp	0	200	2	0	1	target	1	449	776	170176	11.765	11.754	11.776
ProbeTrack12	3	ProbeTrack	11.3	WolfelabSpurzheim	20101014.114534	20101014.120852	8	0.011766	60	10	60-180	60	73	GapExp	0	201	2	45	1	target	1	473	764	170940	11.765	11.736	11.804
ProbeTrack12	3	ProbeTrack	11.3	WolfelabSpurzheim	20101014.114534	20101014.120901	8	0.011766	60	10	60-180	60	107	GapExp	0	202	2	1	0	distractor	1	708	646	171586	11.765	11.753	11.777
ProbeTrack12	3	ProbeTrack	11.3	WolfelabSpurzheim	20101014.114534	20101014.120908	8	0.011766	60	0	60-180	60	162	GapExp	0	203	2	0	1	target	1	390	805	172391	11.765	11.754	11.776
ProbeTrack12	3	ProbeTrack	11.3	WolfelabSpurzheim	20101014.114534	20101014.120915	8	0.011766	60	10	60-180	60	61	GapExp	0	204	2	1	1	target	1	402	799	173190	11.765	11.753	11.777
ProbeTrack12	3	ProbeTrack	11.3	WolfelabSpurzheim	20101014.114534	20101014.120920	8	0.011766	60	10	60-180	60	174	GapExp	0	205	2	0	1	target	1	485	758	173948	11.765	11.754	11.778
ProbeTrack12	3	ProbeTrack	11.3	WolfelabSpurzheim	20101014.114534	20101014.120927	8	0.011766	60	10	60-180	60	119	GapExp	0	206	2	45	1	target	1	508	746	174694	11.765	11.751	11.776
ProbeTrack12	3	ProbeTrack	11.3	WolfelabSpurzheim	20101014.114534	20101014.120934	8	0.011766	60	10	60-180	60	130	GapExp	0	207	2	0	0	distractor	1	696	652	175346	11.765	11.754	11.775
ProbeTrack12	3	ProbeTrack	11.3	WolfelabSpurzheim	20101014.114534	20101014.120941	8	0.011766	60	10	60-180	60	119	GapExp	0	208	2	1	1	target	1	391	805	176151	11.765	11.755	11.777
ProbeTrack12	3	ProbeTrack	11.3	WolfelabSpurzheim	20101014.114534	20101014.120948	8	0.011766	60	0	60-180	60	155	GapExp	0	209	2	0	0	distractor	1	532	734	176885	11.765	11.754	11.780
ProbeTrack12	3	ProbeTrack	11.3	WolfelabSpurzheim	20101014.114534	20101014.120956	8	0.011766	60	0	60-180	60	164	GapExp	0	210	2	3	1	target	1	567	717	177602	11.765	11.753	11.777
ProbeTrack12	3	ProbeTrack	11.3	WolfelabSpurzheim	20101014.114534	20101014.121003	8	0.011766	60	0	60-180	60	90	GapExp	0	211	2	45	0	distractor	1	520	740	178342	11.765	11.754	11.775
ProbeTrack12	3	ProbeTrack	11.3	WolfelabSpurzheim	20101014.114534	20101014.121010	8	0.011766	60	10	60-180	60	152	GapExp	0	212	2	45	1	target	1	391	805	179147	11.765	11.754	11.779
ProbeTrack12	3	ProbeTrack	11.3	WolfelabSpurzheim	20101014.114534	20101014.121017	8	0.011766	60	0	60-180	60	159	GapExp	0	213	2	1	1	target	1	414	793	179940	11.765	11.755	11.775
ProbeTrack12	3	ProbeTrack	11.3	WolfelabSpurzheim	20101014.114534	20101014.121024	8	0.011766	60	0	60-180	60	109	GapExp	0	214	2	45	0	target	0	390	-1000	178940	11.765	11.753	11.775
ProbeTrack12	3	ProbeTrack	11.3	WolfelabSpurzheim	20101014.114534	20101014.121030	8	0.011766	60	10	60-180	60	98	GapExp	0	215	2	3	0	distractor	1	497	752	179692	11.765	11.736	11.787
ProbeTrack12	3	ProbeTrack	11.3	WolfelabSpurzheim	20101014.114534	20101014.121037	8	0.011766	60	10	60-180	60	70	GapExp	0	216	2	0	1	distractor	0	767	-1000	178692	11.765	11.753	11.776
ProbeTrack12	3	ProbeTrack	11.3	WolfelabSpurzheim	20101014.114534	20101014.121043	8	0.011766	60	0	60-180	60	109	GapExp	0	217	2	3	1	target	1	450	775	179467	11.765	11.746	11.780
ProbeTrack12	3	ProbeTrack	11.3	WolfelabSpurzheim	20101014.114534	20101014.121050	8	0.011766	60	0	60-180	60	169	GapExp	0	218	2	0	1	target	1	402	799	180266	11.765	11.754	11.776
ProbeTrack12	3	ProbeTrack	11.3	WolfelabSpurzheim	20101014.114534	20101014.121058	8	0.011766	60	0	60-180	60	114	GapExp	0	219	2	1	1	target	1	426	787	181053	11.765	11.755	11.776
ProbeTrack12	3	ProbeTrack	11.3	WolfelabSpurzheim	20101014.114534	20101014.121104	8	0.011766	60	0	60-180	60	167	GapExp	0	220	2	0	1	target	1	378	811	181864	11.765	11.755	11.776
ProbeTrack12	3	ProbeTrack	11.3	WolfelabSpurzheim	20101014.114534	20101014.121111	8	0.011766	60	10	60-180	60	158	GapExp	0	221	2	1	0	distractor	1	485	758	182622	11.765	11.754	11.776
ProbeTrack12	3	ProbeTrack	11.3	WolfelabSpurzheim	20101014.114534	20101014.121118	8	0.011766	60	0	60-180	60	163	GapExp	0	222	2	45	0	distractor	1	555	723	183345	11.765	11.754	11.777
ProbeTrack12	3	ProbeTrack	11.3	WolfelabSpurzheim	20101014.114534	20101014.121125	8	0.011766	60	10	60-180	60	68	GapExp	0	223	2	0	0	distractor	1	485	758	184103	11.765	11.753	11.775
ProbeTrack12	3	ProbeTrack	11.3	WolfelabSpurzheim	20101014.114534	20101014.121132	8	0.011766	60	10	60-180	60	86	GapExp	0	224	2	1	1	target	1	532	734	184837	11.765	11.754	11.776
ProbeTrack12	3	ProbeTrack	11.3	WolfelabSpurzheim	20101014.114534	20101014.121138	8	0.011766	60	10	60-180	60	114	GapExp	0	225	2	3	1	target	1	485	758	185595	11.765	11.755	11.778
ProbeTrack12	3	ProbeTrack	11.3	WolfelabSpurzheim	20101014.114534	20101014.121144	8	0.011766	60	10	60-180	60	94	GapExp	0	226	2	0	0	target	0	837	-1000	184595	11.765	11.754	11.778
ProbeTrack12	3	ProbeTrack	11.3	WolfelabSpurzheim	20101014.114534	20101014.121151	8	0.011766	60	0	60-180	60	112	GapExp	0	227	2	1	1	target	1	532	734	185329	11.765	11.755	11.776
ProbeTrack12	3	ProbeTrack	11.3	WolfelabSpurzheim	20101014.114534	20101014.121159	8	0.011766	60	0	60-180	60	94	GapExp	0	228	2	3	0	distractor	1	591	705	186034	11.765	11.753	11.777
ProbeTrack12	3	ProbeTrack	11.3	WolfelabSpurzheim	20101014.114534	20101014.121206	8	0.011766	60	10	60-180	60	158	GapExp	0	229	2	3	0	distractor	1	778	611	186645	11.765	11.754	11.777
ProbeTrack12	3	ProbeTrack	11.3	WolfelabSpurzheim	20101014.114534	20101014.121213	8	0.011766	60	0	60-180	60	100	GapExp	0	230	2	45	0	distractor	1	719	641	187286	11.765	11.754	11.777
ProbeTrack12	3	ProbeTrack	11.3	WolfelabSpurzheim	20101014.114534	20101014.121220	8	0.011766	60	10	60-180	60	147	GapExp	0	231	2	3	1	distractor	0	390	-1000	186286	11.765	11.754	11.777
ProbeTrack12	3	ProbeTrack	11.3	WolfelabSpurzheim	20101014.114534	20101014.121226	8	0.011766	60	0	60-180	60	76	GapExp	0	232	2	1	1	target	1	449	776	187062	11.765	11.754	11.775
ProbeTrack12	3	ProbeTrack	11.3	WolfelabSpurzheim	20101014.114534	20101014.121233	8	0.011766	60	0	60-180	60	142	GapExp	0	233	2	1	0	distractor	1	520	740	187802	11.765	11.754	11.777
ProbeTrack12	3	ProbeTrack	11.3	WolfelabSpurzheim	20101014.114534	20101014.121241	8	0.011766	60	10	60-180	60	135	GapExp	0	234	2	0	1	target	1	496	752	188554	11.765	11.754	11.775
ProbeTrack12	3	ProbeTrack	11.3	WolfelabSpurzheim	20101014.114534	20101014.121247	8	0.011766	60	10	60-180	60	109	GapExp	0	235	2	0	0	target	0	426	-1000	187554	11.765	11.754	11.775
ProbeTrack12	3	ProbeTrack	11.3	WolfelabSpurzheim	20101014.114534	20101014.121254	8	0.011766	60	0	60-180	60	163	GapExp	0	236	2	45	1	target	1	426	787	188341	11.765	11.754	11.776
ProbeTrack12	3	ProbeTrack	11.3	WolfelabSpurzheim	20101014.114534	20101014.121302	8	0.011766	60	0	60-180	60	74	GapExp	0	237	2	1	1	target	1	461	770	189111	11.765	11.754	11.776
ProbeTrack12	3	ProbeTrack	11.3	WolfelabSpurzheim	20101014.114534	20101014.121308	8	0.011766	60	10	60-180	60	172	GapExp	0	238	2	1	0	distractor	1	872	564	189675	11.765	11.752	11.777
ProbeTrack12	3	ProbeTrack	11.3	WolfelabSpurzheim	20101014.114534	20101014.121317	8	0.011766	60	10	60-180	60	137	GapExp	0	239	2	45	1	target	1	449	776	190451	11.765	11.753	11.776
ProbeTrack12	3	ProbeTrack	11.3	WolfelabSpurzheim	20101014.114534	20101014.121325	8	0.011766	60	0	60-180	60	80	GapExp	0	240	2	3	0	distractor	1	567	717	191168	11.765	11.754	11.776
ProbeTrack12	3	ProbeTrack	11.3	WolfelabSpurzheim	20101014.114534	20101014.121332	8	0.011766	60	10	60-180	60	100	GapExp	0	241	2	0	1	target	1	426	787	191955	11.765	11.753	11.776
ProbeTrack12	3	ProbeTrack	11.3	WolfelabSpurzheim	20101014.114534	20101014.121338	8	0.011766	60	0	60-180	60	82	GapExp	0	242	2	1	0	distractor	1	497	752	192707	11.765	11.755	11.776
ProbeTrack12	3	ProbeTrack	11.3	WolfelabSpurzheim	20101014.114534	20101014.121345	8	0.011766	60	10	60-180	60	146	GapExp	0	243	2	0	0	distractor	1	473	764	193471	11.765	11.755	11.776
ProbeTrack12	3	ProbeTrack	11.3	WolfelabSpurzheim	20101014.114534	20101014.121352	8	0.011766	60	10	60-180	60	79	GapExp	0	244	2	0	1	target	1	508	746	194217	11.765	11.753	11.776
ProbeTrack12	3	ProbeTrack	11.3	WolfelabSpurzheim	20101014.114534	20101014.121358	8	0.011766	60	10	60-180	60	135	GapExp	0	245	2	0	1	target	1	414	793	195010	11.765	11.754	11.777
ProbeTrack12	3	ProbeTrack	11.3	WolfelabSpurzheim	20101014.114534	20101014.121405	8	0.011766	60	0	60-180	60	129	GapExp	0	246	2	1	0	distractor	1	485	758	195768	11.765	11.755	11.776
ProbeTrack12	3	ProbeTrack	11.3	WolfelabSpurzheim	20101014.114534	20101014.121412	8	0.011766	60	0	60-180	60	71	GapExp	0	247	2	1	0	distractor	1	626	687	196455	11.765	11.752	11.779
ProbeTrack12	3	ProbeTrack	11.3	WolfelabSpurzheim	20101014.114534	20101014.121418	8	0.011766	60	10	60-180	60	173	GapExp	0	248	2	45	1	target	1	461	770	197225	11.765	11.734	11.797
ProbeTrack12	3	ProbeTrack	11.3	WolfelabSpurzheim	20101014.114534	20101014.121426	8	0.011766	60	0	60-180	60	103	GapExp	0	249	2	45	1	target	1	532	734	197959	11.765	11.755	11.775
ProbeTrack12	3	ProbeTrack	11.3	WolfelabSpurzheim	20101014.114534	20101014.121433	8	0.011766	60	10	60-180	60	78	GapExp	0	250	2	45	1	target	1	497	752	198711	11.765	11.755	11.777
ProbeTrack12	3	ProbeTrack	11.3	WolfelabSpurzheim	20101014.121543	20101014.121554	8	0.011765	60	0	60-180	60	74	GapExp	1	1	2	45	1	target	1	391	805	199516	11.971	11.755	35.295
ProbeTrack12	3	ProbeTrack	11.3	WolfelabSpurzheim	20101014.121543	20101014.121603	8	0.011765	60	10	60-180	60	113	GapExp	1	2	2	0	0	target	0	390	-1000	198516	11.765	11.755	11.776
ProbeTrack12	3	ProbeTrack	11.3	WolfelabSpurzheim	20101014.121543	20101014.121610	8	0.011765	60	0	60-180	60	148	GapExp	1	3	2	1	0	distractor	1	532	734	199250	11.808	11.754	23.530
ProbeTrack12	3	ProbeTrack	11.3	WolfelabSpurzheim	20101014.121543	20101014.121620	8	0.011765	60	10	60-180	60	68	GapExp	1	4	2	1	1	target	1	708	646	199896	11.765	11.754	11.775
ProbeTrack12	3	ProbeTrack	11.3	WolfelabSpurzheim	20101014.121543	20101014.121626	8	0.011765	60	10	60-180	60	167	GapExp	1	5	2	3	1	target	1	402	799	200695	11.846	11.754	11.777
ProbeTrack12	3	ProbeTrack	11.3	WolfelabSpurzheim	20101014.121543	20101014.121635	8	0.011765	60	10	60-180	60	168	GapExp	1	6	2	1	0	distractor	1	603	699	201394	11.765	11.752	11.777
ProbeTrack12	3	ProbeTrack	11.3	WolfelabSpurzheim	20101014.121543	20101014.121659	8	0.011765	60	10	60-180	60	117	GapExp	1	7	2	0	1	target	1	437	782	202176	11.765	11.754	11.776
ProbeTrack12	3	ProbeTrack	11.3	WolfelabSpurzheim	20101014.121543	20101014.121706	8	0.011765	60	0	60-180	60	133	GapExp	1	8	2	0	0	distractor	1	555	723	202899	11.765	11.750	11.785
ProbeTrack12	3	ProbeTrack	11.3	WolfelabSpurzheim	20101014.121543	20101014.121712	8	0.011765	60	10	60-180	60	168	GapExp	1	9	2	45	0	distractor	1	485	758	203657	11.765	11.753	11.776
ProbeTrack12	3	ProbeTrack	11.3	WolfelabSpurzheim	20101014.121543	20101014.121720	8	0.011765	60	0	60-180	60	87	GapExp	1	10	2	1	1	target	1	496	752	204409	11.765	11.735	11.796
ProbeTrack12	3	ProbeTrack	11.3	WolfelabSpurzheim	20101014.121543	20101014.121726	8	0.011765	60	0	60-180	60	136	GapExp	0	11	2	1	1	target	1	414	793	205202	11.765	11.743	11.793
ProbeTrack12	3	ProbeTrack	11.3	WolfelabSpurzheim	20101014.121543	20101014.121733	8	0.011765	60	0	60-180	60	86	GapExp	0	12	2	45	0	distractor	1	508	746	205948	11.765	11.733	11.794
ProbeTrack12	3	ProbeTrack	11.3	WolfelabSpurzheim	20101014.121543	20101014.121740	8	0.011765	60	0	60-180	60	168	GapExp	0	13	2	1	0	distractor	1	508	746	206694	11.765	11.707	11.827
ProbeTrack12	3	ProbeTrack	11.3	WolfelabSpurzheim	20101014.121543	20101014.121747	8	0.011765	60	10	60-180	60	78	GapExp	0	14	2	1	1	target	1	402	799	207493	11.765	11.754	11.776
ProbeTrack12	3	ProbeTrack	11.3	WolfelabSpurzheim	20101014.121543	20101014.121753	8	0.011765	60	0	60-180	60	161	GapExp	0	15	2	1	1	target	1	426	787	208280	11.765	11.754	11.777
ProbeTrack12	3	ProbeTrack	11.3	WolfelabSpurzheim	20101014.121543	20101014.121800	8	0.011765	60	0	60-180	60	81	GapExp	0	16	2	45	0	distractor	1	508	746	209026	11.765	11.742	11.789
ProbeTrack12	3	ProbeTrack	11.3	WolfelabSpurzheim	20101014.121543	20101014.121806	8	0.011765	60	10	60-180	60	111	GapExp	0	17	2	1	1	target	1	415	793	209819	11.765	11.755	11.775
ProbeTrack12	3	ProbeTrack	11.3	WolfelabSpurzheim	20101014.121543	20101014.121813	8	0.011765	60	0	60-180	60	159	GapExp	0	18	2	3	1	target	1	496	752	210571	11.765	11.732	11.794
ProbeTrack12	3	ProbeTrack	11.3	WolfelabSpurzheim	20101014.121543	20101014.121820	8	0.011765	60	0	60-180	60	142	GapExp	0	19	2	0	0	distractor	1	508	746	211317	11.765	11.752	11.776
ProbeTrack12	3	ProbeTrack	11.3	WolfelabSpurzheim	20101014.121543	20101014.121827	8	0.011765	60	0	60-180	60	97	GapExp	0	20	2	3	1	target	1	414	793	212110	11.765	11.711	11.819
ProbeTrack12	3	ProbeTrack	11.3	WolfelabSpurzheim	20101014.121543	20101014.121832	8	0.011765	60	0	60-180	60	152	GapExp	0	21	2	0	0	distractor	1	567	717	212827	11.765	11.720	11.800
ProbeTrack12	3	ProbeTrack	11.3	WolfelabSpurzheim	20101014.121543	20101014.121839	8	0.011765	60	0	60-180	60	93	GapExp	0	22	2	3	1	target	1	426	787	213614	11.765	11.755	11.775
ProbeTrack12	3	ProbeTrack	11.3	WolfelabSpurzheim	20101014.121543	20101014.121845	8	0.011765	60	0	60-180	60	76	GapExp	0	23	2	45	0	distractor	1	449	776	214390	11.765	11.755	11.775
ProbeTrack12	3	ProbeTrack	11.3	WolfelabSpurzheim	20101014.121543	20101014.121851	8	0.011765	60	10	60-180	60	133	GapExp	0	24	2	3	1	target	1	438	781	215171	11.765	11.754	11.776
ProbeTrack12	3	ProbeTrack	11.3	WolfelabSpurzheim	20101014.121543	20101014.121858	8	0.011765	60	0	60-180	60	161	GapExp	0	25	2	3	0	distractor	1	520	740	215911	11.765	11.754	11.775
ProbeTrack12	3	ProbeTrack	11.3	WolfelabSpurzheim	20101014.121543	20101014.121905	8	0.011765	60	0	60-180	60	108	GapExp	0	26	2	3	0	distractor	1	637	682	216593	11.765	11.755	11.776
ProbeTrack12	3	ProbeTrack	11.3	WolfelabSpurzheim	20101014.121543	20101014.121912	8	0.011765	60	0	60-180	60	133	GapExp	0	27	2	1	1	target	1	508	746	217339	11.765	11.753	11.776
ProbeTrack12	3	ProbeTrack	11.3	WolfelabSpurzheim	20101014.121543	20101014.121919	8	0.011765	60	0	60-180	60	161	GapExp	0	28	2	1	1	target	1	449	776	218115	11.765	11.751	11.777
ProbeTrack12	3	ProbeTrack	11.3	WolfelabSpurzheim	20101014.121543	20101014.121928	8	0.011765	60	10	60-180	60	62	GapExp	0	29	2	3	0	distractor	1	391	805	218920	11.765	11.754	11.777
ProbeTrack12	3	ProbeTrack	11.3	WolfelabSpurzheim	20101014.121543	20101014.121934	8	0.011765	60	0	60-180	60	151	GapExp	0	30	2	45	1	target	1	438	781	219701	11.765	11.753	11.776
ProbeTrack12	3	ProbeTrack	11.3	WolfelabSpurzheim	20101014.121543	20101014.121941	8	0.011765	60	0	60-180	60	90	GapExp	0	31	2	0	1	target	1	496	752	220453	11.765	11.754	11.776
ProbeTrack12	3	ProbeTrack	11.3	WolfelabSpurzheim	20101014.121543	20101014.121947	8	0.011765	60	10	60-180	60	75	GapExp	0	32	2	45	0	distractor	1	473	764	221217	11.765	11.754	11.776
ProbeTrack12	3	ProbeTrack	11.3	WolfelabSpurzheim	20101014.121543	20101014.121954	8	0.011765	60	10	60-180	60	121	GapExp	0	33	2	0	1	target	1	473	764	221981	11.765	11.736	11.792
ProbeTrack12	3	ProbeTrack	11.3	WolfelabSpurzheim	20101014.121543	20101014.122000	8	0.011765	60	0	60-180	60	96	GapExp	0	34	2	3	1	target	1	449	776	222757	11.765	11.753	11.779
ProbeTrack12	3	ProbeTrack	11.3	WolfelabSpurzheim	20101014.121543	20101014.122008	8	0.011765	60	10	60-180	60	108	GapExp	0	35	2	1	1	target	1	449	776	223533	11.765	11.724	11.808
ProbeTrack12	3	ProbeTrack	11.3	WolfelabSpurzheim	20101014.121543	20101014.122014	8	0.011765	60	10	60-180	60	147	GapExp	0	36	2	45	1	target	1	449	776	224309	11.765	11.754	11.777
ProbeTrack12	3	ProbeTrack	11.3	WolfelabSpurzheim	20101014.121543	20101014.122021	8	0.011765	60	10	60-180	60	71	GapExp	0	37	2	3	0	distractor	1	473	764	225073	11.765	11.754	11.774
ProbeTrack12	3	ProbeTrack	11.3	WolfelabSpurzheim	20101014.121543	20101014.122027	8	0.011765	60	0	60-180	60	109	GapExp	0	38	2	3	0	distractor	1	496	752	225825	11.765	11.675	11.849
ProbeTrack12	3	ProbeTrack	11.3	WolfelabSpurzheim	20101014.121543	20101014.122034	8	0.011765	60	0	60-180	60	166	GapExp	0	39	2	3	0	distractor	1	473	764	226589	11.765	11.755	11.776
ProbeTrack12	3	ProbeTrack	11.3	WolfelabSpurzheim	20101014.121543	20101014.122041	8	0.011765	60	0	60-180	60	87	GapExp	0	40	2	0	0	distractor	1	543	729	227318	11.765	11.755	11.775
ProbeTrack12	3	ProbeTrack	11.3	WolfelabSpurzheim	20101014.121543	20101014.122046	8	0.011765	60	0	60-180	60	137	GapExp	0	41	2	0	0	distractor	1	437	782	228100	11.765	11.754	11.776
ProbeTrack12	3	ProbeTrack	11.3	WolfelabSpurzheim	20101014.121543	20101014.122052	8	0.011765	60	10	60-180	60	142	GapExp	0	42	2	0	0	distractor	1	426	787	228887	11.765	11.753	11.776
ProbeTrack12	3	ProbeTrack	11.3	WolfelabSpurzheim	20101014.121543	20101014.122059	8	0.011765	60	0	60-180	60	121	GapExp	0	43	2	0	0	distractor	1	531	735	229622	11.765	11.753	11.777
ProbeTrack12	3	ProbeTrack	11.3	WolfelabSpurzheim	20101014.121543	20101014.122107	8	0.011765	60	0	60-180	60	85	GapExp	0	44	2	3	0	distractor	1	626	687	230309	11.765	11.754	11.777
ProbeTrack12	3	ProbeTrack	11.3	WolfelabSpurzheim	20101014.121543	20101014.122114	8	0.011765	60	0	60-180	60	113	GapExp	0	45	2	1	1	target	1	461	770	231079	11.765	11.755	11.777
ProbeTrack12	3	ProbeTrack	11.3	WolfelabSpurzheim	20101014.121543	20101014.122120	8	0.011765	60	10	60-180	60	94	GapExp	0	46	2	0	1	target	1	343	829	231908	11.765	11.753	11.776
ProbeTrack12	3	ProbeTrack	11.3	WolfelabSpurzheim	20101014.121543	20101014.122126	8	0.011765	60	10	60-180	60	86	GapExp	0	47	2	0	1	target	1	414	793	232701	11.765	11.737	11.792
ProbeTrack12	3	ProbeTrack	11.3	WolfelabSpurzheim	20101014.121543	20101014.122132	8	0.011765	60	0	60-180	60	109	GapExp	0	48	2	0	1	target	1	378	811	233512	11.765	11.754	11.776
ProbeTrack12	3	ProbeTrack	11.3	WolfelabSpurzheim	20101014.121543	20101014.122138	8	0.011765	60	10	60-180	60	121	GapExp	0	49	2	1	1	target	1	461	770	234282	11.765	11.754	11.775
ProbeTrack12	3	ProbeTrack	11.3	WolfelabSpurzheim	20101014.121543	20101014.122145	8	0.011765	60	10	60-180	60	104	GapExp	0	50	2	0	1	target	1	379	811	235093	11.765	11.754	11.776
ProbeTrack12	3	ProbeTrack	11.3	WolfelabSpurzheim	20101014.121543	20101014.122150	8	0.011765	60	0	60-180	60	61	GapExp	0	51	2	1	1	target	1	402	799	235892	11.765	11.753	11.777
ProbeTrack12	3	ProbeTrack	11.3	WolfelabSpurzheim	20101014.121543	20101014.122155	8	0.011765	60	10	60-180	60	159	GapExp	0	52	2	3	0	target	0	532	-1000	234892	11.765	11.754	11.777
ProbeTrack12	3	ProbeTrack	11.3	WolfelabSpurzheim	20101014.121543	20101014.122202	8	0.011765	60	0	60-180	60	151	GapExp	0	53	2	1	0	distractor	1	473	764	235656	11.765	11.754	11.776
ProbeTrack12	3	ProbeTrack	11.3	WolfelabSpurzheim	20101014.121543	20101014.122210	8	0.011765	60	10	60-180	60	127	GapExp	0	54	2	1	0	distractor	1	485	758	236414	11.765	11.730	11.794
ProbeTrack12	3	ProbeTrack	11.3	WolfelabSpurzheim	20101014.121543	20101014.122216	8	0.011765	60	10	60-180	60	119	GapExp	0	55	2	45	0	distractor	1	673	664	237078	11.765	11.755	11.776
ProbeTrack12	3	ProbeTrack	11.3	WolfelabSpurzheim	20101014.121543	20101014.122224	8	0.011765	60	10	60-180	60	87	GapExp	0	56	2	3	0	distractor	1	508	746	237824	11.765	11.755	11.776
ProbeTrack12	3	ProbeTrack	11.3	WolfelabSpurzheim	20101014.121543	20101014.122230	8	0.011765	60	10	60-180	60	124	GapExp	0	57	2	3	0	distractor	1	544	728	238552	11.765	11.753	11.776
ProbeTrack12	3	ProbeTrack	11.3	WolfelabSpurzheim	20101014.121543	20101014.122236	8	0.011765	60	0	60-180	60	128	GapExp	0	58	2	45	0	distractor	1	473	764	239316	11.765	11.753	11.777
ProbeTrack12	3	ProbeTrack	11.3	WolfelabSpurzheim	20101014.121543	20101014.122245	8	0.011765	60	0	60-180	60	174	GapExp	0	59	2	45	1	target	1	449	776	240092	11.765	11.752	11.776
ProbeTrack12	3	ProbeTrack	11.3	WolfelabSpurzheim	20101014.121543	20101014.122252	8	0.011765	60	10	60-180	60	114	GapExp	0	60	2	1	0	distractor	1	485	758	240850	11.765	11.754	11.775
ProbeTrack12	3	ProbeTrack	11.3	WolfelabSpurzheim	20101014.121543	20101014.122259	8	0.011765	60	10	60-180	60	171	GapExp	0	61	2	0	1	target	1	426	787	241637	11.765	11.754	11.775
ProbeTrack12	3	ProbeTrack	11.3	WolfelabSpurzheim	20101014.121543	20101014.122307	8	0.011765	60	10	60-180	60	89	GapExp	0	62	2	1	0	distractor	1	438	781	242418	11.765	11.754	11.777
ProbeTrack12	3	ProbeTrack	11.3	WolfelabSpurzheim	20101014.121543	20101014.122314	8	0.011765	60	10	60-180	60	144	GapExp	0	63	2	0	1	target	1	567	717	243135	11.765	11.754	11.777
ProbeTrack12	3	ProbeTrack	11.3	WolfelabSpurzheim	20101014.121543	20101014.122321	8	0.011765	60	0	60-180	60	68	GapExp	0	64	2	0	1	target	1	461	770	243905	11.765	11.753	11.775
ProbeTrack12	3	ProbeTrack	11.3	WolfelabSpurzheim	20101014.121543	20101014.122328	8	0.011765	60	0	60-180	60	148	GapExp	0	65	2	45	0	distractor	1	520	740	244645	11.765	11.753	11.778
ProbeTrack12	3	ProbeTrack	11.3	WolfelabSpurzheim	20101014.121543	20101014.122335	8	0.011765	60	10	60-180	60	135	GapExp	0	66	2	45	1	target	1	367	817	245462	11.765	11.737	11.797
ProbeTrack12	3	ProbeTrack	11.3	WolfelabSpurzheim	20101014.121543	20101014.122342	8	0.011765	60	0	60-180	60	137	GapExp	0	67	2	45	1	target	1	390	805	246267	11.765	11.754	11.776
ProbeTrack12	3	ProbeTrack	11.3	WolfelabSpurzheim	20101014.121543	20101014.122349	8	0.011765	60	10	60-180	60	170	GapExp	0	68	2	3	1	target	1	379	811	247078	11.765	11.744	11.791
ProbeTrack12	3	ProbeTrack	11.3	WolfelabSpurzheim	20101014.121543	20101014.122356	8	0.011765	60	10	60-180	60	69	GapExp	0	69	2	45	1	target	1	438	781	247859	11.765	11.753	11.776
ProbeTrack12	3	ProbeTrack	11.3	WolfelabSpurzheim	20101014.121543	20101014.122402	8	0.011765	60	0	60-180	60	133	GapExp	0	70	2	1	1	target	1	450	775	248634	11.765	11.755	11.778
ProbeTrack12	3	ProbeTrack	11.3	WolfelabSpurzheim	20101014.121543	20101014.122409	8	0.011765	60	10	60-180	60	155	GapExp	0	71	2	0	0	distractor	1	590	705	249339	11.765	11.754	11.776
ProbeTrack12	3	ProbeTrack	11.3	WolfelabSpurzheim	20101014.121543	20101014.122417	8	0.011765	60	10	60-180	60	114	GapExp	0	72	2	45	1	target	1	403	799	250138	11.765	11.752	11.777
ProbeTrack12	3	ProbeTrack	11.3	WolfelabSpurzheim	20101014.121543	20101014.122424	8	0.011765	60	10	60-180	60	64	GapExp	0	73	2	3	0	distractor	1	520	740	250878	11.765	11.753	11.777
ProbeTrack12	3	ProbeTrack	11.3	WolfelabSpurzheim	20101014.121543	20101014.122431	8	0.011765	60	0	60-180	60	85	GapExp	0	74	2	3	0	distractor	1	508	746	251624	11.765	11.724	11.805
ProbeTrack12	3	ProbeTrack	11.3	WolfelabSpurzheim	20101014.121543	20101014.122437	8	0.011765	60	10	60-180	60	125	GapExp	0	75	2	3	1	target	1	367	817	252441	11.765	11.755	11.778
ProbeTrack12	3	ProbeTrack	11.3	WolfelabSpurzheim	20101014.121543	20101014.122443	8	0.011765	60	10	60-180	60	94	GapExp	0	76	2	1	0	distractor	1	402	799	253240	11.765	11.753	11.776
ProbeTrack12	3	ProbeTrack	11.3	WolfelabSpurzheim	20101014.121543	20101014.122449	8	0.011765	60	0	60-180	60	140	GapExp	0	77	2	1	1	target	1	450	775	254015	11.765	11.755	11.776
ProbeTrack12	3	ProbeTrack	11.3	WolfelabSpurzheim	20101014.121543	20101014.122456	8	0.011765	60	10	60-180	60	150	GapExp	0	78	2	1	1	target	1	426	787	254802	11.765	11.710	11.820
ProbeTrack12	3	ProbeTrack	11.3	WolfelabSpurzheim	20101014.121543	20101014.122503	8	0.011765	60	0	60-180	60	129	GapExp	0	79	2	45	0	distractor	1	438	781	255583	11.765	11.754	11.777
ProbeTrack12	3	ProbeTrack	11.3	WolfelabSpurzheim	20101014.121543	20101014.122510	8	0.011765	60	0	60-180	60	128	GapExp	0	80	2	45	1	target	1	356	822	256405	11.765	11.754	11.776
ProbeTrack12	3	ProbeTrack	11.3	WolfelabSpurzheim	20101014.121543	20101014.122517	8	0.011765	60	0	60-180	60	108	GapExp	0	81	2	3	0	distractor	1	520	740	257145	11.765	11.755	11.775
ProbeTrack12	3	ProbeTrack	11.3	WolfelabSpurzheim	20101014.121543	20101014.122523	8	0.011765	60	10	60-180	60	86	GapExp	0	82	2	1	1	target	1	355	823	257968	11.765	11.754	11.775
ProbeTrack12	3	ProbeTrack	11.3	WolfelabSpurzheim	20101014.121543	20101014.122532	8	0.011765	60	0	60-180	60	162	GapExp	0	83	2	0	1	target	1	438	781	258749	11.765	11.732	11.788
ProbeTrack12	3	ProbeTrack	11.3	WolfelabSpurzheim	20101014.121543	20101014.122539	8	0.011765	60	10	60-180	60	104	GapExp	0	84	2	0	0	distractor	1	508	746	259495	11.765	11.754	11.776
ProbeTrack12	3	ProbeTrack	11.3	WolfelabSpurzheim	20101014.121543	20101014.122546	8	0.011765	60	0	60-180	60	125	GapExp	0	85	2	45	0	distractor	1	449	776	260271	11.765	11.754	11.777
ProbeTrack12	3	ProbeTrack	11.3	WolfelabSpurzheim	20101014.121543	20101014.122553	8	0.011765	60	10	60-180	60	168	GapExp	0	86	2	3	0	distractor	1	414	793	261064	11.765	11.755	11.776
ProbeTrack12	3	ProbeTrack	11.3	WolfelabSpurzheim	20101014.121543	20101014.122600	8	0.011765	60	0	60-180	60	64	GapExp	0	87	2	45	1	target	1	473	764	261828	11.765	11.707	11.832
ProbeTrack12	3	ProbeTrack	11.3	WolfelabSpurzheim	20101014.121543	20101014.122606	8	0.011765	60	0	60-180	60	99	GapExp	0	88	2	45	0	distractor	1	426	787	262615	11.765	11.753	11.776
ProbeTrack12	3	ProbeTrack	11.3	WolfelabSpurzheim	20101014.121543	20101014.122613	8	0.011765	60	0	60-180	60	131	GapExp	0	89	2	1	1	target	1	367	817	263432	11.765	11.725	11.800
ProbeTrack12	3	ProbeTrack	11.3	WolfelabSpurzheim	20101014.121543	20101014.122619	8	0.011765	60	0	60-180	60	170	GapExp	0	90	2	45	1	target	1	332	834	264266	11.765	11.754	11.778
ProbeTrack12	3	ProbeTrack	11.3	WolfelabSpurzheim	20101014.121543	20101014.122626	8	0.011765	60	0	60-180	60	99	GapExp	0	91	2	1	1	target	1	356	822	265088	11.765	11.753	11.778
ProbeTrack12	3	ProbeTrack	11.3	WolfelabSpurzheim	20101014.121543	20101014.122633	8	0.011765	60	0	60-180	60	137	GapExp	0	92	2	3	1	target	1	390	805	265893	11.765	11.754	11.776
ProbeTrack12	3	ProbeTrack	11.3	WolfelabSpurzheim	20101014.121543	20101014.122639	8	0.011765	60	10	60-180	60	175	GapExp	0	93	2	1	0	distractor	1	414	793	266686	11.765	11.753	11.776
ProbeTrack12	3	ProbeTrack	11.3	WolfelabSpurzheim	20101014.121543	20101014.122647	8	0.011765	60	0	60-180	60	63	GapExp	0	94	2	3	1	target	1	414	793	267479	11.765	11.754	11.777
ProbeTrack12	3	ProbeTrack	11.3	WolfelabSpurzheim	20101014.121543	20101014.122653	8	0.011765	60	0	60-180	60	117	GapExp	0	95	2	0	0	distractor	1	438	781	268260	11.765	11.752	11.777
ProbeTrack12	3	ProbeTrack	11.3	WolfelabSpurzheim	20101014.121543	20101014.122659	8	0.011765	60	0	60-180	60	81	GapExp	0	96	2	0	1	target	1	367	817	269077	11.765	11.755	11.776
ProbeTrack12	3	ProbeTrack	11.3	WolfelabSpurzheim	20101014.121543	20101014.122705	8	0.011765	60	10	60-180	60	71	GapExp	0	97	2	3	0	distractor	1	568	716	269793	11.765	11.754	11.777
ProbeTrack12	3	ProbeTrack	11.3	WolfelabSpurzheim	20101014.121543	20101014.122712	8	0.011765	60	10	60-180	60	65	GapExp	0	98	2	1	1	target	1	367	817	270610	11.765	11.736	11.787
ProbeTrack12	3	ProbeTrack	11.3	WolfelabSpurzheim	20101014.121543	20101014.122718	8	0.011765	60	10	60-180	60	153	GapExp	0	99	2	3	0	distractor	1	426	787	271397	11.765	11.754	11.777
ProbeTrack12	3	ProbeTrack	11.3	WolfelabSpurzheim	20101014.121543	20101014.122726	8	0.011765	60	0	60-180	60	88	GapExp	0	100	2	0	1	target	1	414	793	272190	11.765	11.754	11.777
ProbeTrack12	3	ProbeTrack	11.3	WolfelabSpurzheim	20101014.121543	20101014.122732	8	0.011765	60	0	60-180	60	75	GapExp	0	101	2	45	0	distractor	1	438	781	272971	11.765	11.755	11.776
ProbeTrack12	3	ProbeTrack	11.3	WolfelabSpurzheim	20101014.121543	20101014.122840	8	0.011765	60	10	60-180	60	90	GapExp	0	102	2	1	0	distractor	1	414	793	273764	11.765	11.754	11.777
ProbeTrack12	3	ProbeTrack	11.3	WolfelabSpurzheim	20101014.121543	20101014.122845	8	0.011765	60	10	60-180	60	78	GapExp	0	103	2	0	1	target	1	426	787	274551	11.765	11.753	11.776
ProbeTrack12	3	ProbeTrack	11.3	WolfelabSpurzheim	20101014.121543	20101014.122851	8	0.011765	60	0	60-180	60	71	GapExp	0	104	2	0	1	target	1	450	775	275326	11.765	11.753	11.777
ProbeTrack12	3	ProbeTrack	11.3	WolfelabSpurzheim	20101014.121543	20101014.122857	8	0.011765	60	10	60-180	60	170	GapExp	0	105	2	1	0	distractor	1	438	781	276107	11.765	11.753	11.777
ProbeTrack12	3	ProbeTrack	11.3	WolfelabSpurzheim	20101014.121543	20101014.122904	8	0.011765	60	0	60-180	60	151	GapExp	0	106	2	3	0	distractor	1	473	764	276871	11.765	11.751	11.779
ProbeTrack12	3	ProbeTrack	11.3	WolfelabSpurzheim	20101014.121543	20101014.122911	8	0.011765	60	10	60-180	60	150	GapExp	0	107	2	1	1	target	1	391	805	277676	11.765	11.753	11.776
ProbeTrack12	3	ProbeTrack	11.3	WolfelabSpurzheim	20101014.121543	20101014.122918	8	0.011765	60	10	60-180	60	113	GapExp	0	108	2	45	0	distractor	1	461	770	278446	11.765	11.754	11.777
ProbeTrack12	3	ProbeTrack	11.3	WolfelabSpurzheim	20101014.121543	20101014.122924	8	0.011765	60	10	60-180	60	125	GapExp	0	109	2	0	0	distractor	1	426	787	279233	11.765	11.753	11.776
ProbeTrack12	3	ProbeTrack	11.3	WolfelabSpurzheim	20101014.121543	20101014.122931	8	0.011765	60	10	60-180	60	143	GapExp	0	110	2	0	1	target	1	473	764	279997	11.765	11.754	11.776
ProbeTrack12	3	ProbeTrack	11.3	WolfelabSpurzheim	20101014.121543	20101014.122938	8	0.011765	60	10	60-180	60	86	GapExp	0	111	2	0	1	target	1	367	817	280814	11.765	11.755	11.776
ProbeTrack12	3	ProbeTrack	11.3	WolfelabSpurzheim	20101014.121543	20101014.122944	8	0.011765	60	0	60-180	60	145	GapExp	0	112	2	0	0	distractor	1	485	758	281572	11.765	11.753	11.776
ProbeTrack12	3	ProbeTrack	11.3	WolfelabSpurzheim	20101014.121543	20101014.122951	8	0.011765	60	10	60-180	60	84	GapExp	0	113	2	3	1	target	1	355	823	282395	11.765	11.754	11.775
ProbeTrack12	3	ProbeTrack	11.3	WolfelabSpurzheim	20101014.121543	20101014.122956	8	0.011765	60	10	60-180	60	174	GapExp	0	114	2	0	0	distractor	1	461	770	283165	11.765	11.755	11.776
ProbeTrack12	3	ProbeTrack	11.3	WolfelabSpurzheim	20101014.121543	20101014.123004	8	0.011765	60	0	60-180	60	142	GapExp	0	115	2	3	1	target	1	462	769	283934	11.765	11.753	11.777
ProbeTrack12	3	ProbeTrack	11.3	WolfelabSpurzheim	20101014.121543	20101014.123010	8	0.011765	60	0	60-180	60	177	GapExp	0	116	2	45	0	distractor	1	520	740	284674	11.765	11.755	11.777
ProbeTrack12	3	ProbeTrack	11.3	WolfelabSpurzheim	20101014.121543	20101014.123018	8	0.011765	60	10	60-180	60	152	GapExp	0	117	2	1	1	target	1	355	823	285497	11.765	11.753	11.777
ProbeTrack12	3	ProbeTrack	11.3	WolfelabSpurzheim	20101014.121543	20101014.123025	8	0.011765	60	10	60-180	60	75	GapExp	0	118	2	45	0	distractor	1	426	787	286284	11.765	11.744	11.780
ProbeTrack12	3	ProbeTrack	11.3	WolfelabSpurzheim	20101014.121543	20101014.123031	8	0.011765	60	10	60-180	60	78	GapExp	0	119	2	0	0	distractor	1	473	764	287048	11.765	11.752	11.775
ProbeTrack12	3	ProbeTrack	11.3	WolfelabSpurzheim	20101014.121543	20101014.123036	8	0.011765	60	0	60-180	60	154	GapExp	0	120	2	0	1	target	1	390	805	287853	11.765	11.753	11.778
ProbeTrack12	3	ProbeTrack	11.3	WolfelabSpurzheim	20101014.121543	20101014.123043	8	0.011765	60	0	60-180	60	96	GapExp	0	121	2	0	1	target	1	367	817	288670	11.765	11.751	11.783
ProbeTrack12	3	ProbeTrack	11.3	WolfelabSpurzheim	20101014.121543	20101014.123048	8	0.011765	60	0	60-180	60	82	GapExp	0	122	2	1	0	target	0	402	-1000	287670	11.765	11.745	11.793
ProbeTrack12	3	ProbeTrack	11.3	WolfelabSpurzheim	20101014.121543	20101014.123054	8	0.011765	60	10	60-180	60	166	GapExp	0	123	2	3	1	target	1	438	781	288451	11.805	11.729	23.523
ProbeTrack12	3	ProbeTrack	11.3	WolfelabSpurzheim	20101014.121543	20101014.123101	8	0.011765	60	0	60-180	60	131	GapExp	0	124	2	1	0	distractor	1	532	734	289185	11.765	11.755	11.775
ProbeTrack12	3	ProbeTrack	11.3	WolfelabSpurzheim	20101014.121543	20101014.123109	8	0.011765	60	10	60-180	60	145	GapExp	0	125	2	0	1	target	1	390	805	289990	11.765	11.754	11.776
ProbeTrack12	3	ProbeTrack	11.3	WolfelabSpurzheim	20101014.121543	20101014.123115	8	0.011765	60	10	60-180	60	134	GapExp	0	126	2	3	0	distractor	1	379	811	290801	11.765	11.733	11.796
ProbeTrack12	3	ProbeTrack	11.3	WolfelabSpurzheim	20101014.121543	20101014.123122	8	0.011765	60	0	60-180	60	137	GapExp	0	127	2	3	1	target	1	355	823	291624	11.765	11.723	11.802
ProbeTrack12	3	ProbeTrack	11.3	WolfelabSpurzheim	20101014.121543	20101014.123129	8	0.011765	60	10	60-180	60	79	GapExp	0	128	2	45	1	target	1	391	805	292429	11.765	11.752	11.776
ProbeTrack12	3	ProbeTrack	11.3	WolfelabSpurzheim	20101014.121543	20101014.123136	8	0.011765	60	0	60-180	60	75	GapExp	0	129	2	1	1	target	1	473	764	293193	11.765	11.755	11.778
ProbeTrack12	3	ProbeTrack	11.3	WolfelabSpurzheim	20101014.121543	20101014.123142	8	0.011765	60	0	60-180	60	67	GapExp	0	130	2	0	0	distractor	1	508	746	293939	11.765	11.731	11.790
ProbeTrack12	3	ProbeTrack	11.3	WolfelabSpurzheim	20101014.121543	20101014.123148	8	0.011765	60	10	60-180	60	105	GapExp	0	131	2	0	0	distractor	1	414	793	294732	11.765	11.754	11.777
ProbeTrack12	3	ProbeTrack	11.3	WolfelabSpurzheim	20101014.121543	20101014.123154	8	0.011765	60	10	60-180	60	180	GapExp	0	132	2	1	0	distractor	1	426	787	295519	11.765	11.755	11.776
ProbeTrack12	3	ProbeTrack	11.3	WolfelabSpurzheim	20101014.121543	20101014.123201	8	0.011765	60	0	60-180	60	142	GapExp	0	133	2	0	0	distractor	1	449	776	296295	11.765	11.753	11.776
ProbeTrack12	3	ProbeTrack	11.3	WolfelabSpurzheim	20101014.121543	20101014.123208	8	0.011765	60	0	60-180	60	137	GapExp	0	134	2	45	1	target	1	402	799	297094	11.765	11.753	11.776
ProbeTrack12	3	ProbeTrack	11.3	WolfelabSpurzheim	20101014.121543	20101014.123215	8	0.011765	60	10	60-180	60	102	GapExp	0	135	2	1	0	distractor	1	414	793	297887	11.765	11.754	11.777
ProbeTrack12	3	ProbeTrack	11.3	WolfelabSpurzheim	20101014.121543	20101014.123222	8	0.011765	60	0	60-180	60	87	GapExp	0	136	2	0	1	target	1	426	787	298674	11.765	11.755	11.776
ProbeTrack12	3	ProbeTrack	11.3	WolfelabSpurzheim	20101014.121543	20101014.123228	8	0.011765	60	10	60-180	60	141	GapExp	0	137	2	0	1	target	1	367	817	299491	11.765	11.755	11.776
ProbeTrack12	3	ProbeTrack	11.3	WolfelabSpurzheim	20101014.121543	20101014.123234	8	0.011765	60	10	60-180	60	111	GapExp	0	138	2	0	0	distractor	1	437	782	300273	11.765	11.754	11.776
ProbeTrack12	3	ProbeTrack	11.3	WolfelabSpurzheim	20101014.121543	20101014.123241	8	0.011765	60	0	60-180	60	79	GapExp	0	139	2	45	1	target	1	426	787	301060	11.765	11.754	11.776
ProbeTrack12	3	ProbeTrack	11.3	WolfelabSpurzheim	20101014.121543	20101014.123247	8	0.011765	60	10	60-180	60	71	GapExp	0	140	2	3	1	target	1	355	823	301883	11.765	11.753	11.776
ProbeTrack12	3	ProbeTrack	11.3	WolfelabSpurzheim	20101014.121543	20101014.123253	8	0.011765	60	10	60-180	60	159	GapExp	0	141	2	45	1	target	1	391	805	302688	11.765	11.753	11.777
ProbeTrack12	3	ProbeTrack	11.3	WolfelabSpurzheim	20101014.121543	20101014.123300	8	0.011765	60	10	60-180	60	142	GapExp	0	142	2	0	0	distractor	1	508	746	303434	11.765	11.754	11.776
ProbeTrack12	3	ProbeTrack	11.3	WolfelabSpurzheim	20101014.121543	20101014.123307	8	0.011765	60	10	60-180	60	111	GapExp	0	143	2	3	0	distractor	1	544	728	304162	11.765	11.754	11.776
ProbeTrack12	3	ProbeTrack	11.3	WolfelabSpurzheim	20101014.121543	20101014.123313	8	0.011765	60	10	60-180	60	61	GapExp	0	144	2	45	0	distractor	1	626	687	304849	11.765	11.753	11.776
ProbeTrack12	3	ProbeTrack	11.3	WolfelabSpurzheim	20101014.121543	20101014.123320	8	0.011765	60	10	60-180	60	159	GapExp	0	145	2	1	0	distractor	1	449	776	305625	11.765	11.754	11.776
ProbeTrack12	3	ProbeTrack	11.3	WolfelabSpurzheim	20101014.121543	20101014.123327	8	0.011765	60	10	60-180	60	62	GapExp	0	146	2	45	0	distractor	1	473	764	306389	11.765	11.752	11.776
ProbeTrack12	3	ProbeTrack	11.3	WolfelabSpurzheim	20101014.121543	20101014.123333	8	0.011765	60	0	60-180	60	169	GapExp	0	147	2	45	0	distractor	1	462	769	307158	11.765	11.754	11.776
ProbeTrack12	3	ProbeTrack	11.3	WolfelabSpurzheim	20101014.121543	20101014.123340	8	0.011765	60	0	60-180	60	164	GapExp	0	148	2	3	0	distractor	1	449	776	307934	11.765	11.742	11.780
ProbeTrack12	3	ProbeTrack	11.3	WolfelabSpurzheim	20101014.121543	20101014.123347	8	0.011765	60	0	60-180	60	121	GapExp	0	149	2	45	1	target	1	449	776	308710	11.765	11.754	11.776
ProbeTrack12	3	ProbeTrack	11.3	WolfelabSpurzheim	20101014.121543	20101014.123354	8	0.011765	60	10	60-180	60	176	GapExp	0	150	2	45	1	target	1	391	805	309515	11.765	11.754	11.777
ProbeTrack12	3	ProbeTrack	11.3	WolfelabSpurzheim	20101014.121543	20101014.123401	8	0.011765	60	10	60-180	60	62	GapExp	0	151	2	3	1	distractor	0	532	-1000	308515	11.765	11.755	11.775
ProbeTrack12	3	ProbeTrack	11.3	WolfelabSpurzheim	20101014.121543	20101014.123408	8	0.011765	60	0	60-180	60	101	GapExp	0	152	2	3	0	distractor	1	449	776	309291	11.819	11.754	23.542
ProbeTrack12	3	ProbeTrack	11.3	WolfelabSpurzheim	20101014.121543	20101014.123430	8	0.011765	60	10	60-180	60	153	GapExp	0	153	2	0	1	target	1	426	787	310078	11.765	11.729	11.808
ProbeTrack12	3	ProbeTrack	11.3	WolfelabSpurzheim	20101014.121543	20101014.123437	8	0.011765	60	10	60-180	60	63	GapExp	0	154	2	0	0	distractor	1	508	746	310824	11.765	11.752	11.776
ProbeTrack12	3	ProbeTrack	11.3	WolfelabSpurzheim	20101014.121543	20101014.123443	8	0.011765	60	10	60-180	60	159	GapExp	0	155	2	1	0	distractor	1	731	635	311459	11.765	11.750	11.776
ProbeTrack12	3	ProbeTrack	11.3	WolfelabSpurzheim	20101014.121543	20101014.123450	8	0.011765	60	10	60-180	60	121	GapExp	0	156	2	3	1	target	1	520	740	312199	11.765	11.754	11.776
ProbeTrack12	3	ProbeTrack	11.3	WolfelabSpurzheim	20101014.121543	20101014.123457	8	0.011765	60	10	60-180	60	169	GapExp	0	157	2	1	1	target	1	461	770	312969	11.765	11.754	11.776
ProbeTrack12	3	ProbeTrack	11.3	WolfelabSpurzheim	20101014.121543	20101014.123505	8	0.011765	60	10	60-180	60	127	GapExp	0	158	2	45	0	distractor	1	496	752	313721	11.765	11.754	11.776
ProbeTrack12	3	ProbeTrack	11.3	WolfelabSpurzheim	20101014.121543	20101014.123512	8	0.011765	60	10	60-180	60	68	GapExp	0	159	2	45	0	distractor	1	485	758	314479	11.765	11.754	11.777
ProbeTrack12	3	ProbeTrack	11.3	WolfelabSpurzheim	20101014.121543	20101014.123519	8	0.011765	60	0	60-180	60	130	GapExp	0	160	2	45	1	target	1	508	746	315225	11.765	11.754	11.777
ProbeTrack12	3	ProbeTrack	11.3	WolfelabSpurzheim	20101014.121543	20101014.123525	8	0.011765	60	0	60-180	60	116	GapExp	0	161	2	1	1	target	1	415	793	316018	11.765	11.754	11.776
ProbeTrack12	3	ProbeTrack	11.3	WolfelabSpurzheim	20101014.121543	20101014.123531	8	0.011765	60	0	60-180	60	62	GapExp	0	162	2	1	0	distractor	1	485	758	316776	11.765	11.741	11.796
ProbeTrack12	3	ProbeTrack	11.3	WolfelabSpurzheim	20101014.121543	20101014.123536	8	0.011765	60	0	60-180	60	174	GapExp	0	163	2	1	1	target	1	414	793	317569	11.765	11.754	11.777
ProbeTrack12	3	ProbeTrack	11.3	WolfelabSpurzheim	20101014.121543	20101014.123544	8	0.011765	60	10	60-180	60	114	GapExp	0	164	2	45	1	distractor	0	696	-1000	316569	11.765	11.754	11.777
ProbeTrack12	3	ProbeTrack	11.3	WolfelabSpurzheim	20101014.121543	20101014.123551	8	0.011765	60	0	60-180	60	78	GapExp	0	165	2	1	1	target	1	461	770	317339	11.765	11.754	11.777
ProbeTrack12	3	ProbeTrack	11.3	WolfelabSpurzheim	20101014.121543	20101014.123559	8	0.011765	60	10	60-180	60	169	GapExp	0	166	2	3	0	distractor	1	438	781	318120	11.765	11.754	11.775
ProbeTrack12	3	ProbeTrack	11.3	WolfelabSpurzheim	20101014.121543	20101014.123606	8	0.011765	60	10	60-180	60	69	GapExp	0	167	2	3	1	target	1	379	811	318931	11.765	11.754	11.777
ProbeTrack12	3	ProbeTrack	11.3	WolfelabSpurzheim	20101014.121543	20101014.123613	8	0.011765	60	10	60-180	60	97	GapExp	0	168	2	45	1	target	1	414	793	319724	11.765	11.754	11.776
ProbeTrack12	3	ProbeTrack	11.3	WolfelabSpurzheim	20101014.121543	20101014.123621	8	0.011765	60	10	60-180	60	172	GapExp	0	169	2	1	0	distractor	1	473	764	320488	11.765	11.755	11.775
ProbeTrack12	3	ProbeTrack	11.3	WolfelabSpurzheim	20101014.121543	20101014.123628	8	0.011765	60	10	60-180	60	85	GapExp	0	170	2	45	1	target	1	449	776	321264	11.765	11.755	11.776
ProbeTrack12	3	ProbeTrack	11.3	WolfelabSpurzheim	20101014.121543	20101014.123635	8	0.011765	60	0	60-180	60	140	GapExp	0	171	2	45	0	distractor	1	532	734	321998	11.765	11.754	11.775
ProbeTrack12	3	ProbeTrack	11.3	WolfelabSpurzheim	20101014.121543	20101014.123643	8	0.011765	60	10	60-180	60	125	GapExp	0	172	2	1	1	target	1	414	793	322791	11.765	11.742	11.786
ProbeTrack12	3	ProbeTrack	11.3	WolfelabSpurzheim	20101014.121543	20101014.123650	8	0.011765	60	0	60-180	60	103	GapExp	0	173	2	45	0	distractor	1	449	776	323567	11.765	11.738	11.796
ProbeTrack12	3	ProbeTrack	11.3	WolfelabSpurzheim	20101014.121543	20101014.123656	8	0.011765	60	0	60-180	60	165	GapExp	0	174	2	1	0	distractor	1	673	664	324231	11.765	11.754	11.777
ProbeTrack12	3	ProbeTrack	11.3	WolfelabSpurzheim	20101014.121543	20101014.123704	8	0.011765	60	0	60-180	60	148	GapExp	0	175	2	0	0	distractor	1	532	734	324965	11.765	11.754	11.776
ProbeTrack12	3	ProbeTrack	11.3	WolfelabSpurzheim	20101014.121543	20101014.123711	8	0.011765	60	0	60-180	60	86	GapExp	0	176	2	1	0	distractor	1	438	781	325746	11.765	11.753	11.775
ProbeTrack12	3	ProbeTrack	11.3	WolfelabSpurzheim	20101014.121543	20101014.123717	8	0.011765	60	10	60-180	60	136	GapExp	0	177	2	45	1	target	1	403	799	326545	11.765	11.741	11.794
ProbeTrack12	3	ProbeTrack	11.3	WolfelabSpurzheim	20101014.121543	20101014.123724	8	0.011765	60	10	60-180	60	76	GapExp	0	178	2	3	1	target	1	391	805	327350	11.765	11.754	11.776
ProbeTrack12	3	ProbeTrack	11.3	WolfelabSpurzheim	20101014.121543	20101014.123730	8	0.011765	60	10	60-180	60	172	GapExp	0	179	2	3	1	target	1	520	740	328090	11.765	11.316	12.211
ProbeTrack12	3	ProbeTrack	11.3	WolfelabSpurzheim	20101014.121543	20101014.123736	8	0.011765	60	0	60-180	60	96	GapExp	0	180	2	0	0	distractor	1	626	687	328777	11.765	11.743	11.784
ProbeTrack12	3	ProbeTrack	11.3	WolfelabSpurzheim	20101014.121543	20101014.123743	8	0.011765	60	0	60-180	60	89	GapExp	0	181	2	1	0	distractor	1	509	746	329523	11.765	11.753	11.777
ProbeTrack12	3	ProbeTrack	11.3	WolfelabSpurzheim	20101014.121543	20101014.123749	8	0.011765	60	0	60-180	60	66	GapExp	0	182	2	3	0	distractor	1	508	746	330269	11.765	11.740	11.789
ProbeTrack12	3	ProbeTrack	11.3	WolfelabSpurzheim	20101014.121543	20101014.123754	8	0.011765	60	0	60-180	60	91	GapExp	0	183	2	3	1	target	1	484	758	331027	11.765	11.753	11.777
ProbeTrack12	3	ProbeTrack	11.3	WolfelabSpurzheim	20101014.121543	20101014.123801	8	0.011765	60	0	60-180	60	79	GapExp	0	184	2	1	0	distractor	1	426	787	331814	11.765	11.754	11.777
ProbeTrack12	3	ProbeTrack	11.3	WolfelabSpurzheim	20101014.121543	20101014.123807	8	0.011765	60	0	60-180	60	95	GapExp	0	185	2	0	0	distractor	1	661	670	332484	11.765	11.754	11.777
ProbeTrack12	3	ProbeTrack	11.3	WolfelabSpurzheim	20101014.121543	20101014.123813	8	0.011765	60	0	60-180	60	171	GapExp	0	186	2	1	0	distractor	1	508	746	333230	11.765	11.754	11.776
ProbeTrack12	3	ProbeTrack	11.3	WolfelabSpurzheim	20101014.121543	20101014.123820	8	0.011765	60	0	60-180	60	103	GapExp	0	187	2	3	1	target	1	355	823	334053	11.765	11.755	11.776
ProbeTrack12	3	ProbeTrack	11.3	WolfelabSpurzheim	20101014.121543	20101014.123827	8	0.011765	60	10	60-180	60	143	GapExp	0	188	2	0	0	distractor	1	426	787	334840	11.765	11.726	11.793
ProbeTrack12	3	ProbeTrack	11.3	WolfelabSpurzheim	20101014.121543	20101014.123833	8	0.011765	60	10	60-180	60	127	GapExp	0	189	2	3	1	target	1	379	811	335651	11.765	11.754	11.777
ProbeTrack12	3	ProbeTrack	11.3	WolfelabSpurzheim	20101014.121543	20101014.123839	8	0.011765	60	0	60-180	60	143	GapExp	0	190	2	3	1	target	1	402	799	336450	11.765	11.738	11.794
ProbeTrack12	3	ProbeTrack	11.3	WolfelabSpurzheim	20101014.121543	20101014.123846	8	0.011765	60	0	60-180	60	111	GapExp	0	191	2	45	0	distractor	1	532	734	337184	11.765	11.752	11.776
ProbeTrack12	3	ProbeTrack	11.3	WolfelabSpurzheim	20101014.121543	20101014.123853	8	0.011765	60	0	60-180	60	175	GapExp	0	192	2	45	0	distractor	1	473	764	337948	11.765	11.754	11.776
ProbeTrack12	3	ProbeTrack	11.3	WolfelabSpurzheim	20101014.121543	20101014.123900	8	0.011765	60	0	60-180	60	165	GapExp	0	193	2	0	0	distractor	1	625	688	338636	11.765	11.754	11.778
ProbeTrack12	3	ProbeTrack	11.3	WolfelabSpurzheim	20101014.121543	20101014.123906	8	0.011765	60	10	60-180	60	144	GapExp	0	194	2	45	1	target	1	473	764	339400	11.765	11.754	11.776
ProbeTrack12	3	ProbeTrack	11.3	WolfelabSpurzheim	20101014.121543	20101014.123915	8	0.011765	60	10	60-180	60	156	GapExp	0	195	2	45	1	target	1	426	787	340187	11.765	11.753	11.776
ProbeTrack12	3	ProbeTrack	11.3	WolfelabSpurzheim	20101014.121543	20101014.123922	8	0.011765	60	0	60-180	60	141	GapExp	0	196	2	3	1	target	1	461	770	340957	11.765	11.754	11.777
ProbeTrack12	3	ProbeTrack	11.3	WolfelabSpurzheim	20101014.121543	20101014.123929	8	0.011765	60	10	60-180	60	162	GapExp	0	197	2	45	0	distractor	1	449	776	341733	11.765	11.754	11.776
ProbeTrack12	3	ProbeTrack	11.3	WolfelabSpurzheim	20101014.121543	20101014.123937	8	0.011765	60	10	60-180	60	139	GapExp	0	198	2	45	1	target	1	391	805	342538	11.765	11.729	11.795
ProbeTrack12	3	ProbeTrack	11.3	WolfelabSpurzheim	20101014.121543	20101014.123945	8	0.011765	60	0	60-180	60	83	GapExp	0	199	2	45	1	target	1	544	728	343266	11.765	11.753	11.777
ProbeTrack12	3	ProbeTrack	11.3	WolfelabSpurzheim	20101014.121543	20101014.123951	8	0.011765	60	10	60-180	60	106	GapExp	0	200	2	1	0	target	0	450	-1000	342266	11.765	11.753	11.776
ProbeTrack12	3	ProbeTrack	11.3	WolfelabSpurzheim	20101014.121543	20101014.123958	8	0.011765	60	0	60-180	60	142	GapExp	0	201	2	3	1	target	1	414	793	343059	11.765	11.753	11.777
ProbeTrack12	3	ProbeTrack	11.3	WolfelabSpurzheim	20101014.121543	20101014.124043	8	0.011765	60	0	60-180	60	98	GapExp	0	202	2	3	1	target	1	390	805	343864	11.765	11.753	11.777
ProbeTrack12	3	ProbeTrack	11.3	WolfelabSpurzheim	20101014.121543	20101014.124049	8	0.011765	60	10	60-180	60	135	GapExp	0	203	2	0	1	target	1	449	776	344640	11.765	11.754	11.776
ProbeTrack12	3	ProbeTrack	11.3	WolfelabSpurzheim	20101014.121543	20101014.124057	8	0.011765	60	10	60-180	60	147	GapExp	0	204	2	45	0	distractor	1	650	675	345315	11.765	11.752	11.777
ProbeTrack12	3	ProbeTrack	11.3	WolfelabSpurzheim	20101014.121543	20101014.124105	8	0.011765	60	10	60-180	60	75	GapExp	0	205	2	45	1	target	1	461	770	346085	11.765	11.748	11.780
ProbeTrack12	3	ProbeTrack	11.3	WolfelabSpurzheim	20101014.121543	20101014.124111	8	0.011765	60	10	60-180	60	83	GapExp	0	206	2	3	1	target	1	402	799	346884	11.765	11.754	11.776
ProbeTrack12	3	ProbeTrack	11.3	WolfelabSpurzheim	20101014.121543	20101014.124118	8	0.011765	60	0	60-180	60	113	GapExp	0	207	2	3	0	distractor	1	508	746	347630	11.765	11.754	11.775
ProbeTrack12	3	ProbeTrack	11.3	WolfelabSpurzheim	20101014.121543	20101014.124124	8	0.011765	60	10	60-180	60	82	GapExp	0	208	2	0	0	distractor	1	426	787	348417	11.765	11.754	11.777
ProbeTrack12	3	ProbeTrack	11.3	WolfelabSpurzheim	20101014.121543	20101014.124132	8	0.011765	60	10	60-180	60	118	GapExp	0	209	2	45	0	distractor	1	497	752	349169	11.765	11.754	11.776
ProbeTrack12	3	ProbeTrack	11.3	WolfelabSpurzheim	20101014.121543	20101014.124139	8	0.011765	60	10	60-180	60	64	GapExp	0	210	2	1	1	target	1	390	805	349974	11.765	11.732	11.801
ProbeTrack12	3	ProbeTrack	11.3	WolfelabSpurzheim	20101014.121543	20101014.124144	8	0.011765	60	0	60-180	60	95	GapExp	0	211	2	1	0	distractor	1	520	740	350714	11.765	11.754	11.776
ProbeTrack12	3	ProbeTrack	11.3	WolfelabSpurzheim	20101014.121543	20101014.124151	8	0.011765	60	10	60-180	60	131	GapExp	0	212	2	3	1	target	1	426	787	351501	11.765	11.753	11.776
ProbeTrack12	3	ProbeTrack	11.3	WolfelabSpurzheim	20101014.121543	20101014.124157	8	0.011765	60	0	60-180	60	99	GapExp	0	213	2	0	1	target	1	426	787	352288	11.765	11.754	11.777
ProbeTrack12	3	ProbeTrack	11.3	WolfelabSpurzheim	20101014.121543	20101014.124203	8	0.011765	60	10	60-180	60	168	GapExp	0	214	2	0	0	distractor	1	638	681	352969	11.765	11.754	11.776
ProbeTrack12	3	ProbeTrack	11.3	WolfelabSpurzheim	20101014.121543	20101014.124210	8	0.011765	60	0	60-180	60	172	GapExp	0	215	2	0	1	target	1	367	817	353786	11.765	11.754	11.776
ProbeTrack12	3	ProbeTrack	11.3	WolfelabSpurzheim	20101014.121543	20101014.124217	8	0.011765	60	0	60-180	60	69	GapExp	0	216	2	3	0	distractor	1	485	758	354544	11.765	11.755	11.775
ProbeTrack12	3	ProbeTrack	11.3	WolfelabSpurzheim	20101014.121543	20101014.124222	8	0.011765	60	0	60-180	60	124	GapExp	0	217	2	0	1	target	1	414	793	355337	11.765	11.718	11.817
ProbeTrack12	3	ProbeTrack	11.3	WolfelabSpurzheim	20101014.121543	20101014.124228	8	0.011765	60	0	60-180	60	96	GapExp	0	218	2	45	1	target	1	391	805	356142	11.765	11.754	11.776
ProbeTrack12	3	ProbeTrack	11.3	WolfelabSpurzheim	20101014.121543	20101014.124235	8	0.011765	60	10	60-180	60	68	GapExp	0	219	2	45	0	distractor	1	461	770	356912	11.765	11.755	11.776
ProbeTrack12	3	ProbeTrack	11.3	WolfelabSpurzheim	20101014.121543	20101014.124241	8	0.011765	60	0	60-180	60	72	GapExp	0	220	2	1	1	target	1	415	793	357705	11.765	11.755	11.776
ProbeTrack12	3	ProbeTrack	11.3	WolfelabSpurzheim	20101014.121543	20101014.124248	8	0.011765	60	0	60-180	60	99	GapExp	0	221	2	0	0	distractor	1	437	782	358487	11.765	11.753	11.777
ProbeTrack12	3	ProbeTrack	11.3	WolfelabSpurzheim	20101014.121543	20101014.124254	8	0.011765	60	10	60-180	60	174	GapExp	0	222	2	3	0	distractor	1	449	776	359263	11.765	11.753	11.777
ProbeTrack12	3	ProbeTrack	11.3	WolfelabSpurzheim	20101014.121543	20101014.124301	8	0.011765	60	10	60-180	60	62	GapExp	0	223	2	45	0	distractor	1	485	758	360021	11.765	11.754	11.777
ProbeTrack12	3	ProbeTrack	11.3	WolfelabSpurzheim	20101014.121543	20101014.124308	8	0.011765	60	10	60-180	60	142	GapExp	0	224	2	45	0	distractor	1	497	752	360773	11.765	11.753	11.775
ProbeTrack12	3	ProbeTrack	11.3	WolfelabSpurzheim	20101014.121543	20101014.124316	8	0.011765	60	10	60-180	60	155	GapExp	0	225	2	45	0	distractor	1	508	746	361519	11.765	11.753	11.777
ProbeTrack12	3	ProbeTrack	11.3	WolfelabSpurzheim	20101014.121543	20101014.124324	8	0.011765	60	0	60-180	60	112	GapExp	0	226	2	45	1	target	1	649	676	362195	11.806	11.753	23.537
ProbeTrack12	3	ProbeTrack	11.3	WolfelabSpurzheim	20101014.121543	20101014.124332	8	0.011765	60	0	60-180	60	81	GapExp	0	227	2	3	0	distractor	1	509	746	362941	11.765	11.753	11.777
ProbeTrack12	3	ProbeTrack	11.3	WolfelabSpurzheim	20101014.121543	20101014.124338	8	0.011765	60	0	60-180	60	148	GapExp	0	228	2	1	0	distractor	1	402	799	363740	11.765	11.755	11.776
ProbeTrack12	3	ProbeTrack	11.3	WolfelabSpurzheim	20101014.121543	20101014.124345	8	0.011765	60	0	60-180	60	83	GapExp	0	229	2	1	0	distractor	1	497	752	364492	11.765	11.755	11.776
ProbeTrack12	3	ProbeTrack	11.3	WolfelabSpurzheim	20101014.121543	20101014.124351	8	0.011765	60	0	60-180	60	88	GapExp	0	230	2	0	0	distractor	1	414	793	365285	11.765	11.754	11.775
ProbeTrack12	3	ProbeTrack	11.3	WolfelabSpurzheim	20101014.121543	20101014.124358	8	0.011765	60	0	60-180	60	79	GapExp	0	231	2	3	0	distractor	1	414	793	366078	11.765	11.754	11.776
ProbeTrack12	3	ProbeTrack	11.3	WolfelabSpurzheim	20101014.121543	20101014.124404	8	0.011765	60	10	60-180	60	171	GapExp	0	232	2	1	1	target	1	414	793	366871	11.765	11.755	11.776
ProbeTrack12	3	ProbeTrack	11.3	WolfelabSpurzheim	20101014.121543	20101014.124411	8	0.011765	60	10	60-180	60	150	GapExp	0	233	2	0	1	target	1	520	740	367611	11.765	11.753	11.776
ProbeTrack12	3	ProbeTrack	11.3	WolfelabSpurzheim	20101014.121543	20101014.124418	8	0.011765	60	0	60-180	60	127	GapExp	0	234	2	45	1	target	1	461	770	368381	11.765	11.750	11.777
ProbeTrack12	3	ProbeTrack	11.3	WolfelabSpurzheim	20101014.121543	20101014.124425	8	0.011765	60	10	60-180	60	109	GapExp	0	235	2	1	1	target	1	402	799	369180	11.765	11.753	11.776
ProbeTrack12	3	ProbeTrack	11.3	WolfelabSpurzheim	20101014.121543	20101014.124431	8	0.011765	60	10	60-180	60	145	GapExp	0	236	2	1	0	target	0	497	-1000	368180	11.765	11.755	11.775
ProbeTrack12	3	ProbeTrack	11.3	WolfelabSpurzheim	20101014.121543	20101014.124438	8	0.011765	60	0	60-180	60	151	GapExp	0	237	2	1	0	distractor	1	508	746	368926	11.765	11.754	11.775
ProbeTrack12	3	ProbeTrack	11.3	WolfelabSpurzheim	20101014.121543	20101014.124445	8	0.011765	60	10	60-180	60	69	GapExp	0	238	2	3	1	target	1	403	799	369725	11.765	11.754	11.777
ProbeTrack12	3	ProbeTrack	11.3	WolfelabSpurzheim	20101014.121543	20101014.124451	8	0.011765	60	10	60-180	60	161	GapExp	0	239	2	1	1	target	1	379	811	370536	11.765	11.755	11.777
ProbeTrack12	3	ProbeTrack	11.3	WolfelabSpurzheim	20101014.121543	20101014.124458	8	0.011765	60	0	60-180	60	84	GapExp	0	240	2	45	1	target	1	473	764	371300	11.765	11.753	11.777
ProbeTrack12	3	ProbeTrack	11.3	WolfelabSpurzheim	20101014.121543	20101014.124503	8	0.011765	60	10	60-180	60	89	GapExp	0	241	2	0	0	distractor	1	461	770	372070	11.765	11.754	11.776
ProbeTrack12	3	ProbeTrack	11.3	WolfelabSpurzheim	20101014.121543	20101014.124509	8	0.011765	60	10	60-180	60	134	GapExp	0	242	2	1	0	distractor	1	414	793	372863	11.765	11.749	11.776
ProbeTrack12	3	ProbeTrack	11.3	WolfelabSpurzheim	20101014.121543	20101014.124518	8	0.011765	60	0	60-180	60	107	GapExp	0	243	2	0	1	target	1	520	740	373603	11.765	11.754	11.776
ProbeTrack12	3	ProbeTrack	11.3	WolfelabSpurzheim	20101014.121543	20101014.124524	8	0.011765	60	10	60-180	60	98	GapExp	0	244	2	3	0	distractor	1	473	764	374367	11.765	11.724	11.804
ProbeTrack12	3	ProbeTrack	11.3	WolfelabSpurzheim	20101014.121543	20101014.124530	8	0.011765	60	0	60-180	60	82	GapExp	0	245	2	1	0	distractor	1	484	758	375125	11.765	11.753	11.775
ProbeTrack12	3	ProbeTrack	11.3	WolfelabSpurzheim	20101014.121543	20101014.124535	8	0.011765	60	10	60-180	60	106	GapExp	0	246	2	0	0	distractor	1	449	776	375901	11.765	11.755	11.776
ProbeTrack12	3	ProbeTrack	11.3	WolfelabSpurzheim	20101014.121543	20101014.124541	8	0.011765	60	0	60-180	60	107	GapExp	0	247	2	3	1	target	1	391	805	376706	11.765	11.750	11.776
ProbeTrack12	3	ProbeTrack	11.3	WolfelabSpurzheim	20101014.121543	20101014.124547	8	0.011765	60	10	60-180	60	139	GapExp	0	248	2	3	0	distractor	1	367	817	377523	11.765	11.754	11.776
ProbeTrack12	3	ProbeTrack	11.3	WolfelabSpurzheim	20101014.121543	20101014.124553	8	0.011765	60	0	60-180	60	97	GapExp	0	249	2	0	1	target	1	461	770	378293	11.765	11.753	11.776
ProbeTrack12	3	ProbeTrack	11.3	WolfelabSpurzheim	20101014.121543	20101014.124559	8	0.011765	60	10	60-180	60	146	GapExp	0	250	2	0	1	distractor	0	379	-1000	377293	11.765	11.754	11.778
