exp	sub	code	rev	comp	runtime	trialtime	nstim	refreshdur	cuedur	gapdur	gapOnsetRange	durPostProbe	gapOnsetTime	blocktype	prac	trial	ntargets	soa	probeTarget	resp	acc	rt	pts	tpts	meanFrameDur	minFrameDur	maxFrameDur
ProbeTrack12	5	ProbeTrack	11.3	WolfelabHowe	20101019.114657	20101019.114808	8	0.011766	60	0	60-180	60	139	NoGap	1	1	2	45	0	distractor	1	2108	0	0	11.986	11.753	35.295
ProbeTrack12	5	ProbeTrack	11.3	WolfelabHowe	20101019.114657	20101019.114819	8	0.011766	60	0	60-180	60	79	NoGap	1	2	2	3	1	target	1	861	570	570	11.765	11.753	11.778
ProbeTrack12	5	ProbeTrack	11.3	WolfelabHowe	20101019.114657	20101019.114831	8	0.011766	60	0	60-180	60	142	NoGap	1	3	2	0	0	distractor	1	508	746	1316	11.855	11.753	23.536
ProbeTrack12	5	ProbeTrack	11.3	WolfelabHowe	20101019.114657	20101019.114840	8	0.011766	60	0	60-180	60	100	NoGap	1	4	2	0	0	distractor	1	567	717	2033	11.765	11.753	11.780
ProbeTrack12	5	ProbeTrack	11.3	WolfelabHowe	20101019.114657	20101019.114846	8	0.011766	60	0	60-180	60	110	NoGap	1	5	2	0	0	distractor	1	438	781	2814	11.765	11.753	11.778
ProbeTrack12	5	ProbeTrack	11.3	WolfelabHowe	20101019.114657	20101019.114854	8	0.011766	60	0	60-180	60	113	NoGap	1	6	2	45	0	distractor	1	497	752	3566	11.765	11.753	11.778
ProbeTrack12	5	ProbeTrack	11.3	WolfelabHowe	20101019.114657	20101019.114900	8	0.011766	60	0	60-180	60	76	NoGap	1	7	2	3	0	distractor	1	497	752	4318	11.765	11.753	11.779
ProbeTrack12	5	ProbeTrack	11.3	WolfelabHowe	20101019.114657	20101019.114905	8	0.011766	60	0	60-180	60	70	NoGap	1	8	2	3	1	distractor	0	520	-1000	3318	11.765	11.745	11.782
ProbeTrack12	5	ProbeTrack	11.3	WolfelabHowe	20101019.114657	20101019.114911	8	0.011766	60	0	60-180	60	109	NoGap	1	9	2	0	1	target	1	473	764	4082	11.765	11.754	11.777
ProbeTrack12	5	ProbeTrack	11.3	WolfelabHowe	20101019.114657	20101019.114916	8	0.011766	60	0	60-180	60	123	NoGap	1	10	2	45	0	distractor	1	508	746	4828	11.765	11.755	11.776
ProbeTrack12	5	ProbeTrack	11.3	WolfelabHowe	20101019.114657	20101019.114923	8	0.011766	60	0	60-180	60	125	NoGap	1	11	2	1	0	distractor	1	402	799	5627	11.765	11.726	11.812
ProbeTrack12	5	ProbeTrack	11.3	WolfelabHowe	20101019.114657	20101019.114930	8	0.011766	60	0	60-180	60	98	NoGap	1	12	2	0	0	distractor	1	556	722	6349	11.765	11.753	11.776
ProbeTrack12	5	ProbeTrack	11.3	WolfelabHowe	20101019.114657	20101019.114936	8	0.011766	60	0	60-180	60	110	NoGap	1	13	2	45	1	target	1	285	858	7207	11.765	11.754	11.776
ProbeTrack12	5	ProbeTrack	11.3	WolfelabHowe	20101019.114657	20101019.114942	8	0.011766	60	0	60-180	60	87	NoGap	1	14	2	0	1	distractor	0	356	-1000	6207	11.765	11.754	11.778
ProbeTrack12	5	ProbeTrack	11.3	WolfelabHowe	20101019.114657	20101019.114947	8	0.011766	60	0	60-180	60	179	NoGap	1	15	2	1	0	distractor	1	320	840	7047	11.765	11.753	11.778
ProbeTrack12	5	ProbeTrack	11.3	WolfelabHowe	20101019.114657	20101019.114953	8	0.011766	60	0	60-180	60	68	NoGap	1	16	2	1	1	target	1	638	681	7728	11.765	11.753	11.778
ProbeTrack12	5	ProbeTrack	11.3	WolfelabHowe	20101019.114657	20101019.114958	8	0.011766	60	0	60-180	60	97	NoGap	1	17	2	45	1	target	1	332	834	8562	11.765	11.752	11.778
ProbeTrack12	5	ProbeTrack	11.3	WolfelabHowe	20101019.114657	20101019.115004	8	0.011766	60	0	60-180	60	124	NoGap	1	18	2	1	1	target	1	402	799	9361	11.765	11.754	11.781
ProbeTrack12	5	ProbeTrack	11.3	WolfelabHowe	20101019.114657	20101019.115010	8	0.011766	60	0	60-180	60	165	NoGap	1	19	2	1	0	distractor	1	367	817	10178	11.765	11.752	11.777
ProbeTrack12	5	ProbeTrack	11.3	WolfelabHowe	20101019.114657	20101019.115016	8	0.011766	60	0	60-180	60	157	NoGap	1	20	2	1	1	target	1	402	799	10977	11.765	11.727	11.803
ProbeTrack12	5	ProbeTrack	11.3	WolfelabHowe	20101019.114657	20101019.115022	8	0.011766	60	0	60-180	60	99	NoGap	1	21	2	3	0	distractor	1	449	776	11753	11.765	11.752	11.777
ProbeTrack12	5	ProbeTrack	11.3	WolfelabHowe	20101019.114657	20101019.115027	8	0.011766	60	0	60-180	60	132	NoGap	1	22	2	1	1	distractor	0	391	-1000	10753	11.765	11.753	11.777
ProbeTrack12	5	ProbeTrack	11.3	WolfelabHowe	20101019.114657	20101019.115033	8	0.011766	60	0	60-180	60	165	NoGap	1	23	2	1	0	distractor	1	379	811	11564	11.765	11.753	11.777
ProbeTrack12	5	ProbeTrack	11.3	WolfelabHowe	20101019.114657	20101019.115039	8	0.011766	60	0	60-180	60	94	NoGap	1	24	2	0	1	target	1	332	834	12398	11.765	11.756	11.775
ProbeTrack12	5	ProbeTrack	11.3	WolfelabHowe	20101019.114657	20101019.115044	8	0.011766	60	0	60-180	60	156	NoGap	1	25	2	3	0	distractor	1	509	746	13144	11.765	11.754	11.777
ProbeTrack12	5	ProbeTrack	11.3	WolfelabHowe	20101019.114657	20101019.115050	8	0.011766	60	0	60-180	60	114	NoGap	1	26	2	0	1	target	1	344	828	13972	11.765	11.728	11.807
ProbeTrack12	5	ProbeTrack	11.3	WolfelabHowe	20101019.114657	20101019.115056	8	0.011766	60	0	60-180	60	155	NoGap	1	27	2	0	0	distractor	1	496	752	14724	11.765	11.728	11.801
ProbeTrack12	5	ProbeTrack	11.3	WolfelabHowe	20101019.114657	20101019.115102	8	0.011766	60	0	60-180	60	176	NoGap	1	28	2	1	0	distractor	1	402	799	15523	11.765	11.747	11.782
ProbeTrack12	5	ProbeTrack	11.3	WolfelabHowe	20101019.114657	20101019.115108	8	0.011766	60	0	60-180	60	76	NoGap	1	29	2	3	0	distractor	1	567	717	16240	11.765	11.752	11.776
ProbeTrack12	5	ProbeTrack	11.3	WolfelabHowe	20101019.114657	20101019.115113	8	0.011766	60	0	60-180	60	150	NoGap	1	30	2	45	1	target	1	402	799	17039	11.765	11.754	11.778
ProbeTrack12	5	ProbeTrack	11.3	WolfelabHowe	20101019.114657	20101019.115120	8	0.011766	60	0	60-180	60	130	NoGap	1	31	2	45	1	target	1	344	828	17867	11.765	11.750	11.778
ProbeTrack12	5	ProbeTrack	11.3	WolfelabHowe	20101019.114657	20101019.115126	8	0.011766	60	0	60-180	60	90	NoGap	1	32	2	1	1	target	1	390	805	18672	11.765	11.755	11.779
ProbeTrack12	5	ProbeTrack	11.3	WolfelabHowe	20101019.114657	20101019.115131	8	0.011766	60	0	60-180	60	142	NoGap	1	33	2	3	1	target	1	390	805	19477	11.765	11.725	11.801
ProbeTrack12	5	ProbeTrack	11.3	WolfelabHowe	20101019.114657	20101019.115137	8	0.011766	60	0	60-180	60	85	NoGap	1	34	2	45	0	distractor	1	461	770	20247	11.765	11.752	11.777
ProbeTrack12	5	ProbeTrack	11.3	WolfelabHowe	20101019.114657	20101019.115143	8	0.011766	60	0	60-180	60	163	NoGap	1	35	2	3	1	target	1	320	840	21087	11.765	11.753	11.777
ProbeTrack12	5	ProbeTrack	11.3	WolfelabHowe	20101019.114657	20101019.115149	8	0.011766	60	0	60-180	60	118	NoGap	1	36	2	3	1	target	1	414	793	21880	11.765	11.755	11.776
ProbeTrack12	5	ProbeTrack	11.3	WolfelabHowe	20101019.114657	20101019.115154	8	0.011766	60	0	60-180	60	176	NoGap	1	37	2	45	1	target	1	496	752	22632	11.765	11.726	11.806
ProbeTrack12	5	ProbeTrack	11.3	WolfelabHowe	20101019.114657	20101019.115201	8	0.011766	60	0	60-180	60	144	NoGap	1	38	2	3	0	distractor	1	485	758	23390	11.765	11.753	11.778
ProbeTrack12	5	ProbeTrack	11.3	WolfelabHowe	20101019.114657	20101019.115207	8	0.011766	60	0	60-180	60	115	NoGap	1	39	2	45	0	distractor	1	461	770	24160	11.765	11.753	11.777
ProbeTrack12	5	ProbeTrack	11.3	WolfelabHowe	20101019.114657	20101019.115213	8	0.011766	60	0	60-180	60	144	NoGap	1	40	2	0	1	distractor	0	450	-1000	23160	11.765	11.753	11.776
ProbeTrack12	5	ProbeTrack	11.3	WolfelabHowe	20101019.115305	20101019.115317	8	0.011766	60	10	60-180	60	96	GapPrac	1	1	2	0	0	distractor	1	555	723	23883	12.073	11.754	23.528
ProbeTrack12	5	ProbeTrack	11.3	WolfelabHowe	20101019.115305	20101019.115323	8	0.011766	60	10	60-180	60	159	GapPrac	1	2	2	1	0	distractor	1	473	764	24647	11.765	11.754	11.777
ProbeTrack12	5	ProbeTrack	11.3	WolfelabHowe	20101019.115305	20101019.115330	8	0.011766	60	0	60-180	60	99	GapPrac	1	3	2	45	0	distractor	1	473	764	25411	12.036	11.720	35.292
ProbeTrack12	5	ProbeTrack	11.3	WolfelabHowe	20101019.115305	20101019.115336	8	0.011766	60	10	60-180	60	111	GapPrac	1	4	2	0	1	target	1	579	711	26122	11.813	11.753	23.533
ProbeTrack12	5	ProbeTrack	11.3	WolfelabHowe	20101019.115305	20101019.115342	8	0.011766	60	0	60-180	60	175	GapPrac	1	5	2	0	1	target	1	449	776	26898	11.765	11.752	11.778
ProbeTrack12	5	ProbeTrack	11.3	WolfelabHowe	20101019.115305	20101019.115348	8	0.011766	60	10	60-180	60	68	GapPrac	1	6	2	3	0	distractor	1	450	775	27673	11.765	11.754	11.776
ProbeTrack12	5	ProbeTrack	11.3	WolfelabHowe	20101019.115305	20101019.115353	8	0.011766	60	10	60-180	60	63	GapPrac	1	7	2	3	1	target	1	462	769	28442	11.765	11.753	11.778
ProbeTrack12	5	ProbeTrack	11.3	WolfelabHowe	20101019.115305	20101019.115358	8	0.011766	60	0	60-180	60	142	GapPrac	1	8	2	3	1	target	1	391	805	29247	11.765	11.755	11.776
ProbeTrack12	5	ProbeTrack	11.3	WolfelabHowe	20101019.115305	20101019.115404	8	0.011766	60	0	60-180	60	134	GapPrac	1	9	2	45	1	target	1	426	787	30034	11.765	11.754	11.777
ProbeTrack12	5	ProbeTrack	11.3	WolfelabHowe	20101019.115305	20101019.115410	8	0.011766	60	0	60-180	60	172	GapPrac	1	10	2	1	1	target	1	391	805	30839	11.765	11.718	11.815
ProbeTrack12	5	ProbeTrack	11.3	WolfelabHowe	20101019.115305	20101019.115416	8	0.011766	60	0	60-180	60	135	GapPrac	1	11	2	0	0	target	0	403	-1000	29839	11.765	11.755	11.778
ProbeTrack12	5	ProbeTrack	11.3	WolfelabHowe	20101019.115305	20101019.115422	8	0.011766	60	10	60-180	60	158	GapPrac	1	12	2	1	1	target	1	591	705	30544	11.765	11.754	11.779
ProbeTrack12	5	ProbeTrack	11.3	WolfelabHowe	20101019.115305	20101019.115428	8	0.011766	60	0	60-180	60	63	GapPrac	1	13	2	3	0	distractor	1	591	705	31249	11.765	11.755	11.776
ProbeTrack12	5	ProbeTrack	11.3	WolfelabHowe	20101019.115305	20101019.115433	8	0.011766	60	10	60-180	60	130	GapPrac	1	14	2	45	0	distractor	1	238	881	32130	11.765	11.706	11.826
ProbeTrack12	5	ProbeTrack	11.3	WolfelabHowe	20101019.115305	20101019.115440	8	0.011766	60	0	60-180	60	61	GapPrac	1	15	2	45	0	distractor	1	638	681	32811	11.765	11.753	11.775
ProbeTrack12	5	ProbeTrack	11.3	WolfelabHowe	20101019.115305	20101019.115445	8	0.011766	60	0	60-180	60	129	GapPrac	1	16	2	1	0	distractor	1	555	723	33534	11.765	11.752	11.778
ProbeTrack12	5	ProbeTrack	11.3	WolfelabHowe	20101019.115305	20101019.115451	8	0.011766	60	10	60-180	60	96	GapPrac	1	17	2	1	0	target	0	496	-1000	32534	11.765	11.753	11.776
ProbeTrack12	5	ProbeTrack	11.3	WolfelabHowe	20101019.115305	20101019.115456	8	0.011766	60	10	60-180	60	168	GapPrac	1	18	2	0	0	distractor	1	579	711	33245	11.765	11.754	11.778
ProbeTrack12	5	ProbeTrack	11.3	WolfelabHowe	20101019.115305	20101019.115503	8	0.011766	60	10	60-180	60	140	GapPrac	1	19	2	45	1	distractor	0	473	-1000	32245	11.765	11.753	11.779
ProbeTrack12	5	ProbeTrack	11.3	WolfelabHowe	20101019.115305	20101019.115510	8	0.011766	60	10	60-180	60	111	GapPrac	1	20	2	0	1	target	1	496	752	32997	11.765	11.755	11.778
ProbeTrack12	5	ProbeTrack	11.3	WolfelabHowe	20101019.115604	20101019.115614	8	0.011766	60	10	60-180	60	67	GapExp	1	1	2	3	0	distractor	1	485	758	33755	12.124	11.753	23.540
ProbeTrack12	5	ProbeTrack	11.3	WolfelabHowe	20101019.115604	20101019.115621	8	0.011766	60	0	60-180	60	154	GapExp	1	2	2	0	1	target	1	485	758	34513	11.981	11.753	23.529
ProbeTrack12	5	ProbeTrack	11.3	WolfelabHowe	20101019.115604	20101019.115628	8	0.011766	60	10	60-180	60	107	GapExp	1	3	2	1	1	target	1	579	711	35224	11.765	11.753	11.777
ProbeTrack12	5	ProbeTrack	11.3	WolfelabHowe	20101019.115604	20101019.115633	8	0.011766	60	0	60-180	60	102	GapExp	1	4	2	45	1	target	1	497	752	35976	11.854	11.752	35.292
ProbeTrack12	5	ProbeTrack	11.3	WolfelabHowe	20101019.115604	20101019.115640	8	0.011766	60	0	60-180	60	63	GapExp	1	5	2	1	0	distractor	1	556	722	36698	11.765	11.753	11.777
ProbeTrack12	5	ProbeTrack	11.3	WolfelabHowe	20101019.115604	20101019.115645	8	0.011766	60	10	60-180	60	175	GapExp	1	6	2	3	1	target	1	567	717	37415	11.765	11.754	11.776
ProbeTrack12	5	ProbeTrack	11.3	WolfelabHowe	20101019.115604	20101019.115651	8	0.011766	60	10	60-180	60	178	GapExp	1	7	2	0	0	distractor	1	367	817	38232	11.765	11.754	11.778
ProbeTrack12	5	ProbeTrack	11.3	WolfelabHowe	20101019.115604	20101019.115657	8	0.011766	60	0	60-180	60	117	GapExp	1	8	2	1	1	target	1	532	734	38966	11.765	11.706	11.823
ProbeTrack12	5	ProbeTrack	11.3	WolfelabHowe	20101019.115604	20101019.115703	8	0.011766	60	0	60-180	60	97	GapExp	1	9	2	0	0	distractor	1	543	729	39695	11.765	11.753	11.777
ProbeTrack12	5	ProbeTrack	11.3	WolfelabHowe	20101019.115604	20101019.115709	8	0.011766	60	0	60-180	60	117	GapExp	1	10	2	3	1	target	1	473	764	40459	11.765	11.753	11.776
ProbeTrack12	5	ProbeTrack	11.3	WolfelabHowe	20101019.115604	20101019.115715	8	0.011766	60	10	60-180	60	179	GapExp	0	11	2	1	0	distractor	1	790	605	41064	11.765	11.754	11.781
ProbeTrack12	5	ProbeTrack	11.3	WolfelabHowe	20101019.115604	20101019.115721	8	0.011766	60	0	60-180	60	75	GapExp	0	12	2	45	0	distractor	1	638	681	41745	11.765	11.751	11.783
ProbeTrack12	5	ProbeTrack	11.3	WolfelabHowe	20101019.115604	20101019.115727	8	0.011766	60	0	60-180	60	160	GapExp	0	13	2	1	1	target	1	391	805	42550	11.765	11.752	11.776
ProbeTrack12	5	ProbeTrack	11.3	WolfelabHowe	20101019.115604	20101019.115733	8	0.011766	60	0	60-180	60	105	GapExp	0	14	2	45	0	distractor	1	520	740	43290	11.765	11.753	11.778
ProbeTrack12	5	ProbeTrack	11.3	WolfelabHowe	20101019.115604	20101019.115739	8	0.011766	60	10	60-180	60	100	GapExp	0	15	2	3	1	target	1	579	711	44001	11.765	11.753	11.778
ProbeTrack12	5	ProbeTrack	11.3	WolfelabHowe	20101019.115604	20101019.115745	8	0.011766	60	0	60-180	60	113	GapExp	0	16	2	3	0	distractor	1	426	787	44788	11.765	11.698	11.827
ProbeTrack12	5	ProbeTrack	11.3	WolfelabHowe	20101019.115604	20101019.115750	8	0.011766	60	0	60-180	60	70	GapExp	0	17	2	1	1	distractor	0	461	-1000	43788	11.765	11.754	11.776
ProbeTrack12	5	ProbeTrack	11.3	WolfelabHowe	20101019.115604	20101019.115756	8	0.011766	60	0	60-180	60	150	GapExp	0	18	2	1	0	distractor	1	508	746	44534	11.765	11.753	11.779
ProbeTrack12	5	ProbeTrack	11.3	WolfelabHowe	20101019.115604	20101019.115802	8	0.011766	60	10	60-180	60	96	GapExp	0	19	2	3	1	target	1	426	787	45321	11.765	11.753	11.777
ProbeTrack12	5	ProbeTrack	11.3	WolfelabHowe	20101019.115604	20101019.115807	8	0.011766	60	0	60-180	60	155	GapExp	0	20	2	0	1	target	1	555	723	46044	11.765	11.694	11.834
ProbeTrack12	5	ProbeTrack	11.3	WolfelabHowe	20101019.115604	20101019.115813	8	0.011766	60	0	60-180	60	136	GapExp	0	21	2	45	0	distractor	1	520	740	46784	11.765	11.753	11.778
ProbeTrack12	5	ProbeTrack	11.3	WolfelabHowe	20101019.115604	20101019.115820	8	0.011766	60	10	60-180	60	148	GapExp	0	22	2	0	0	target	0	696	-1000	45784	11.765	11.749	11.783
ProbeTrack12	5	ProbeTrack	11.3	WolfelabHowe	20101019.115604	20101019.115826	8	0.011766	60	10	60-180	60	95	GapExp	0	23	2	45	1	target	1	438	781	46565	11.765	11.753	11.777
ProbeTrack12	5	ProbeTrack	11.3	WolfelabHowe	20101019.115604	20101019.115832	8	0.011766	60	0	60-180	60	159	GapExp	0	24	2	3	0	distractor	1	567	717	47282	11.765	11.753	11.776
ProbeTrack12	5	ProbeTrack	11.3	WolfelabHowe	20101019.115604	20101019.115838	8	0.011766	60	10	60-180	60	130	GapExp	0	25	2	1	1	target	1	426	787	48069	11.765	11.752	11.777
ProbeTrack12	5	ProbeTrack	11.3	WolfelabHowe	20101019.115604	20101019.115844	8	0.011766	60	10	60-180	60	123	GapExp	0	26	2	3	1	target	1	402	799	48868	11.765	11.753	11.779
ProbeTrack12	5	ProbeTrack	11.3	WolfelabHowe	20101019.115604	20101019.115850	8	0.011766	60	10	60-180	60	156	GapExp	0	27	2	45	1	target	1	379	811	49679	11.765	11.753	11.776
ProbeTrack12	5	ProbeTrack	11.3	WolfelabHowe	20101019.115604	20101019.115857	8	0.011766	60	10	60-180	60	147	GapExp	0	28	2	0	1	target	1	414	793	50472	11.765	11.753	11.778
ProbeTrack12	5	ProbeTrack	11.3	WolfelabHowe	20101019.115604	20101019.115903	8	0.011766	60	0	60-180	60	138	GapExp	0	29	2	0	1	distractor	0	390	-1000	49472	11.765	11.749	11.791
ProbeTrack12	5	ProbeTrack	11.3	WolfelabHowe	20101019.115604	20101019.115909	8	0.011766	60	10	60-180	60	70	GapExp	0	30	2	0	1	target	1	379	811	50283	11.765	11.753	11.776
ProbeTrack12	5	ProbeTrack	11.3	WolfelabHowe	20101019.115604	20101019.115914	8	0.011766	60	0	60-180	60	98	GapExp	0	31	2	0	0	distractor	1	567	717	51000	11.765	11.753	11.779
ProbeTrack12	5	ProbeTrack	11.3	WolfelabHowe	20101019.115604	20101019.115919	8	0.011766	60	10	60-180	60	77	GapExp	0	32	2	0	0	distractor	1	579	711	51711	11.765	11.706	11.825
ProbeTrack12	5	ProbeTrack	11.3	WolfelabHowe	20101019.115604	20101019.115925	8	0.011766	60	0	60-180	60	133	GapExp	0	33	2	45	1	target	1	438	781	52492	11.765	11.717	11.816
ProbeTrack12	5	ProbeTrack	11.3	WolfelabHowe	20101019.115604	20101019.115931	8	0.011766	60	0	60-180	60	107	GapExp	0	34	2	3	1	target	1	426	787	53279	11.765	11.754	11.777
ProbeTrack12	5	ProbeTrack	11.3	WolfelabHowe	20101019.115604	20101019.115937	8	0.011766	60	0	60-180	60	94	GapExp	0	35	2	1	1	target	1	355	823	54102	11.765	11.753	11.776
ProbeTrack12	5	ProbeTrack	11.3	WolfelabHowe	20101019.115604	20101019.115942	8	0.011766	60	10	60-180	60	83	GapExp	0	36	2	1	0	distractor	1	567	717	54819	11.765	11.753	11.777
ProbeTrack12	5	ProbeTrack	11.3	WolfelabHowe	20101019.115604	20101019.115947	8	0.011766	60	10	60-180	60	124	GapExp	0	37	2	45	0	distractor	1	555	723	55542	11.765	11.753	11.776
ProbeTrack12	5	ProbeTrack	11.3	WolfelabHowe	20101019.115604	20101019.115953	8	0.011766	60	0	60-180	60	165	GapExp	0	38	2	1	0	distractor	1	591	705	56247	11.765	11.753	11.777
ProbeTrack12	5	ProbeTrack	11.3	WolfelabHowe	20101019.115604	20101019.120000	8	0.011766	60	0	60-180	60	108	GapExp	0	39	2	3	0	distractor	1	603	699	56946	11.765	11.753	11.784
ProbeTrack12	5	ProbeTrack	11.3	WolfelabHowe	20101019.115604	20101019.120005	8	0.011766	60	10	60-180	60	129	GapExp	0	40	2	1	0	distractor	1	614	693	57639	11.765	11.754	11.776
ProbeTrack12	5	ProbeTrack	11.3	WolfelabHowe	20101019.115604	20101019.120011	8	0.011766	60	10	60-180	60	141	GapExp	0	41	2	45	0	distractor	1	508	746	58385	11.765	11.741	11.788
ProbeTrack12	5	ProbeTrack	11.3	WolfelabHowe	20101019.115604	20101019.120018	8	0.011766	60	0	60-180	60	62	GapExp	0	42	2	0	0	distractor	1	602	699	59084	11.765	11.753	11.776
ProbeTrack12	5	ProbeTrack	11.3	WolfelabHowe	20101019.115604	20101019.120023	8	0.011766	60	10	60-180	60	100	GapExp	0	43	2	3	1	target	1	450	775	59859	11.765	11.742	11.796
ProbeTrack12	5	ProbeTrack	11.3	WolfelabHowe	20101019.115604	20101019.120028	8	0.011766	60	10	60-180	60	163	GapExp	0	44	2	3	0	target	0	579	-1000	58859	11.765	11.754	11.784
ProbeTrack12	5	ProbeTrack	11.3	WolfelabHowe	20101019.115604	20101019.120035	8	0.011766	60	10	60-180	60	108	GapExp	0	45	2	45	1	target	1	473	764	59623	11.765	11.753	11.776
ProbeTrack12	5	ProbeTrack	11.3	WolfelabHowe	20101019.115604	20101019.120041	8	0.011766	60	10	60-180	60	114	GapExp	0	46	2	1	1	target	1	426	787	60410	11.765	11.752	11.777
ProbeTrack12	5	ProbeTrack	11.3	WolfelabHowe	20101019.115604	20101019.120046	8	0.011766	60	10	60-180	60	78	GapExp	0	47	2	3	0	distractor	1	461	770	61180	11.765	11.753	11.776
ProbeTrack12	5	ProbeTrack	11.3	WolfelabHowe	20101019.115604	20101019.120052	8	0.011766	60	0	60-180	60	112	GapExp	0	48	2	1	0	distractor	1	544	728	61908	11.765	11.753	11.777
ProbeTrack12	5	ProbeTrack	11.3	WolfelabHowe	20101019.115604	20101019.120057	8	0.011766	60	0	60-180	60	143	GapExp	0	49	2	3	0	distractor	1	449	776	62684	11.765	11.753	11.780
ProbeTrack12	5	ProbeTrack	11.3	WolfelabHowe	20101019.115604	20101019.120103	8	0.011766	60	0	60-180	60	64	GapExp	0	50	2	45	0	target	0	474	-1000	61684	11.765	11.736	11.802
ProbeTrack12	5	ProbeTrack	11.3	WolfelabHowe	20101019.115604	20101019.120109	8	0.011766	60	0	60-180	60	139	GapExp	0	51	2	1	1	target	1	402	799	62483	11.765	11.754	11.777
ProbeTrack12	5	ProbeTrack	11.3	WolfelabHowe	20101019.115604	20101019.120115	8	0.011766	60	10	60-180	60	138	GapExp	0	52	2	3	0	target	0	614	-1000	61483	11.765	11.736	11.791
ProbeTrack12	5	ProbeTrack	11.3	WolfelabHowe	20101019.115604	20101019.120121	8	0.011766	60	0	60-180	60	96	GapExp	0	53	2	1	0	distractor	1	626	687	62170	11.765	11.755	11.777
ProbeTrack12	5	ProbeTrack	11.3	WolfelabHowe	20101019.115604	20101019.120126	8	0.011766	60	10	60-180	60	66	GapExp	0	54	2	45	0	distractor	1	579	711	62881	11.765	11.753	11.777
ProbeTrack12	5	ProbeTrack	11.3	WolfelabHowe	20101019.115604	20101019.120132	8	0.011766	60	0	60-180	60	178	GapExp	0	55	2	45	1	target	1	356	822	63703	11.765	11.752	11.777
ProbeTrack12	5	ProbeTrack	11.3	WolfelabHowe	20101019.115604	20101019.120139	8	0.011766	60	0	60-180	60	170	GapExp	0	56	2	1	0	distractor	1	496	752	64455	11.765	11.752	11.777
ProbeTrack12	5	ProbeTrack	11.3	WolfelabHowe	20101019.115604	20101019.120145	8	0.011766	60	10	60-180	60	145	GapExp	0	57	2	0	0	distractor	1	603	699	65154	11.765	11.730	11.797
ProbeTrack12	5	ProbeTrack	11.3	WolfelabHowe	20101019.115604	20101019.120152	8	0.011766	60	10	60-180	60	136	GapExp	0	58	2	45	0	distractor	1	555	723	65877	11.765	11.753	11.777
ProbeTrack12	5	ProbeTrack	11.3	WolfelabHowe	20101019.115604	20101019.120158	8	0.011766	60	10	60-180	60	177	GapExp	0	59	2	3	1	target	1	485	758	66635	11.765	11.675	11.850
ProbeTrack12	5	ProbeTrack	11.3	WolfelabHowe	20101019.115604	20101019.120205	8	0.011766	60	10	60-180	60	128	GapExp	0	60	2	3	1	target	1	367	817	67452	11.765	11.752	11.778
ProbeTrack12	5	ProbeTrack	11.3	WolfelabHowe	20101019.115604	20101019.120210	8	0.011766	60	0	60-180	60	122	GapExp	0	61	2	3	1	target	1	355	823	68275	11.765	11.754	11.779
ProbeTrack12	5	ProbeTrack	11.3	WolfelabHowe	20101019.115604	20101019.120216	8	0.011766	60	0	60-180	60	128	GapExp	0	62	2	1	1	target	1	332	834	69109	11.765	11.729	11.795
ProbeTrack12	5	ProbeTrack	11.3	WolfelabHowe	20101019.115604	20101019.120222	8	0.011766	60	0	60-180	60	74	GapExp	0	63	2	3	0	distractor	1	532	734	69843	11.765	11.752	11.778
ProbeTrack12	5	ProbeTrack	11.3	WolfelabHowe	20101019.115604	20101019.120227	8	0.011766	60	0	60-180	60	129	GapExp	0	64	2	3	1	target	1	379	811	70654	11.765	11.754	11.777
ProbeTrack12	5	ProbeTrack	11.3	WolfelabHowe	20101019.115604	20101019.120232	8	0.011766	60	10	60-180	60	144	GapExp	0	65	2	45	0	distractor	1	438	781	71435	11.765	11.718	11.807
ProbeTrack12	5	ProbeTrack	11.3	WolfelabHowe	20101019.115604	20101019.120239	8	0.011766	60	0	60-180	60	122	GapExp	0	66	2	1	1	target	1	461	770	72205	11.765	11.753	11.779
ProbeTrack12	5	ProbeTrack	11.3	WolfelabHowe	20101019.115604	20101019.120244	8	0.011766	60	10	60-180	60	116	GapExp	0	67	2	0	0	distractor	1	391	805	73010	11.765	11.752	11.777
ProbeTrack12	5	ProbeTrack	11.3	WolfelabHowe	20101019.115604	20101019.120250	8	0.011766	60	0	60-180	60	175	GapExp	0	68	2	3	0	distractor	1	496	752	73762	11.765	11.753	11.778
ProbeTrack12	5	ProbeTrack	11.3	WolfelabHowe	20101019.115604	20101019.120256	8	0.011766	60	10	60-180	60	66	GapExp	0	69	2	0	1	target	1	391	805	74567	11.765	11.754	11.777
ProbeTrack12	5	ProbeTrack	11.3	WolfelabHowe	20101019.115604	20101019.120301	8	0.011766	60	0	60-180	60	122	GapExp	0	70	2	3	1	target	1	379	811	75378	11.765	11.751	11.776
ProbeTrack12	5	ProbeTrack	11.3	WolfelabHowe	20101019.115604	20101019.120307	8	0.011766	60	0	60-180	60	70	GapExp	0	71	2	0	1	target	1	496	752	76130	11.765	11.752	11.778
ProbeTrack12	5	ProbeTrack	11.3	WolfelabHowe	20101019.115604	20101019.120312	8	0.011766	60	10	60-180	60	91	GapExp	0	72	2	0	1	target	1	567	717	76847	11.765	11.734	11.794
ProbeTrack12	5	ProbeTrack	11.3	WolfelabHowe	20101019.115604	20101019.120317	8	0.011766	60	0	60-180	60	99	GapExp	0	73	2	1	1	target	1	391	805	77652	11.765	11.752	11.778
ProbeTrack12	5	ProbeTrack	11.3	WolfelabHowe	20101019.115604	20101019.120323	8	0.011766	60	10	60-180	60	123	GapExp	0	74	2	0	0	distractor	1	532	734	78386	11.765	11.753	11.781
ProbeTrack12	5	ProbeTrack	11.3	WolfelabHowe	20101019.115604	20101019.120329	8	0.011766	60	0	60-180	60	69	GapExp	0	75	2	1	0	distractor	1	508	746	79132	11.765	11.753	11.776
ProbeTrack12	5	ProbeTrack	11.3	WolfelabHowe	20101019.115604	20101019.120334	8	0.011766	60	0	60-180	60	65	GapExp	0	76	2	3	1	target	1	496	752	79884	11.765	11.752	11.777
ProbeTrack12	5	ProbeTrack	11.3	WolfelabHowe	20101019.115604	20101019.120339	8	0.011766	60	10	60-180	60	149	GapExp	0	77	2	3	1	target	1	368	816	80700	11.765	11.753	11.779
ProbeTrack12	5	ProbeTrack	11.3	WolfelabHowe	20101019.115604	20101019.120345	8	0.011766	60	10	60-180	60	139	GapExp	0	78	2	1	0	distractor	1	555	723	81423	11.765	11.751	11.779
ProbeTrack12	5	ProbeTrack	11.3	WolfelabHowe	20101019.115604	20101019.120351	8	0.011766	60	0	60-180	60	71	GapExp	0	79	2	3	1	target	1	461	770	82193	11.765	11.751	11.776
ProbeTrack12	5	ProbeTrack	11.3	WolfelabHowe	20101019.115604	20101019.120356	8	0.011766	60	10	60-180	60	109	GapExp	0	80	2	0	0	distractor	1	555	723	82916	11.765	11.751	11.785
ProbeTrack12	5	ProbeTrack	11.3	WolfelabHowe	20101019.115604	20101019.120401	8	0.011766	60	0	60-180	60	119	GapExp	0	81	2	0	1	target	1	379	811	83727	11.765	11.725	11.808
ProbeTrack12	5	ProbeTrack	11.3	WolfelabHowe	20101019.115604	20101019.120407	8	0.011766	60	0	60-180	60	141	GapExp	0	82	2	0	0	distractor	1	485	758	84485	11.765	11.752	11.777
ProbeTrack12	5	ProbeTrack	11.3	WolfelabHowe	20101019.115604	20101019.120413	8	0.011766	60	0	60-180	60	69	GapExp	0	83	2	45	1	target	1	367	817	85302	11.765	11.752	11.777
ProbeTrack12	5	ProbeTrack	11.3	WolfelabHowe	20101019.115604	20101019.120418	8	0.011766	60	10	60-180	60	82	GapExp	0	84	2	0	1	target	1	473	764	86066	11.765	11.753	11.777
ProbeTrack12	5	ProbeTrack	11.3	WolfelabHowe	20101019.115604	20101019.120423	8	0.011766	60	10	60-180	60	162	GapExp	0	85	2	1	1	target	1	438	781	86847	11.765	11.754	11.777
ProbeTrack12	5	ProbeTrack	11.3	WolfelabHowe	20101019.115604	20101019.120429	8	0.011766	60	0	60-180	60	176	GapExp	0	86	2	1	1	target	1	391	805	87652	11.765	11.753	11.779
ProbeTrack12	5	ProbeTrack	11.3	WolfelabHowe	20101019.115604	20101019.120435	8	0.011766	60	10	60-180	60	91	GapExp	0	87	2	3	0	distractor	1	555	723	88375	11.765	11.754	11.777
ProbeTrack12	5	ProbeTrack	11.3	WolfelabHowe	20101019.115604	20101019.120441	8	0.011766	60	10	60-180	60	84	GapExp	0	88	2	1	1	target	1	485	758	89133	11.765	11.749	11.776
ProbeTrack12	5	ProbeTrack	11.3	WolfelabHowe	20101019.115604	20101019.120446	8	0.011766	60	0	60-180	60	169	GapExp	0	89	2	45	1	target	1	379	811	89944	11.765	11.713	11.812
ProbeTrack12	5	ProbeTrack	11.3	WolfelabHowe	20101019.115604	20101019.120453	8	0.011766	60	0	60-180	60	117	GapExp	0	90	2	1	0	distractor	1	461	770	90714	11.765	11.752	11.777
ProbeTrack12	5	ProbeTrack	11.3	WolfelabHowe	20101019.115604	20101019.120459	8	0.011766	60	0	60-180	60	158	GapExp	0	91	2	1	1	target	1	344	828	91542	11.765	11.751	11.779
ProbeTrack12	5	ProbeTrack	11.3	WolfelabHowe	20101019.115604	20101019.120504	8	0.011766	60	0	60-180	60	132	GapExp	0	92	2	0	0	distractor	1	461	770	92312	11.765	11.607	11.927
ProbeTrack12	5	ProbeTrack	11.3	WolfelabHowe	20101019.115604	20101019.120510	8	0.011766	60	10	60-180	60	140	GapExp	0	93	2	3	0	distractor	1	367	817	93129	11.765	11.754	11.776
ProbeTrack12	5	ProbeTrack	11.3	WolfelabHowe	20101019.115604	20101019.120516	8	0.011766	60	10	60-180	60	104	GapExp	0	94	2	3	1	target	1	320	840	93969	11.765	11.752	11.779
ProbeTrack12	5	ProbeTrack	11.3	WolfelabHowe	20101019.115604	20101019.120521	8	0.011766	60	0	60-180	60	148	GapExp	0	95	2	1	1	target	1	391	805	94774	11.765	11.754	11.778
ProbeTrack12	5	ProbeTrack	11.3	WolfelabHowe	20101019.115604	20101019.120527	8	0.011766	60	10	60-180	60	119	GapExp	0	96	2	0	1	target	1	379	811	95585	11.765	11.754	11.777
ProbeTrack12	5	ProbeTrack	11.3	WolfelabHowe	20101019.115604	20101019.120533	8	0.011766	60	10	60-180	60	82	GapExp	0	97	2	45	0	distractor	1	450	775	96360	11.765	11.755	11.779
ProbeTrack12	5	ProbeTrack	11.3	WolfelabHowe	20101019.115604	20101019.120539	8	0.011766	60	10	60-180	60	143	GapExp	0	98	2	45	1	target	1	320	840	97200	11.765	11.715	11.811
ProbeTrack12	5	ProbeTrack	11.3	WolfelabHowe	20101019.115604	20101019.120545	8	0.011766	60	10	60-180	60	98	GapExp	0	99	2	45	1	target	1	415	793	97993	11.765	11.746	11.787
ProbeTrack12	5	ProbeTrack	11.3	WolfelabHowe	20101019.115604	20101019.120551	8	0.011766	60	10	60-180	60	108	GapExp	0	100	2	45	1	target	1	297	852	98845	11.765	11.753	11.778
ProbeTrack12	5	ProbeTrack	11.3	WolfelabHowe	20101019.115604	20101019.120557	8	0.011766	60	10	60-180	60	88	GapExp	0	101	2	3	1	target	1	344	828	99673	11.765	11.753	11.778
ProbeTrack12	5	ProbeTrack	11.3	WolfelabHowe	20101019.115604	20101019.120603	8	0.011766	60	10	60-180	60	137	GapExp	0	102	2	45	1	target	1	308	846	100519	11.765	11.754	11.777
ProbeTrack12	5	ProbeTrack	11.3	WolfelabHowe	20101019.115604	20101019.120610	8	0.011766	60	0	60-180	60	150	GapExp	0	103	2	45	1	target	1	344	828	101347	11.765	11.754	11.778
ProbeTrack12	5	ProbeTrack	11.3	WolfelabHowe	20101019.115604	20101019.120616	8	0.011766	60	10	60-180	60	155	GapExp	0	104	2	0	0	distractor	1	532	734	102081	11.765	11.716	11.817
ProbeTrack12	5	ProbeTrack	11.3	WolfelabHowe	20101019.115604	20101019.120622	8	0.011766	60	0	60-180	60	92	GapExp	0	105	2	45	0	distractor	1	426	787	102868	11.765	11.754	11.777
ProbeTrack12	5	ProbeTrack	11.3	WolfelabHowe	20101019.115604	20101019.120628	8	0.011766	60	0	60-180	60	111	GapExp	0	106	2	1	1	target	1	343	829	103697	11.765	11.754	11.777
ProbeTrack12	5	ProbeTrack	11.3	WolfelabHowe	20101019.115604	20101019.120634	8	0.011766	60	10	60-180	60	111	GapExp	0	107	2	3	1	target	1	391	805	104502	11.765	11.755	11.779
ProbeTrack12	5	ProbeTrack	11.3	WolfelabHowe	20101019.115604	20101019.120640	8	0.011766	60	10	60-180	60	95	GapExp	0	108	2	1	1	target	1	379	811	105313	11.765	11.753	11.777
ProbeTrack12	5	ProbeTrack	11.3	WolfelabHowe	20101019.115604	20101019.120645	8	0.011766	60	10	60-180	60	172	GapExp	0	109	2	1	0	distractor	1	449	776	106089	11.765	11.752	11.777
ProbeTrack12	5	ProbeTrack	11.3	WolfelabHowe	20101019.115604	20101019.120651	8	0.011766	60	0	60-180	60	95	GapExp	0	110	2	45	1	target	1	426	787	106876	11.765	11.753	11.778
ProbeTrack12	5	ProbeTrack	11.3	WolfelabHowe	20101019.115604	20101019.120657	8	0.011766	60	10	60-180	60	100	GapExp	0	111	2	0	1	target	1	661	670	107546	11.765	11.742	11.792
ProbeTrack12	5	ProbeTrack	11.3	WolfelabHowe	20101019.115604	20101019.120703	8	0.011766	60	0	60-180	60	85	GapExp	0	112	2	3	1	target	1	391	805	108351	11.765	11.752	11.777
ProbeTrack12	5	ProbeTrack	11.3	WolfelabHowe	20101019.115604	20101019.120708	8	0.011766	60	0	60-180	60	173	GapExp	0	113	2	45	0	distractor	1	508	746	109097	11.765	11.727	11.797
ProbeTrack12	5	ProbeTrack	11.3	WolfelabHowe	20101019.115604	20101019.120715	8	0.011766	60	10	60-180	60	88	GapExp	0	114	2	45	0	distractor	1	438	781	109878	11.765	11.748	11.784
ProbeTrack12	5	ProbeTrack	11.3	WolfelabHowe	20101019.115604	20101019.120720	8	0.011766	60	10	60-180	60	71	GapExp	0	115	2	45	1	target	1	286	857	110735	11.765	11.743	11.781
ProbeTrack12	5	ProbeTrack	11.3	WolfelabHowe	20101019.115604	20101019.120726	8	0.011766	60	10	60-180	60	75	GapExp	0	116	2	0	1	target	1	332	834	111569	11.765	11.754	11.778
ProbeTrack12	5	ProbeTrack	11.3	WolfelabHowe	20101019.115604	20101019.120731	8	0.011766	60	10	60-180	60	135	GapExp	0	117	2	1	0	distractor	1	520	740	112309	11.765	11.746	11.780
ProbeTrack12	5	ProbeTrack	11.3	WolfelabHowe	20101019.115604	20101019.120737	8	0.011766	60	10	60-180	60	87	GapExp	0	118	2	1	0	distractor	1	462	769	113078	11.765	11.724	11.803
ProbeTrack12	5	ProbeTrack	11.3	WolfelabHowe	20101019.115604	20101019.120742	8	0.011766	60	10	60-180	60	132	GapExp	0	119	2	45	1	target	1	485	758	113836	11.765	11.754	11.777
ProbeTrack12	5	ProbeTrack	11.3	WolfelabHowe	20101019.115604	20101019.120749	8	0.011766	60	0	60-180	60	174	GapExp	0	120	2	0	0	distractor	1	520	740	114576	11.765	11.754	11.777
ProbeTrack12	5	ProbeTrack	11.3	WolfelabHowe	20101019.115604	20101019.120755	8	0.011766	60	0	60-180	60	64	GapExp	0	121	2	45	0	distractor	1	532	734	115310	11.765	11.747	11.785
ProbeTrack12	5	ProbeTrack	11.3	WolfelabHowe	20101019.115604	20101019.120801	8	0.011766	60	0	60-180	60	151	GapExp	0	122	2	0	1	target	1	344	828	116138	11.765	11.752	11.777
ProbeTrack12	5	ProbeTrack	11.3	WolfelabHowe	20101019.115604	20101019.120806	8	0.011766	60	10	60-180	60	133	GapExp	0	123	2	3	0	distractor	1	415	793	116931	11.765	11.753	11.777
ProbeTrack12	5	ProbeTrack	11.3	WolfelabHowe	20101019.115604	20101019.120812	8	0.011766	60	0	60-180	60	90	GapExp	0	124	2	1	0	distractor	1	556	722	117653	11.765	11.755	11.776
ProbeTrack12	5	ProbeTrack	11.3	WolfelabHowe	20101019.115604	20101019.120818	8	0.011766	60	0	60-180	60	161	GapExp	0	125	2	0	1	target	1	402	799	118452	11.765	11.720	11.811
ProbeTrack12	5	ProbeTrack	11.3	WolfelabHowe	20101019.115604	20101019.120823	8	0.011766	60	0	60-180	60	72	GapExp	0	126	2	45	1	target	1	321	840	119292	11.765	11.753	11.777
ProbeTrack12	5	ProbeTrack	11.3	WolfelabHowe	20101019.115604	20101019.120829	8	0.011766	60	10	60-180	60	62	GapExp	0	127	2	1	1	target	1	450	775	120067	11.765	11.755	11.776
ProbeTrack12	5	ProbeTrack	11.3	WolfelabHowe	20101019.115604	20101019.120834	8	0.011766	60	10	60-180	60	119	GapExp	0	128	2	0	0	distractor	1	508	746	120813	11.765	11.753	11.778
ProbeTrack12	5	ProbeTrack	11.3	WolfelabHowe	20101019.115604	20101019.120839	8	0.011766	60	10	60-180	60	151	GapExp	0	129	2	1	0	distractor	1	426	787	121600	11.765	11.753	11.778
ProbeTrack12	5	ProbeTrack	11.3	WolfelabHowe	20101019.115604	20101019.120845	8	0.011766	60	0	60-180	60	174	GapExp	0	130	2	0	0	distractor	1	449	776	122376	11.765	11.753	11.778
ProbeTrack12	5	ProbeTrack	11.3	WolfelabHowe	20101019.115604	20101019.120852	8	0.011766	60	10	60-180	60	172	GapExp	0	131	2	45	0	distractor	1	461	770	123146	11.765	11.752	11.778
ProbeTrack12	5	ProbeTrack	11.3	WolfelabHowe	20101019.115604	20101019.120859	8	0.011766	60	10	60-180	60	94	GapExp	0	132	2	3	0	target	0	638	-1000	122146	11.765	11.753	11.778
ProbeTrack12	5	ProbeTrack	11.3	WolfelabHowe	20101019.115604	20101019.120905	8	0.011766	60	0	60-180	60	166	GapExp	0	133	2	3	1	target	1	402	799	122945	11.765	11.751	11.781
ProbeTrack12	5	ProbeTrack	11.3	WolfelabHowe	20101019.115604	20101019.120911	8	0.011766	60	0	60-180	60	115	GapExp	0	134	2	0	1	target	1	379	811	123756	11.765	11.752	11.778
ProbeTrack12	5	ProbeTrack	11.3	WolfelabHowe	20101019.115604	20101019.120916	8	0.011766	60	10	60-180	60	130	GapExp	0	135	2	1	1	target	1	367	817	124573	11.765	11.752	11.779
ProbeTrack12	5	ProbeTrack	11.3	WolfelabHowe	20101019.115604	20101019.120922	8	0.011766	60	0	60-180	60	86	GapExp	0	136	2	0	0	distractor	1	508	746	125319	11.765	11.754	11.777
ProbeTrack12	5	ProbeTrack	11.3	WolfelabHowe	20101019.115604	20101019.120927	8	0.011766	60	10	60-180	60	172	GapExp	0	137	2	3	0	distractor	1	367	817	126136	11.765	11.752	11.777
ProbeTrack12	5	ProbeTrack	11.3	WolfelabHowe	20101019.115604	20101019.120933	8	0.011766	60	0	60-180	60	172	GapExp	0	138	2	45	0	distractor	1	649	676	126812	11.765	11.752	11.777
ProbeTrack12	5	ProbeTrack	11.3	WolfelabHowe	20101019.115604	20101019.120940	8	0.011766	60	0	60-180	60	132	GapExp	0	139	2	45	1	target	1	343	829	127641	11.765	11.755	11.777
ProbeTrack12	5	ProbeTrack	11.3	WolfelabHowe	20101019.115604	20101019.120946	8	0.011766	60	10	60-180	60	120	GapExp	0	140	2	3	0	distractor	1	391	805	128446	11.765	11.752	11.776
ProbeTrack12	5	ProbeTrack	11.3	WolfelabHowe	20101019.115604	20101019.120952	8	0.011766	60	0	60-180	60	115	GapExp	0	141	2	45	0	distractor	1	403	799	129245	11.765	11.754	11.777
ProbeTrack12	5	ProbeTrack	11.3	WolfelabHowe	20101019.115604	20101019.120958	8	0.011766	60	0	60-180	60	115	GapExp	0	142	2	3	0	distractor	1	520	740	129985	11.765	11.752	11.777
ProbeTrack12	5	ProbeTrack	11.3	WolfelabHowe	20101019.115604	20101019.121003	8	0.011766	60	0	60-180	60	93	GapExp	0	143	2	0	1	target	1	426	787	130772	11.765	11.753	11.777
ProbeTrack12	5	ProbeTrack	11.3	WolfelabHowe	20101019.115604	20101019.121009	8	0.011766	60	0	60-180	60	92	GapExp	0	144	2	3	1	target	1	367	817	131589	11.765	11.753	11.777
ProbeTrack12	5	ProbeTrack	11.3	WolfelabHowe	20101019.115604	20101019.121014	8	0.011766	60	0	60-180	60	100	GapExp	0	145	2	0	0	distractor	1	473	764	132353	11.765	11.753	11.777
ProbeTrack12	5	ProbeTrack	11.3	WolfelabHowe	20101019.115604	20101019.121019	8	0.011766	60	10	60-180	60	65	GapExp	0	146	2	1	1	target	1	426	787	133140	11.765	11.747	11.776
ProbeTrack12	5	ProbeTrack	11.3	WolfelabHowe	20101019.115604	20101019.121029	8	0.011766	60	10	60-180	60	66	GapExp	0	147	2	3	0	distractor	1	591	705	133845	11.765	11.753	11.778
ProbeTrack12	5	ProbeTrack	11.3	WolfelabHowe	20101019.115604	20101019.121034	8	0.011766	60	0	60-180	60	91	GapExp	0	148	2	45	0	distractor	1	438	781	134626	11.765	11.716	11.813
ProbeTrack12	5	ProbeTrack	11.3	WolfelabHowe	20101019.115604	20101019.121040	8	0.011766	60	10	60-180	60	115	GapExp	0	149	2	45	1	target	1	344	828	135454	11.765	11.733	11.791
ProbeTrack12	5	ProbeTrack	11.3	WolfelabHowe	20101019.115604	20101019.121046	8	0.011766	60	10	60-180	60	152	GapExp	0	150	2	3	1	target	1	379	811	136265	11.765	11.754	11.775
ProbeTrack12	5	ProbeTrack	11.3	WolfelabHowe	20101019.115604	20101019.121052	8	0.011766	60	0	60-180	60	127	GapExp	0	151	2	3	1	target	1	391	805	137070	11.765	11.739	11.790
ProbeTrack12	5	ProbeTrack	11.3	WolfelabHowe	20101019.115604	20101019.121058	8	0.011766	60	10	60-180	60	102	GapExp	0	152	2	0	1	target	1	461	770	137840	11.765	11.726	11.801
ProbeTrack12	5	ProbeTrack	11.3	WolfelabHowe	20101019.115604	20101019.121103	8	0.011766	60	10	60-180	60	67	GapExp	0	153	2	0	0	target	0	437	-1000	136840	11.765	11.754	11.775
ProbeTrack12	5	ProbeTrack	11.3	WolfelabHowe	20101019.115604	20101019.121108	8	0.011766	60	0	60-180	60	79	GapExp	0	154	2	3	1	target	1	343	829	137669	11.765	11.753	11.779
ProbeTrack12	5	ProbeTrack	11.3	WolfelabHowe	20101019.115604	20101019.121113	8	0.011766	60	10	60-180	60	164	GapExp	0	155	2	0	1	target	1	473	764	138433	11.765	11.746	11.781
ProbeTrack12	5	ProbeTrack	11.3	WolfelabHowe	20101019.115604	20101019.121119	8	0.011766	60	0	60-180	60	150	GapExp	0	156	2	1	1	target	1	450	775	139208	11.765	11.741	11.794
ProbeTrack12	5	ProbeTrack	11.3	WolfelabHowe	20101019.115604	20101019.121125	8	0.011766	60	10	60-180	60	113	GapExp	0	157	2	0	1	target	1	520	740	139948	11.765	11.753	11.777
ProbeTrack12	5	ProbeTrack	11.3	WolfelabHowe	20101019.115604	20101019.121130	8	0.011766	60	0	60-180	60	120	GapExp	0	158	2	1	0	distractor	1	414	793	140741	11.765	11.753	11.777
ProbeTrack12	5	ProbeTrack	11.3	WolfelabHowe	20101019.115604	20101019.121136	8	0.011766	60	10	60-180	60	125	GapExp	0	159	2	45	1	target	1	497	752	141493	11.765	11.753	11.777
ProbeTrack12	5	ProbeTrack	11.3	WolfelabHowe	20101019.115604	20101019.121142	8	0.011766	60	0	60-180	60	86	GapExp	0	160	2	3	0	distractor	1	520	740	142233	11.765	11.720	11.810
ProbeTrack12	5	ProbeTrack	11.3	WolfelabHowe	20101019.115604	20101019.121148	8	0.011766	60	0	60-180	60	174	GapExp	0	161	2	45	0	distractor	1	414	793	143026	11.765	11.751	11.777
ProbeTrack12	5	ProbeTrack	11.3	WolfelabHowe	20101019.115604	20101019.121159	8	0.011766	60	10	60-180	60	67	GapExp	0	162	2	0	0	target	0	708	-1000	142026	11.765	11.753	11.776
ProbeTrack12	5	ProbeTrack	11.3	WolfelabHowe	20101019.115604	20101019.121204	8	0.011766	60	10	60-180	60	120	GapExp	0	163	2	0	1	target	1	414	793	142819	11.765	11.754	11.776
ProbeTrack12	5	ProbeTrack	11.3	WolfelabHowe	20101019.115604	20101019.121210	8	0.011766	60	0	60-180	60	97	GapExp	0	164	2	1	0	distractor	1	484	758	143577	11.765	11.723	11.813
ProbeTrack12	5	ProbeTrack	11.3	WolfelabHowe	20101019.115604	20101019.121215	8	0.011766	60	0	60-180	60	174	GapExp	0	165	2	0	0	distractor	1	449	776	144353	11.765	11.751	11.777
ProbeTrack12	5	ProbeTrack	11.3	WolfelabHowe	20101019.115604	20101019.121222	8	0.011766	60	10	60-180	60	176	GapExp	0	166	2	45	0	distractor	1	414	793	145146	11.765	11.754	11.779
ProbeTrack12	5	ProbeTrack	11.3	WolfelabHowe	20101019.115604	20101019.121229	8	0.011766	60	10	60-180	60	120	GapExp	0	167	2	0	1	target	1	344	828	145974	11.765	11.753	11.777
ProbeTrack12	5	ProbeTrack	11.3	WolfelabHowe	20101019.115604	20101019.121236	8	0.011766	60	10	60-180	60	70	GapExp	0	168	2	45	1	distractor	0	379	-1000	144974	11.765	11.752	11.777
ProbeTrack12	5	ProbeTrack	11.3	WolfelabHowe	20101019.115604	20101019.121241	8	0.011766	60	10	60-180	60	147	GapExp	0	169	2	1	1	target	1	391	805	145779	11.765	11.753	11.777
ProbeTrack12	5	ProbeTrack	11.3	WolfelabHowe	20101019.115604	20101019.121247	8	0.011766	60	0	60-180	60	145	GapExp	0	170	2	3	1	target	1	344	828	146607	11.765	11.752	11.777
ProbeTrack12	5	ProbeTrack	11.3	WolfelabHowe	20101019.115604	20101019.121253	8	0.011766	60	0	60-180	60	174	GapExp	0	171	2	1	0	distractor	1	450	775	147382	11.765	11.754	11.778
ProbeTrack12	5	ProbeTrack	11.3	WolfelabHowe	20101019.115604	20101019.121259	8	0.011766	60	0	60-180	60	128	GapExp	0	172	2	3	0	distractor	1	449	776	148158	11.765	11.754	11.777
ProbeTrack12	5	ProbeTrack	11.3	WolfelabHowe	20101019.115604	20101019.121304	8	0.011766	60	0	60-180	60	80	GapExp	0	173	2	45	1	target	1	450	775	148933	11.765	11.703	11.826
ProbeTrack12	5	ProbeTrack	11.3	WolfelabHowe	20101019.115604	20101019.121310	8	0.011766	60	10	60-180	60	163	GapExp	0	174	2	3	0	distractor	1	403	799	149732	11.765	11.708	11.823
ProbeTrack12	5	ProbeTrack	11.3	WolfelabHowe	20101019.115604	20101019.121316	8	0.011766	60	10	60-180	60	110	GapExp	0	175	2	3	1	target	1	320	840	150572	11.765	11.753	11.776
ProbeTrack12	5	ProbeTrack	11.3	WolfelabHowe	20101019.115604	20101019.121322	8	0.011766	60	10	60-180	60	140	GapExp	0	176	2	0	1	target	1	367	817	151389	11.765	11.754	11.778
ProbeTrack12	5	ProbeTrack	11.3	WolfelabHowe	20101019.115604	20101019.121328	8	0.011766	60	0	60-180	60	79	GapExp	0	177	2	45	0	distractor	1	520	740	152129	11.765	11.716	11.814
ProbeTrack12	5	ProbeTrack	11.3	WolfelabHowe	20101019.115604	20101019.121333	8	0.011766	60	0	60-180	60	110	GapExp	0	178	2	45	1	target	1	426	787	152916	11.765	11.727	11.806
ProbeTrack12	5	ProbeTrack	11.3	WolfelabHowe	20101019.115604	20101019.121339	8	0.011766	60	10	60-180	60	85	GapExp	0	179	2	0	0	distractor	1	415	793	153709	11.765	11.750	11.776
ProbeTrack12	5	ProbeTrack	11.3	WolfelabHowe	20101019.115604	20101019.121344	8	0.011766	60	0	60-180	60	160	GapExp	0	180	2	0	1	target	1	343	829	154538	11.765	11.752	11.777
ProbeTrack12	5	ProbeTrack	11.3	WolfelabHowe	20101019.115604	20101019.121350	8	0.011766	60	0	60-180	60	69	GapExp	0	181	2	3	1	target	1	402	799	155337	11.765	11.729	11.805
ProbeTrack12	5	ProbeTrack	11.3	WolfelabHowe	20101019.115604	20101019.121355	8	0.011766	60	10	60-180	60	78	GapExp	0	182	2	1	0	distractor	1	402	799	156136	11.765	11.754	11.777
ProbeTrack12	5	ProbeTrack	11.3	WolfelabHowe	20101019.115604	20101019.121400	8	0.011766	60	10	60-180	60	152	GapExp	0	183	2	45	0	distractor	1	415	793	156929	11.765	11.753	11.777
ProbeTrack12	5	ProbeTrack	11.3	WolfelabHowe	20101019.115604	20101019.121407	8	0.011766	60	0	60-180	60	72	GapExp	0	184	2	3	0	distractor	1	520	740	157669	11.765	11.754	11.778
ProbeTrack12	5	ProbeTrack	11.3	WolfelabHowe	20101019.115604	20101019.121412	8	0.011766	60	0	60-180	60	112	GapExp	0	185	2	3	0	distractor	1	485	758	158427	11.765	11.753	11.777
ProbeTrack12	5	ProbeTrack	11.3	WolfelabHowe	20101019.115604	20101019.121417	8	0.011766	60	10	60-180	60	173	GapExp	0	186	2	3	0	distractor	1	391	805	159232	11.765	11.754	11.777
ProbeTrack12	5	ProbeTrack	11.3	WolfelabHowe	20101019.115604	20101019.121424	8	0.011766	60	0	60-180	60	115	GapExp	0	187	2	1	1	target	1	485	758	159990	11.765	11.753	11.778
ProbeTrack12	5	ProbeTrack	11.3	WolfelabHowe	20101019.115604	20101019.121429	8	0.011766	60	10	60-180	60	130	GapExp	0	188	2	0	0	distractor	1	520	740	160730	11.765	11.727	11.805
ProbeTrack12	5	ProbeTrack	11.3	WolfelabHowe	20101019.115604	20101019.121435	8	0.011766	60	0	60-180	60	120	GapExp	0	189	2	45	0	distractor	1	544	728	161458	11.765	11.752	11.779
ProbeTrack12	5	ProbeTrack	11.3	WolfelabHowe	20101019.115604	20101019.121441	8	0.011766	60	10	60-180	60	139	GapExp	0	190	2	45	1	target	1	450	775	162233	11.765	11.731	11.797
ProbeTrack12	5	ProbeTrack	11.3	WolfelabHowe	20101019.115604	20101019.121447	8	0.011766	60	0	60-180	60	93	GapExp	0	191	2	3	0	distractor	1	567	717	162950	11.765	11.735	11.796
ProbeTrack12	5	ProbeTrack	11.3	WolfelabHowe	20101019.115604	20101019.121453	8	0.011766	60	10	60-180	60	63	GapExp	0	192	2	0	1	target	1	320	840	163790	11.765	11.752	11.777
ProbeTrack12	5	ProbeTrack	11.3	WolfelabHowe	20101019.115604	20101019.121458	8	0.011766	60	0	60-180	60	111	GapExp	0	193	2	45	1	target	1	543	729	164519	11.765	11.749	11.778
ProbeTrack12	5	ProbeTrack	11.3	WolfelabHowe	20101019.115604	20101019.121504	8	0.011766	60	10	60-180	60	87	GapExp	0	194	2	45	0	distractor	1	391	805	165324	11.765	11.754	11.777
ProbeTrack12	5	ProbeTrack	11.3	WolfelabHowe	20101019.115604	20101019.121509	8	0.011766	60	10	60-180	60	154	GapExp	0	195	2	0	0	distractor	1	473	764	166088	11.765	11.752	11.777
ProbeTrack12	5	ProbeTrack	11.3	WolfelabHowe	20101019.115604	20101019.121516	8	0.011766	60	10	60-180	60	158	GapExp	0	196	2	3	1	target	1	344	828	166916	11.765	11.752	11.778
ProbeTrack12	5	ProbeTrack	11.3	WolfelabHowe	20101019.115604	20101019.121522	8	0.011766	60	0	60-180	60	71	GapExp	0	197	2	3	1	target	1	426	787	167703	11.765	11.754	11.776
ProbeTrack12	5	ProbeTrack	11.3	WolfelabHowe	20101019.115604	20101019.121526	8	0.011766	60	10	60-180	60	145	GapExp	0	198	2	3	1	target	1	392	804	168507	11.765	11.752	11.778
ProbeTrack12	5	ProbeTrack	11.3	WolfelabHowe	20101019.115604	20101019.121533	8	0.011766	60	0	60-180	60	133	GapExp	0	199	2	1	0	distractor	1	449	776	169283	11.765	11.754	11.777
ProbeTrack12	5	ProbeTrack	11.3	WolfelabHowe	20101019.115604	20101019.121538	8	0.011766	60	10	60-180	60	68	GapExp	0	200	2	1	1	target	1	438	781	170064	11.765	11.754	11.776
ProbeTrack12	5	ProbeTrack	11.3	WolfelabHowe	20101019.115604	20101019.121543	8	0.011766	60	0	60-180	60	132	GapExp	0	201	2	0	1	target	1	414	793	170857	11.765	11.752	11.779
ProbeTrack12	5	ProbeTrack	11.3	WolfelabHowe	20101019.115604	20101019.121549	8	0.011766	60	0	60-180	60	131	GapExp	0	202	2	0	1	target	1	367	817	171674	11.765	11.754	11.777
ProbeTrack12	5	ProbeTrack	11.3	WolfelabHowe	20101019.115604	20101019.121555	8	0.011766	60	0	60-180	60	169	GapExp	0	203	2	0	0	distractor	1	567	717	172391	11.765	11.751	11.777
ProbeTrack12	5	ProbeTrack	11.3	WolfelabHowe	20101019.115604	20101019.121601	8	0.011766	60	0	60-180	60	125	GapExp	0	204	2	3	0	distractor	1	485	758	173149	11.765	11.730	11.799
ProbeTrack12	5	ProbeTrack	11.3	WolfelabHowe	20101019.115604	20101019.121607	8	0.011766	60	0	60-180	60	105	GapExp	0	205	2	3	1	target	1	402	799	173948	11.765	11.753	11.778
ProbeTrack12	5	ProbeTrack	11.3	WolfelabHowe	20101019.115604	20101019.121612	8	0.011766	60	10	60-180	60	118	GapExp	0	206	2	1	0	distractor	1	415	793	174741	11.765	11.751	11.786
ProbeTrack12	5	ProbeTrack	11.3	WolfelabHowe	20101019.115604	20101019.121618	8	0.011766	60	10	60-180	60	69	GapExp	0	207	2	1	0	distractor	1	544	728	175469	11.765	11.755	11.775
ProbeTrack12	5	ProbeTrack	11.3	WolfelabHowe	20101019.115604	20101019.121623	8	0.011766	60	10	60-180	60	68	GapExp	0	208	2	45	0	distractor	1	414	793	176262	11.765	11.754	11.779
ProbeTrack12	5	ProbeTrack	11.3	WolfelabHowe	20101019.115604	20101019.121628	8	0.011766	60	10	60-180	60	136	GapExp	0	209	2	1	1	target	1	321	840	177102	11.765	11.754	11.778
ProbeTrack12	5	ProbeTrack	11.3	WolfelabHowe	20101019.115604	20101019.121634	8	0.011766	60	0	60-180	60	176	GapExp	0	210	2	45	1	target	1	391	805	177907	11.765	11.755	11.778
ProbeTrack12	5	ProbeTrack	11.3	WolfelabHowe	20101019.115604	20101019.121641	8	0.011766	60	0	60-180	60	162	GapExp	0	211	2	1	1	target	1	344	828	178735	11.765	11.753	11.778
ProbeTrack12	5	ProbeTrack	11.3	WolfelabHowe	20101019.115604	20101019.121647	8	0.011766	60	0	60-180	60	91	GapExp	0	212	2	0	0	distractor	1	473	764	179499	11.765	11.706	11.830
ProbeTrack12	5	ProbeTrack	11.3	WolfelabHowe	20101019.115604	20101019.121652	8	0.011766	60	0	60-180	60	86	GapExp	0	213	2	45	0	distractor	1	449	776	180275	11.765	11.753	11.777
ProbeTrack12	5	ProbeTrack	11.3	WolfelabHowe	20101019.115604	20101019.121658	8	0.011766	60	0	60-180	60	149	GapExp	0	214	2	0	0	distractor	1	461	770	181045	11.765	11.737	11.799
ProbeTrack12	5	ProbeTrack	11.3	WolfelabHowe	20101019.115604	20101019.121703	8	0.011766	60	10	60-180	60	77	GapExp	0	215	2	3	1	target	1	391	805	181850	11.765	11.736	11.784
ProbeTrack12	5	ProbeTrack	11.3	WolfelabHowe	20101019.115604	20101019.121713	8	0.011766	60	10	60-180	60	108	GapExp	0	216	2	3	0	distractor	1	508	746	182596	11.765	11.750	11.777
ProbeTrack12	5	ProbeTrack	11.3	WolfelabHowe	20101019.115604	20101019.121718	8	0.011766	60	0	60-180	60	106	GapExp	0	217	2	45	1	target	1	273	864	183460	11.765	11.752	11.778
ProbeTrack12	5	ProbeTrack	11.3	WolfelabHowe	20101019.115604	20101019.121724	8	0.011766	60	0	60-180	60	144	GapExp	0	218	2	45	0	distractor	1	449	776	184236	11.765	11.754	11.778
ProbeTrack12	5	ProbeTrack	11.3	WolfelabHowe	20101019.115604	20101019.121731	8	0.011766	60	10	60-180	60	94	GapExp	0	219	2	0	0	target	0	543	-1000	183236	11.765	11.753	11.777
ProbeTrack12	5	ProbeTrack	11.3	WolfelabHowe	20101019.115604	20101019.121736	8	0.011766	60	0	60-180	60	133	GapExp	0	220	2	0	1	target	1	379	811	184047	11.765	11.754	11.777
ProbeTrack12	5	ProbeTrack	11.3	WolfelabHowe	20101019.115604	20101019.121741	8	0.011766	60	10	60-180	60	112	GapExp	0	221	2	1	0	distractor	1	414	793	184840	11.765	11.754	11.777
ProbeTrack12	5	ProbeTrack	11.3	WolfelabHowe	20101019.115604	20101019.121747	8	0.011766	60	10	60-180	60	85	GapExp	0	222	2	45	0	distractor	1	426	787	185627	11.765	11.754	11.779
ProbeTrack12	5	ProbeTrack	11.3	WolfelabHowe	20101019.115604	20101019.121752	8	0.011766	60	10	60-180	60	76	GapExp	0	223	2	3	0	distractor	1	509	746	186373	11.765	11.747	11.789
ProbeTrack12	5	ProbeTrack	11.3	WolfelabHowe	20101019.115604	20101019.121758	8	0.011766	60	10	60-180	60	71	GapExp	0	224	2	45	0	distractor	1	438	781	187154	11.765	11.751	11.777
ProbeTrack12	5	ProbeTrack	11.3	WolfelabHowe	20101019.115604	20101019.121803	8	0.011766	60	0	60-180	60	101	GapExp	0	225	2	0	1	target	1	390	805	187959	11.765	11.753	11.777
ProbeTrack12	5	ProbeTrack	11.3	WolfelabHowe	20101019.115604	20101019.121808	8	0.011766	60	0	60-180	60	154	GapExp	0	226	2	1	0	distractor	1	485	758	188717	11.765	11.753	11.777
ProbeTrack12	5	ProbeTrack	11.3	WolfelabHowe	20101019.115604	20101019.121814	8	0.011766	60	0	60-180	60	87	GapExp	0	227	2	1	0	distractor	1	720	640	189357	11.765	11.752	11.777
ProbeTrack12	5	ProbeTrack	11.3	WolfelabHowe	20101019.115604	20101019.121820	8	0.011766	60	10	60-180	60	107	GapExp	0	228	2	3	0	target	0	426	-1000	188357	11.765	11.736	11.796
ProbeTrack12	5	ProbeTrack	11.3	WolfelabHowe	20101019.115604	20101019.121825	8	0.011766	60	0	60-180	60	121	GapExp	0	229	2	45	1	distractor	0	391	-1000	187357	11.765	11.752	11.777
ProbeTrack12	5	ProbeTrack	11.3	WolfelabHowe	20101019.115604	20101019.121831	8	0.011766	60	0	60-180	60	180	GapExp	0	230	2	1	1	target	1	309	846	188203	11.765	11.752	11.778
ProbeTrack12	5	ProbeTrack	11.3	WolfelabHowe	20101019.115604	20101019.121837	8	0.011766	60	10	60-180	60	72	GapExp	0	231	2	45	0	distractor	1	450	775	188978	11.765	11.749	11.778
ProbeTrack12	5	ProbeTrack	11.3	WolfelabHowe	20101019.115604	20101019.121843	8	0.011766	60	10	60-180	60	149	GapExp	0	232	2	1	1	target	1	379	811	189789	11.765	11.754	11.778
ProbeTrack12	5	ProbeTrack	11.3	WolfelabHowe	20101019.115604	20101019.121849	8	0.011766	60	10	60-180	60	145	GapExp	0	233	2	45	1	target	1	356	822	190611	11.765	11.693	11.826
ProbeTrack12	5	ProbeTrack	11.3	WolfelabHowe	20101019.115604	20101019.121855	8	0.011766	60	10	60-180	60	113	GapExp	0	234	2	1	1	target	1	450	775	191386	11.765	11.699	11.778
ProbeTrack12	5	ProbeTrack	11.3	WolfelabHowe	20101019.115604	20101019.121900	8	0.011766	60	10	60-180	60	142	GapExp	0	235	2	1	0	target	0	614	-1000	190386	11.765	11.753	11.777
ProbeTrack12	5	ProbeTrack	11.3	WolfelabHowe	20101019.115604	20101019.121906	8	0.011766	60	0	60-180	60	150	GapExp	0	236	2	3	0	distractor	1	591	705	191091	11.765	11.754	11.779
ProbeTrack12	5	ProbeTrack	11.3	WolfelabHowe	20101019.115604	20101019.121912	8	0.011766	60	0	60-180	60	147	GapExp	0	237	2	0	1	target	1	426	787	191878	11.765	11.752	11.777
ProbeTrack12	5	ProbeTrack	11.3	WolfelabHowe	20101019.115604	20101019.121918	8	0.011766	60	0	60-180	60	145	GapExp	0	238	2	3	0	distractor	1	438	781	192659	11.765	11.746	11.784
ProbeTrack12	5	ProbeTrack	11.3	WolfelabHowe	20101019.115604	20101019.121924	8	0.011766	60	10	60-180	60	102	GapExp	0	239	2	0	0	target	0	614	-1000	191659	11.765	11.729	11.798
ProbeTrack12	5	ProbeTrack	11.3	WolfelabHowe	20101019.115604	20101019.121929	8	0.011766	60	0	60-180	60	112	GapExp	0	240	2	0	1	target	1	357	822	192481	11.765	11.753	11.777
ProbeTrack12	5	ProbeTrack	11.3	WolfelabHowe	20101019.115604	20101019.121935	8	0.011766	60	10	60-180	60	127	GapExp	0	241	2	1	0	distractor	1	426	787	193268	11.765	11.753	11.779
ProbeTrack12	5	ProbeTrack	11.3	WolfelabHowe	20101019.115604	20101019.121940	8	0.011766	60	0	60-180	60	130	GapExp	0	242	2	45	1	target	1	345	828	194096	11.765	11.753	11.778
ProbeTrack12	5	ProbeTrack	11.3	WolfelabHowe	20101019.115604	20101019.121947	8	0.011766	60	10	60-180	60	67	GapExp	0	243	2	1	1	target	1	391	805	194901	11.765	11.754	11.777
ProbeTrack12	5	ProbeTrack	11.3	WolfelabHowe	20101019.115604	20101019.121952	8	0.011766	60	0	60-180	60	89	GapExp	0	244	2	0	0	distractor	1	414	793	195694	11.765	11.739	11.791
ProbeTrack12	5	ProbeTrack	11.3	WolfelabHowe	20101019.115604	20101019.121957	8	0.011766	60	10	60-180	60	171	GapExp	0	245	2	45	1	target	1	402	799	196493	11.765	11.751	11.781
ProbeTrack12	5	ProbeTrack	11.3	WolfelabHowe	20101019.115604	20101019.122003	8	0.011766	60	0	60-180	60	61	GapExp	0	246	2	1	0	distractor	1	532	734	197227	11.765	11.754	11.776
ProbeTrack12	5	ProbeTrack	11.3	WolfelabHowe	20101019.115604	20101019.122008	8	0.011766	60	0	60-180	60	97	GapExp	0	247	2	0	0	distractor	1	449	776	198003	11.765	11.730	11.795
ProbeTrack12	5	ProbeTrack	11.3	WolfelabHowe	20101019.115604	20101019.122014	8	0.011766	60	10	60-180	60	68	GapExp	0	248	2	1	0	distractor	1	461	770	198773	11.765	11.753	11.776
ProbeTrack12	5	ProbeTrack	11.3	WolfelabHowe	20101019.115604	20101019.122019	8	0.011766	60	0	60-180	60	96	GapExp	0	249	2	0	0	distractor	1	508	746	199519	11.765	11.752	11.777
ProbeTrack12	5	ProbeTrack	11.3	WolfelabHowe	20101019.115604	20101019.122024	8	0.011766	60	10	60-180	60	112	GapExp	0	250	2	1	1	target	1	356	822	200341	11.765	11.754	11.777
ProbeTrack12	5	ProbeTrack	11.3	WolfelabHowe	20101019.122125	20101019.122137	8	0.011766	60	10	60-180	60	75	GapExp	1	1	2	45	0	distractor	1	402	799	201140	12.059	11.754	23.545
ProbeTrack12	5	ProbeTrack	11.3	WolfelabHowe	20101019.122125	20101019.122143	8	0.011766	60	10	60-180	60	150	GapExp	1	2	2	1	1	target	1	379	811	201951	11.940	11.752	11.777
ProbeTrack12	5	ProbeTrack	11.3	WolfelabHowe	20101019.122125	20101019.122149	8	0.011766	60	10	60-180	60	142	GapExp	1	3	2	45	1	distractor	0	438	-1000	200951	11.765	11.753	11.775
ProbeTrack12	5	ProbeTrack	11.3	WolfelabHowe	20101019.122125	20101019.122155	8	0.011766	60	10	60-180	60	67	GapExp	1	4	2	0	0	distractor	1	567	717	201668	11.823	11.755	23.531
ProbeTrack12	5	ProbeTrack	11.3	WolfelabHowe	20101019.122125	20101019.122201	8	0.011766	60	0	60-180	60	114	GapExp	1	5	2	1	1	target	1	320	840	202508	11.873	11.754	35.295
ProbeTrack12	5	ProbeTrack	11.3	WolfelabHowe	20101019.122125	20101019.122206	8	0.011766	60	0	60-180	60	73	GapExp	1	6	2	1	0	distractor	1	520	740	203248	11.765	11.754	11.778
ProbeTrack12	5	ProbeTrack	11.3	WolfelabHowe	20101019.122125	20101019.122211	8	0.011766	60	0	60-180	60	119	GapExp	1	7	2	45	1	target	1	344	828	204076	11.765	11.730	11.812
ProbeTrack12	5	ProbeTrack	11.3	WolfelabHowe	20101019.122125	20101019.122217	8	0.011766	60	0	60-180	60	104	GapExp	1	8	2	0	1	target	1	414	793	204869	11.765	11.753	11.776
ProbeTrack12	5	ProbeTrack	11.3	WolfelabHowe	20101019.122125	20101019.122222	8	0.011766	60	10	60-180	60	172	GapExp	1	9	2	3	1	target	1	356	822	205691	11.765	11.715	11.815
ProbeTrack12	5	ProbeTrack	11.3	WolfelabHowe	20101019.122125	20101019.122228	8	0.011766	60	0	60-180	60	160	GapExp	1	10	2	3	1	target	1	402	799	206490	11.765	11.752	11.778
ProbeTrack12	5	ProbeTrack	11.3	WolfelabHowe	20101019.122125	20101019.122234	8	0.011766	60	0	60-180	60	117	GapExp	0	11	2	3	0	distractor	1	532	734	207224	11.765	11.754	11.778
ProbeTrack12	5	ProbeTrack	11.3	WolfelabHowe	20101019.122125	20101019.122239	8	0.011766	60	10	60-180	60	80	GapExp	0	12	2	3	1	target	1	379	811	208035	11.765	11.754	11.776
ProbeTrack12	5	ProbeTrack	11.3	WolfelabHowe	20101019.122125	20101019.122245	8	0.011766	60	0	60-180	60	72	GapExp	0	13	2	0	1	target	1	367	817	208852	11.765	11.679	11.859
ProbeTrack12	5	ProbeTrack	11.3	WolfelabHowe	20101019.122125	20101019.122249	8	0.011766	60	0	60-180	60	165	GapExp	0	14	2	3	1	target	1	414	793	209645	11.765	11.753	11.777
ProbeTrack12	5	ProbeTrack	11.3	WolfelabHowe	20101019.122125	20101019.122255	8	0.011766	60	0	60-180	60	154	GapExp	0	15	2	1	0	distractor	1	461	770	210415	11.765	11.755	11.778
ProbeTrack12	5	ProbeTrack	11.3	WolfelabHowe	20101019.122125	20101019.122301	8	0.011766	60	0	60-180	60	72	GapExp	0	16	2	45	0	distractor	1	485	758	211173	11.765	11.755	11.776
ProbeTrack12	5	ProbeTrack	11.3	WolfelabHowe	20101019.122125	20101019.122307	8	0.011766	60	0	60-180	60	87	GapExp	0	17	2	0	0	distractor	1	496	752	211925	11.765	11.754	11.777
ProbeTrack12	5	ProbeTrack	11.3	WolfelabHowe	20101019.122125	20101019.122312	8	0.011766	60	0	60-180	60	157	GapExp	0	18	2	3	0	distractor	1	485	758	212683	11.765	11.754	11.776
ProbeTrack12	5	ProbeTrack	11.3	WolfelabHowe	20101019.122125	20101019.122318	8	0.011766	60	10	60-180	60	134	GapExp	0	19	2	1	0	distractor	1	449	776	213459	11.765	11.719	11.813
ProbeTrack12	5	ProbeTrack	11.3	WolfelabHowe	20101019.122125	20101019.122324	8	0.011766	60	0	60-180	60	143	GapExp	0	20	2	1	0	distractor	1	462	769	214228	11.765	11.754	11.778
ProbeTrack12	5	ProbeTrack	11.3	WolfelabHowe	20101019.122125	20101019.122330	8	0.011766	60	10	60-180	60	82	GapExp	0	21	2	45	1	target	1	356	822	215050	11.765	11.754	11.777
ProbeTrack12	5	ProbeTrack	11.3	WolfelabHowe	20101019.122125	20101019.122336	8	0.011766	60	10	60-180	60	72	GapExp	0	22	2	0	1	target	1	414	793	215843	11.765	11.755	11.777
ProbeTrack12	5	ProbeTrack	11.3	WolfelabHowe	20101019.122125	20101019.122341	8	0.011766	60	10	60-180	60	140	GapExp	0	23	2	0	0	distractor	1	567	717	216560	11.765	11.754	11.777
ProbeTrack12	5	ProbeTrack	11.3	WolfelabHowe	20101019.122125	20101019.122346	8	0.011766	60	10	60-180	60	83	GapExp	0	24	2	1	0	distractor	1	473	764	217324	11.765	11.751	11.777
ProbeTrack12	5	ProbeTrack	11.3	WolfelabHowe	20101019.122125	20101019.122352	8	0.011766	60	0	60-180	60	141	GapExp	0	25	2	45	1	target	1	368	816	218140	11.765	11.754	11.776
ProbeTrack12	5	ProbeTrack	11.3	WolfelabHowe	20101019.122125	20101019.122358	8	0.011766	60	10	60-180	60	111	GapExp	0	26	2	45	0	distractor	1	414	793	218933	11.765	11.754	11.778
ProbeTrack12	5	ProbeTrack	11.3	WolfelabHowe	20101019.122125	20101019.122404	8	0.011766	60	10	60-180	60	131	GapExp	0	27	2	3	0	target	0	544	-1000	217933	11.765	11.754	11.777
ProbeTrack12	5	ProbeTrack	11.3	WolfelabHowe	20101019.122125	20101019.122410	8	0.011766	60	10	60-180	60	133	GapExp	0	28	2	45	1	target	1	426	787	218720	11.765	11.754	11.780
ProbeTrack12	5	ProbeTrack	11.3	WolfelabHowe	20101019.122125	20101019.122416	8	0.011766	60	10	60-180	60	94	GapExp	0	29	2	45	1	target	1	367	817	219537	11.765	11.751	11.785
ProbeTrack12	5	ProbeTrack	11.3	WolfelabHowe	20101019.122125	20101019.122422	8	0.011766	60	0	60-180	60	112	GapExp	0	30	2	1	1	target	1	402	799	220336	11.765	11.754	11.779
ProbeTrack12	5	ProbeTrack	11.3	WolfelabHowe	20101019.122125	20101019.122427	8	0.011766	60	0	60-180	60	176	GapExp	0	31	2	3	1	target	1	367	817	221153	11.765	11.753	11.777
ProbeTrack12	5	ProbeTrack	11.3	WolfelabHowe	20101019.122125	20101019.122434	8	0.011766	60	10	60-180	60	94	GapExp	0	32	2	0	1	target	1	414	793	221946	11.765	11.753	11.776
ProbeTrack12	5	ProbeTrack	11.3	WolfelabHowe	20101019.122125	20101019.122439	8	0.011766	60	0	60-180	60	151	GapExp	0	33	2	3	0	distractor	1	437	782	222728	11.765	11.753	11.777
ProbeTrack12	5	ProbeTrack	11.3	WolfelabHowe	20101019.122125	20101019.122445	8	0.011766	60	10	60-180	60	122	GapExp	0	34	2	1	0	distractor	1	496	752	223480	11.765	11.754	11.777
ProbeTrack12	5	ProbeTrack	11.3	WolfelabHowe	20101019.122125	20101019.122451	8	0.011766	60	10	60-180	60	103	GapExp	0	35	2	45	1	target	1	367	817	224297	11.765	11.752	11.777
ProbeTrack12	5	ProbeTrack	11.3	WolfelabHowe	20101019.122125	20101019.122457	8	0.011766	60	10	60-180	60	131	GapExp	0	36	2	45	1	target	1	391	805	225102	11.765	11.754	11.778
ProbeTrack12	5	ProbeTrack	11.3	WolfelabHowe	20101019.122125	20101019.122503	8	0.011766	60	10	60-180	60	116	GapExp	0	37	2	0	0	distractor	1	508	746	225848	11.765	11.754	11.777
ProbeTrack12	5	ProbeTrack	11.3	WolfelabHowe	20101019.122125	20101019.122509	8	0.011766	60	10	60-180	60	103	GapExp	0	38	2	3	1	target	1	449	776	226624	11.765	11.754	11.776
ProbeTrack12	5	ProbeTrack	11.3	WolfelabHowe	20101019.122125	20101019.122514	8	0.011766	60	0	60-180	60	144	GapExp	0	39	2	1	0	distractor	1	450	775	227399	11.765	11.752	11.776
ProbeTrack12	5	ProbeTrack	11.3	WolfelabHowe	20101019.122125	20101019.122520	8	0.011766	60	10	60-180	60	138	GapExp	0	40	2	0	0	distractor	1	473	764	228163	11.765	11.732	11.794
ProbeTrack12	5	ProbeTrack	11.3	WolfelabHowe	20101019.122125	20101019.122526	8	0.011766	60	0	60-180	60	87	GapExp	0	41	2	1	1	target	1	485	758	228921	11.765	11.755	11.776
ProbeTrack12	5	ProbeTrack	11.3	WolfelabHowe	20101019.122125	20101019.122531	8	0.011766	60	10	60-180	60	151	GapExp	0	42	2	3	1	target	1	379	811	229732	11.765	11.752	11.778
ProbeTrack12	5	ProbeTrack	11.3	WolfelabHowe	20101019.122125	20101019.122537	8	0.011766	60	10	60-180	60	101	GapExp	0	43	2	3	0	target	0	368	-1000	228732	11.765	11.753	11.777
ProbeTrack12	5	ProbeTrack	11.3	WolfelabHowe	20101019.122125	20101019.122542	8	0.011766	60	10	60-180	60	75	GapExp	0	44	2	1	0	distractor	1	426	787	229519	11.765	11.752	11.777
ProbeTrack12	5	ProbeTrack	11.3	WolfelabHowe	20101019.122125	20101019.122547	8	0.011766	60	10	60-180	60	137	GapExp	0	45	2	0	1	target	1	356	822	230341	11.765	11.752	11.778
ProbeTrack12	5	ProbeTrack	11.3	WolfelabHowe	20101019.122125	20101019.122553	8	0.011766	60	10	60-180	60	83	GapExp	0	46	2	45	0	distractor	1	414	793	231134	11.765	11.753	11.777
ProbeTrack12	5	ProbeTrack	11.3	WolfelabHowe	20101019.122125	20101019.122559	8	0.011766	60	10	60-180	60	89	GapExp	0	47	2	1	1	target	1	415	793	231927	11.765	11.752	11.779
ProbeTrack12	5	ProbeTrack	11.3	WolfelabHowe	20101019.122125	20101019.122604	8	0.011766	60	0	60-180	60	98	GapExp	0	48	2	0	1	target	1	367	817	232744	11.765	11.729	11.800
ProbeTrack12	5	ProbeTrack	11.3	WolfelabHowe	20101019.122125	20101019.122609	8	0.011766	60	0	60-180	60	142	GapExp	0	49	2	45	1	target	1	355	823	233567	11.765	11.752	11.776
ProbeTrack12	5	ProbeTrack	11.3	WolfelabHowe	20101019.122125	20101019.122615	8	0.011766	60	10	60-180	60	70	GapExp	0	50	2	3	0	distractor	1	485	758	234325	11.765	11.753	11.777
ProbeTrack12	5	ProbeTrack	11.3	WolfelabHowe	20101019.122125	20101019.122620	8	0.011766	60	0	60-180	60	64	GapExp	0	51	2	45	1	target	1	521	740	235065	11.765	11.755	11.776
ProbeTrack12	5	ProbeTrack	11.3	WolfelabHowe	20101019.122125	20101019.122626	8	0.011766	60	0	60-180	60	171	GapExp	0	52	2	1	1	target	1	414	793	235858	11.765	11.734	11.790
ProbeTrack12	5	ProbeTrack	11.3	WolfelabHowe	20101019.122125	20101019.122632	8	0.011766	60	10	60-180	60	130	GapExp	0	53	2	0	0	distractor	1	367	817	236675	11.765	11.754	11.775
ProbeTrack12	5	ProbeTrack	11.3	WolfelabHowe	20101019.122125	20101019.122637	8	0.011766	60	0	60-180	60	95	GapExp	0	54	2	1	1	target	1	391	805	237480	11.765	11.740	11.790
ProbeTrack12	5	ProbeTrack	11.3	WolfelabHowe	20101019.122125	20101019.122643	8	0.011766	60	10	60-180	60	89	GapExp	0	55	2	1	0	target	0	450	-1000	236480	11.765	11.753	11.777
ProbeTrack12	5	ProbeTrack	11.3	WolfelabHowe	20101019.122125	20101019.122648	8	0.011766	60	0	60-180	60	102	GapExp	0	56	2	1	1	target	1	391	805	237285	11.765	11.753	11.776
ProbeTrack12	5	ProbeTrack	11.3	WolfelabHowe	20101019.122125	20101019.122653	8	0.011766	60	10	60-180	60	100	GapExp	0	57	2	0	0	distractor	1	579	711	237996	11.765	11.753	11.777
ProbeTrack12	5	ProbeTrack	11.3	WolfelabHowe	20101019.122125	20101019.122659	8	0.011766	60	10	60-180	60	113	GapExp	0	58	2	0	0	distractor	1	461	770	238766	11.765	11.752	11.778
ProbeTrack12	5	ProbeTrack	11.3	WolfelabHowe	20101019.122125	20101019.122704	8	0.011766	60	10	60-180	60	123	GapExp	0	59	2	45	0	distractor	1	485	758	239524	11.765	11.754	11.778
ProbeTrack12	5	ProbeTrack	11.3	WolfelabHowe	20101019.122125	20101019.122710	8	0.011766	60	10	60-180	60	72	GapExp	0	60	2	0	1	target	1	402	799	240323	11.765	11.754	11.777
ProbeTrack12	5	ProbeTrack	11.3	WolfelabHowe	20101019.122125	20101019.122715	8	0.011766	60	0	60-180	60	109	GapExp	0	61	2	3	0	distractor	1	461	770	241093	11.765	11.753	11.777
ProbeTrack12	5	ProbeTrack	11.3	WolfelabHowe	20101019.122125	20101019.122721	8	0.011766	60	10	60-180	60	108	GapExp	0	62	2	3	1	target	1	391	805	241898	11.816	11.754	23.543
ProbeTrack12	5	ProbeTrack	11.3	WolfelabHowe	20101019.122125	20101019.122726	8	0.011766	60	0	60-180	60	127	GapExp	0	63	2	3	0	distractor	1	522	739	242637	11.765	11.754	11.776
ProbeTrack12	5	ProbeTrack	11.3	WolfelabHowe	20101019.122125	20101019.122732	8	0.011766	60	10	60-180	60	114	GapExp	0	64	2	1	0	distractor	1	450	775	243412	11.765	11.703	11.826
ProbeTrack12	5	ProbeTrack	11.3	WolfelabHowe	20101019.122125	20101019.122738	8	0.011766	60	10	60-180	60	82	GapExp	0	65	2	3	1	target	1	367	817	244229	11.765	11.718	11.810
ProbeTrack12	5	ProbeTrack	11.3	WolfelabHowe	20101019.122125	20101019.122743	8	0.011766	60	0	60-180	60	128	GapExp	0	66	2	3	0	distractor	1	449	776	245005	11.765	11.755	11.777
ProbeTrack12	5	ProbeTrack	11.3	WolfelabHowe	20101019.122125	20101019.122748	8	0.011766	60	0	60-180	60	166	GapExp	0	67	2	0	1	target	1	308	846	245851	11.765	11.735	11.790
ProbeTrack12	5	ProbeTrack	11.3	WolfelabHowe	20101019.122125	20101019.122754	8	0.011766	60	0	60-180	60	63	GapExp	0	68	2	1	1	target	1	485	758	246609	11.765	11.753	11.778
ProbeTrack12	5	ProbeTrack	11.3	WolfelabHowe	20101019.122125	20101019.122759	8	0.011766	60	10	60-180	60	122	GapExp	0	69	2	1	0	distractor	1	414	793	247402	11.765	11.754	11.775
ProbeTrack12	5	ProbeTrack	11.3	WolfelabHowe	20101019.122125	20101019.122805	8	0.011766	60	0	60-180	60	69	GapExp	0	70	2	3	1	target	1	508	746	248148	11.765	11.754	11.779
ProbeTrack12	5	ProbeTrack	11.3	WolfelabHowe	20101019.122125	20101019.122809	8	0.011766	60	0	60-180	60	179	GapExp	0	71	2	0	1	target	1	461	770	248918	11.765	11.754	11.781
ProbeTrack12	5	ProbeTrack	11.3	WolfelabHowe	20101019.122125	20101019.122816	8	0.011766	60	10	60-180	60	84	GapExp	0	72	2	3	1	target	1	520	740	249658	11.765	11.751	11.778
ProbeTrack12	5	ProbeTrack	11.3	WolfelabHowe	20101019.122125	20101019.122821	8	0.011766	60	10	60-180	60	79	GapExp	0	73	2	1	1	target	1	509	746	250404	11.765	11.749	11.780
ProbeTrack12	5	ProbeTrack	11.3	WolfelabHowe	20101019.122125	20101019.122826	8	0.011766	60	10	60-180	60	158	GapExp	0	74	2	3	0	distractor	1	485	758	251162	11.765	11.754	11.778
ProbeTrack12	5	ProbeTrack	11.3	WolfelabHowe	20101019.122125	20101019.122832	8	0.011766	60	10	60-180	60	72	GapExp	0	75	2	45	1	target	1	379	811	251973	11.765	11.749	11.780
ProbeTrack12	5	ProbeTrack	11.3	WolfelabHowe	20101019.122125	20101019.122838	8	0.011766	60	10	60-180	60	162	GapExp	0	76	2	1	1	target	1	391	805	252778	11.765	11.748	11.787
ProbeTrack12	5	ProbeTrack	11.3	WolfelabHowe	20101019.122125	20101019.122844	8	0.011766	60	0	60-180	60	72	GapExp	0	77	2	3	1	target	1	461	770	253548	11.765	11.730	11.800
ProbeTrack12	5	ProbeTrack	11.3	WolfelabHowe	20101019.122125	20101019.122849	8	0.011766	60	0	60-180	60	145	GapExp	0	78	2	0	0	distractor	1	449	776	254324	11.765	11.710	11.818
ProbeTrack12	5	ProbeTrack	11.3	WolfelabHowe	20101019.122125	20101019.122854	8	0.011766	60	0	60-180	60	64	GapExp	0	79	2	45	0	distractor	1	438	781	255105	11.765	11.716	11.808
ProbeTrack12	5	ProbeTrack	11.3	WolfelabHowe	20101019.122125	20101019.122900	8	0.011766	60	0	60-180	60	129	GapExp	0	80	2	0	1	target	1	402	799	255904	11.765	11.743	11.787
ProbeTrack12	5	ProbeTrack	11.3	WolfelabHowe	20101019.122125	20101019.122905	8	0.011766	60	10	60-180	60	85	GapExp	0	81	2	0	0	distractor	1	626	687	256591	11.765	11.738	11.802
ProbeTrack12	5	ProbeTrack	11.3	WolfelabHowe	20101019.122125	20101019.122910	8	0.011766	60	10	60-180	60	96	GapExp	0	82	2	3	0	distractor	1	391	805	257396	11.765	11.735	11.794
ProbeTrack12	5	ProbeTrack	11.3	WolfelabHowe	20101019.122125	20101019.122916	8	0.011766	60	10	60-180	60	99	GapExp	0	83	2	3	0	target	0	392	-1000	256396	11.765	11.743	11.785
ProbeTrack12	5	ProbeTrack	11.3	WolfelabHowe	20101019.122125	20101019.122921	8	0.011766	60	0	60-180	60	153	GapExp	0	84	2	1	0	distractor	1	473	764	257160	11.765	11.738	11.787
ProbeTrack12	5	ProbeTrack	11.3	WolfelabHowe	20101019.122125	20101019.122927	8	0.011766	60	10	60-180	60	77	GapExp	0	85	2	3	1	target	1	414	793	257953	11.765	11.714	11.811
ProbeTrack12	5	ProbeTrack	11.3	WolfelabHowe	20101019.122125	20101019.122933	8	0.011766	60	10	60-180	60	143	GapExp	0	86	2	1	0	distractor	1	755	623	258576	11.765	11.731	11.806
ProbeTrack12	5	ProbeTrack	11.3	WolfelabHowe	20101019.122125	20101019.122939	8	0.011766	60	0	60-180	60	179	GapExp	0	87	2	1	1	target	1	473	764	259340	11.765	11.719	11.818
ProbeTrack12	5	ProbeTrack	11.3	WolfelabHowe	20101019.122125	20101019.122945	8	0.011766	60	0	60-180	60	178	GapExp	0	88	2	1	1	target	1	402	799	260139	11.765	11.722	11.807
ProbeTrack12	5	ProbeTrack	11.3	WolfelabHowe	20101019.122125	20101019.122951	8	0.011766	60	10	60-180	60	180	GapExp	0	89	2	45	0	distractor	1	509	746	260885	11.798	11.741	23.527
ProbeTrack12	5	ProbeTrack	11.3	WolfelabHowe	20101019.122125	20101019.122958	8	0.011766	60	0	60-180	60	66	GapExp	0	90	2	0	1	target	1	415	793	261678	11.765	11.626	11.901
ProbeTrack12	5	ProbeTrack	11.3	WolfelabHowe	20101019.122125	20101019.123003	8	0.011766	60	0	60-180	60	67	GapExp	0	91	2	1	1	target	1	414	793	262471	11.765	11.737	11.794
ProbeTrack12	5	ProbeTrack	11.3	WolfelabHowe	20101019.122125	20101019.123008	8	0.011766	60	0	60-180	60	163	GapExp	0	92	2	3	1	target	1	320	840	263311	11.765	11.733	11.807
ProbeTrack12	5	ProbeTrack	11.3	WolfelabHowe	20101019.122125	20101019.123014	8	0.011766	60	0	60-180	60	165	GapExp	0	93	2	45	1	target	1	426	787	264098	11.765	11.728	11.803
ProbeTrack12	5	ProbeTrack	11.3	WolfelabHowe	20101019.122125	20101019.123021	8	0.011766	60	0	60-180	60	127	GapExp	0	94	2	3	0	distractor	1	438	781	264879	11.765	11.724	11.798
ProbeTrack12	5	ProbeTrack	11.3	WolfelabHowe	20101019.122125	20101019.123027	8	0.011766	60	10	60-180	60	107	GapExp	0	95	2	45	0	distractor	1	356	822	265701	11.765	11.740	11.780
ProbeTrack12	5	ProbeTrack	11.3	WolfelabHowe	20101019.122125	20101019.123033	8	0.011766	60	0	60-180	60	101	GapExp	0	96	2	3	1	target	1	402	799	266500	11.765	11.753	11.777
ProbeTrack12	5	ProbeTrack	11.3	WolfelabHowe	20101019.122125	20101019.123038	8	0.011766	60	0	60-180	60	180	GapExp	0	97	2	1	0	distractor	1	391	805	267305	11.765	11.755	11.776
ProbeTrack12	5	ProbeTrack	11.3	WolfelabHowe	20101019.122125	20101019.123044	8	0.011766	60	10	60-180	60	177	GapExp	0	98	2	3	0	distractor	1	496	752	268057	11.765	11.754	11.775
ProbeTrack12	5	ProbeTrack	11.3	WolfelabHowe	20101019.122125	20101019.123051	8	0.011766	60	0	60-180	60	72	GapExp	0	99	2	3	0	distractor	1	673	664	268721	11.765	11.755	11.777
ProbeTrack12	5	ProbeTrack	11.3	WolfelabHowe	20101019.122125	20101019.123056	8	0.011766	60	10	60-180	60	77	GapExp	0	100	2	45	0	distractor	1	391	805	269526	11.765	11.734	11.789
ProbeTrack12	5	ProbeTrack	11.3	WolfelabHowe	20101019.122125	20101019.123102	8	0.011766	60	0	60-180	60	137	GapExp	0	101	2	3	1	target	1	473	764	270290	11.765	11.753	11.777
ProbeTrack12	5	ProbeTrack	11.3	WolfelabHowe	20101019.122125	20101019.123107	8	0.011766	60	0	60-180	60	142	GapExp	0	102	2	0	1	target	1	473	764	271054	11.765	11.753	11.778
ProbeTrack12	5	ProbeTrack	11.3	WolfelabHowe	20101019.122125	20101019.123113	8	0.011766	60	10	60-180	60	66	GapExp	0	103	2	0	0	distractor	1	685	658	271712	11.765	11.754	11.777
ProbeTrack12	5	ProbeTrack	11.3	WolfelabHowe	20101019.122125	20101019.123118	8	0.011766	60	10	60-180	60	72	GapExp	0	104	2	1	0	distractor	1	449	776	272488	11.765	11.752	11.776
ProbeTrack12	5	ProbeTrack	11.3	WolfelabHowe	20101019.122125	20101019.123123	8	0.011766	60	0	60-180	60	110	GapExp	0	105	2	1	0	distractor	1	438	781	273269	11.765	11.747	11.788
ProbeTrack12	5	ProbeTrack	11.3	WolfelabHowe	20101019.122125	20101019.123130	8	0.011766	60	10	60-180	60	87	GapExp	0	106	2	3	0	distractor	1	497	752	274021	11.765	11.754	11.776
ProbeTrack12	5	ProbeTrack	11.3	WolfelabHowe	20101019.122125	20101019.123135	8	0.011766	60	0	60-180	60	127	GapExp	0	107	2	45	1	target	1	367	817	274838	11.765	11.753	11.776
ProbeTrack12	5	ProbeTrack	11.3	WolfelabHowe	20101019.122125	20101019.123141	8	0.011766	60	0	60-180	60	132	GapExp	0	108	2	45	0	distractor	1	415	793	275631	11.765	11.754	11.778
ProbeTrack12	5	ProbeTrack	11.3	WolfelabHowe	20101019.122125	20101019.123147	8	0.011766	60	10	60-180	60	141	GapExp	0	109	2	0	1	target	1	355	823	276454	11.765	11.753	11.778
ProbeTrack12	5	ProbeTrack	11.3	WolfelabHowe	20101019.122125	20101019.123153	8	0.011766	60	10	60-180	60	64	GapExp	0	110	2	45	0	distractor	1	391	805	277259	11.765	11.730	11.806
ProbeTrack12	5	ProbeTrack	11.3	WolfelabHowe	20101019.122125	20101019.123159	8	0.011766	60	0	60-180	60	79	GapExp	0	111	2	45	0	distractor	1	461	770	278029	11.765	11.751	11.777
ProbeTrack12	5	ProbeTrack	11.3	WolfelabHowe	20101019.122125	20101019.123204	8	0.011766	60	10	60-180	60	112	GapExp	0	112	2	1	1	target	1	438	781	278810	11.765	11.753	11.777
ProbeTrack12	5	ProbeTrack	11.3	WolfelabHowe	20101019.122125	20101019.123210	8	0.011766	60	10	60-180	60	142	GapExp	0	113	2	1	1	target	1	450	775	279585	11.765	11.754	11.781
ProbeTrack12	5	ProbeTrack	11.3	WolfelabHowe	20101019.122125	20101019.123216	8	0.011766	60	0	60-180	60	180	GapExp	0	114	2	45	1	target	1	356	822	280407	11.765	11.753	11.777
ProbeTrack12	5	ProbeTrack	11.3	WolfelabHowe	20101019.122125	20101019.123222	8	0.011766	60	0	60-180	60	165	GapExp	0	115	2	45	1	distractor	0	367	-1000	279407	11.765	11.752	11.776
ProbeTrack12	5	ProbeTrack	11.3	WolfelabHowe	20101019.122125	20101019.123229	8	0.011766	60	10	60-180	60	83	GapExp	0	116	2	3	0	distractor	1	767	617	280024	11.765	11.724	11.802
ProbeTrack12	5	ProbeTrack	11.3	WolfelabHowe	20101019.122125	20101019.123234	8	0.011766	60	0	60-180	60	67	GapExp	0	117	2	3	0	distractor	1	508	746	280770	11.765	11.723	11.803
ProbeTrack12	5	ProbeTrack	11.3	WolfelabHowe	20101019.122125	20101019.123239	8	0.011766	60	0	60-180	60	161	GapExp	0	118	2	1	0	distractor	1	414	793	281563	11.765	11.754	11.777
ProbeTrack12	5	ProbeTrack	11.3	WolfelabHowe	20101019.122125	20101019.123252	8	0.011766	60	0	60-180	60	91	GapExp	0	119	2	45	0	distractor	1	508	746	282309	11.765	11.754	11.778
ProbeTrack12	5	ProbeTrack	11.3	WolfelabHowe	20101019.122125	20101019.123258	8	0.011766	60	0	60-180	60	69	GapExp	0	120	2	45	0	distractor	1	403	799	283108	11.765	11.754	11.777
ProbeTrack12	5	ProbeTrack	11.3	WolfelabHowe	20101019.122125	20101019.123303	8	0.011766	60	0	60-180	60	125	GapExp	0	121	2	45	0	distractor	1	379	811	283919	11.765	11.753	11.778
ProbeTrack12	5	ProbeTrack	11.3	WolfelabHowe	20101019.122125	20101019.123309	8	0.011766	60	0	60-180	60	168	GapExp	0	122	2	3	1	distractor	0	367	-1000	282919	11.765	11.726	11.806
ProbeTrack12	5	ProbeTrack	11.3	WolfelabHowe	20101019.122125	20101019.123315	8	0.011766	60	0	60-180	60	89	GapExp	0	123	2	3	0	distractor	1	520	740	283659	11.765	11.709	11.825
ProbeTrack12	5	ProbeTrack	11.3	WolfelabHowe	20101019.122125	20101019.123321	8	0.011766	60	10	60-180	60	72	GapExp	0	124	2	0	1	target	1	414	793	284452	11.765	11.750	11.778
ProbeTrack12	5	ProbeTrack	11.3	WolfelabHowe	20101019.122125	20101019.123326	8	0.011766	60	10	60-180	60	135	GapExp	0	125	2	3	0	distractor	1	426	787	285239	11.765	11.731	11.805
ProbeTrack12	5	ProbeTrack	11.3	WolfelabHowe	20101019.122125	20101019.123333	8	0.011766	60	10	60-180	60	93	GapExp	0	126	2	0	1	target	1	438	781	286020	11.765	11.728	11.805
ProbeTrack12	5	ProbeTrack	11.3	WolfelabHowe	20101019.122125	20101019.123338	8	0.011766	60	10	60-180	60	173	GapExp	0	127	2	1	1	target	1	355	823	286843	11.765	11.751	11.779
ProbeTrack12	5	ProbeTrack	11.3	WolfelabHowe	20101019.122125	20101019.123344	8	0.011766	60	0	60-180	60	177	GapExp	0	128	2	1	0	distractor	1	567	717	287560	11.765	11.754	11.777
ProbeTrack12	5	ProbeTrack	11.3	WolfelabHowe	20101019.122125	20101019.123350	8	0.011766	60	10	60-180	60	171	GapExp	0	129	2	3	0	distractor	1	461	770	288330	11.765	11.729	11.805
ProbeTrack12	5	ProbeTrack	11.3	WolfelabHowe	20101019.122125	20101019.123357	8	0.011766	60	10	60-180	60	135	GapExp	0	130	2	0	1	target	1	473	764	289094	11.765	11.725	11.801
ProbeTrack12	5	ProbeTrack	11.3	WolfelabHowe	20101019.122125	20101019.123402	8	0.011766	60	10	60-180	60	145	GapExp	0	131	2	45	1	target	1	368	816	289910	11.765	11.753	11.776
ProbeTrack12	5	ProbeTrack	11.3	WolfelabHowe	20101019.122125	20101019.123409	8	0.011766	60	0	60-180	60	165	GapExp	0	132	2	0	0	distractor	1	438	781	290691	11.765	11.752	11.778
ProbeTrack12	5	ProbeTrack	11.3	WolfelabHowe	20101019.122125	20101019.123415	8	0.011766	60	10	60-180	60	99	GapExp	0	133	2	45	0	distractor	1	450	775	291466	11.765	11.754	11.778
ProbeTrack12	5	ProbeTrack	11.3	WolfelabHowe	20101019.122125	20101019.123421	8	0.011766	60	0	60-180	60	140	GapExp	0	134	2	0	1	target	1	438	781	292247	11.765	11.753	11.777
ProbeTrack12	5	ProbeTrack	11.3	WolfelabHowe	20101019.122125	20101019.123426	8	0.011766	60	10	60-180	60	67	GapExp	0	135	2	3	1	target	1	332	834	293081	11.765	11.725	11.802
ProbeTrack12	5	ProbeTrack	11.3	WolfelabHowe	20101019.122125	20101019.123431	8	0.011766	60	0	60-180	60	90	GapExp	0	136	2	45	1	target	1	473	764	293845	11.765	11.730	11.803
ProbeTrack12	5	ProbeTrack	11.3	WolfelabHowe	20101019.122125	20101019.123438	8	0.011766	60	0	60-180	60	160	GapExp	0	137	2	45	1	target	1	485	758	294603	11.765	11.754	11.776
ProbeTrack12	5	ProbeTrack	11.3	WolfelabHowe	20101019.122125	20101019.123444	8	0.011766	60	10	60-180	60	137	GapExp	0	138	2	3	0	distractor	1	402	799	295402	11.765	11.753	11.779
ProbeTrack12	5	ProbeTrack	11.3	WolfelabHowe	20101019.122125	20101019.123450	8	0.011766	60	10	60-180	60	111	GapExp	0	139	2	1	1	target	1	414	793	296195	11.765	11.754	11.777
ProbeTrack12	5	ProbeTrack	11.3	WolfelabHowe	20101019.122125	20101019.123455	8	0.011766	60	10	60-180	60	136	GapExp	0	140	2	1	1	target	1	344	828	297023	11.765	11.753	11.776
ProbeTrack12	5	ProbeTrack	11.3	WolfelabHowe	20101019.122125	20101019.123501	8	0.011766	60	0	60-180	60	145	GapExp	0	141	2	45	1	target	1	391	805	297828	11.765	11.754	11.776
ProbeTrack12	5	ProbeTrack	11.3	WolfelabHowe	20101019.122125	20101019.123507	8	0.011766	60	0	60-180	60	136	GapExp	0	142	2	0	0	distractor	1	485	758	298586	11.765	11.754	11.778
ProbeTrack12	5	ProbeTrack	11.3	WolfelabHowe	20101019.122125	20101019.123513	8	0.011766	60	10	60-180	60	129	GapExp	0	143	2	3	1	target	1	367	817	299403	11.765	11.753	11.777
ProbeTrack12	5	ProbeTrack	11.3	WolfelabHowe	20101019.122125	20101019.123519	8	0.011766	60	0	60-180	60	147	GapExp	0	144	2	1	0	distractor	1	414	793	300196	11.765	11.750	11.785
ProbeTrack12	5	ProbeTrack	11.3	WolfelabHowe	20101019.122125	20101019.123524	8	0.011766	60	10	60-180	60	62	GapExp	0	145	2	3	0	distractor	1	426	787	300983	11.765	11.754	11.779
ProbeTrack12	5	ProbeTrack	11.3	WolfelabHowe	20101019.122125	20101019.123529	8	0.011766	60	10	60-180	60	79	GapExp	0	146	2	3	1	target	1	379	811	301794	11.765	11.755	11.777
ProbeTrack12	5	ProbeTrack	11.3	WolfelabHowe	20101019.122125	20101019.123534	8	0.011766	60	10	60-180	60	172	GapExp	0	147	2	45	1	target	1	391	805	302599	11.765	11.753	11.780
ProbeTrack12	5	ProbeTrack	11.3	WolfelabHowe	20101019.122125	20101019.123541	8	0.011766	60	0	60-180	60	151	GapExp	0	148	2	45	1	target	1	333	834	303433	11.765	11.752	11.777
ProbeTrack12	5	ProbeTrack	11.3	WolfelabHowe	20101019.122125	20101019.123547	8	0.011766	60	10	60-180	60	179	GapExp	0	149	2	45	1	distractor	0	367	-1000	302433	11.765	11.750	11.779
ProbeTrack12	5	ProbeTrack	11.3	WolfelabHowe	20101019.122125	20101019.123554	8	0.011766	60	10	60-180	60	90	GapExp	0	150	2	1	1	target	1	414	793	303226	11.765	11.753	11.778
ProbeTrack12	5	ProbeTrack	11.3	WolfelabHowe	20101019.122125	20101019.123559	8	0.011766	60	10	60-180	60	87	GapExp	0	151	2	0	1	target	1	414	793	304019	11.765	11.748	11.783
ProbeTrack12	5	ProbeTrack	11.3	WolfelabHowe	20101019.122125	20101019.123604	8	0.011766	60	0	60-180	60	165	GapExp	0	152	2	0	0	distractor	1	532	734	304753	11.765	11.753	11.778
ProbeTrack12	5	ProbeTrack	11.3	WolfelabHowe	20101019.122125	20101019.123612	8	0.011766	60	0	60-180	60	113	GapExp	0	153	2	3	1	target	1	426	787	305540	11.765	11.754	11.777
ProbeTrack12	5	ProbeTrack	11.3	WolfelabHowe	20101019.122125	20101019.123618	8	0.011766	60	0	60-180	60	136	GapExp	0	154	2	45	0	distractor	1	485	758	306298	11.765	11.753	11.776
ProbeTrack12	5	ProbeTrack	11.3	WolfelabHowe	20101019.122125	20101019.123624	8	0.011766	60	10	60-180	60	72	GapExp	0	155	2	3	1	distractor	0	426	-1000	305298	11.765	11.753	11.775
ProbeTrack12	5	ProbeTrack	11.3	WolfelabHowe	20101019.122125	20101019.123629	8	0.011766	60	0	60-180	60	105	GapExp	0	156	2	0	0	distractor	1	708	646	305944	11.765	11.754	11.776
ProbeTrack12	5	ProbeTrack	11.3	WolfelabHowe	20101019.122125	20101019.123635	8	0.011766	60	10	60-180	60	62	GapExp	0	157	2	45	0	distractor	1	449	776	306720	11.765	11.713	11.812
ProbeTrack12	5	ProbeTrack	11.3	WolfelabHowe	20101019.122125	20101019.123641	8	0.011766	60	0	60-180	60	67	GapExp	0	158	2	0	0	target	0	496	-1000	305720	11.765	11.715	11.813
ProbeTrack12	5	ProbeTrack	11.3	WolfelabHowe	20101019.122125	20101019.123646	8	0.011766	60	10	60-180	60	105	GapExp	0	159	2	1	0	distractor	1	426	787	306507	11.765	11.752	11.776
ProbeTrack12	5	ProbeTrack	11.3	WolfelabHowe	20101019.122125	20101019.123651	8	0.011766	60	0	60-180	60	157	GapExp	0	160	2	1	0	distractor	1	473	764	307271	11.765	11.754	11.778
ProbeTrack12	5	ProbeTrack	11.3	WolfelabHowe	20101019.122125	20101019.123657	8	0.011766	60	0	60-180	60	134	GapExp	0	161	2	0	1	target	1	461	770	308041	11.812	11.752	23.533
ProbeTrack12	5	ProbeTrack	11.3	WolfelabHowe	20101019.122125	20101019.123703	8	0.011766	60	0	60-180	60	151	GapExp	0	162	2	1	1	target	1	403	799	308840	11.765	11.753	11.777
ProbeTrack12	5	ProbeTrack	11.3	WolfelabHowe	20101019.122125	20101019.123709	8	0.011766	60	0	60-180	60	149	GapExp	0	163	2	0	1	target	1	344	828	309668	11.765	11.753	11.776
ProbeTrack12	5	ProbeTrack	11.3	WolfelabHowe	20101019.122125	20101019.123714	8	0.011766	60	0	60-180	60	158	GapExp	0	164	2	45	0	distractor	1	462	769	310437	11.765	11.752	11.777
ProbeTrack12	5	ProbeTrack	11.3	WolfelabHowe	20101019.122125	20101019.123721	8	0.011766	60	10	60-180	60	146	GapExp	0	165	2	0	0	distractor	1	532	734	311171	11.765	11.752	11.778
ProbeTrack12	5	ProbeTrack	11.3	WolfelabHowe	20101019.122125	20101019.123727	8	0.011766	60	10	60-180	60	114	GapExp	0	166	2	0	0	distractor	1	438	781	311952	11.765	11.752	11.776
ProbeTrack12	5	ProbeTrack	11.3	WolfelabHowe	20101019.122125	20101019.123732	8	0.011766	60	0	60-180	60	170	GapExp	0	167	2	1	1	target	1	367	817	312769	11.765	11.753	11.776
ProbeTrack12	5	ProbeTrack	11.3	WolfelabHowe	20101019.122125	20101019.123738	8	0.011766	60	10	60-180	60	121	GapExp	0	168	2	0	0	distractor	1	614	693	313462	11.765	11.754	11.777
ProbeTrack12	5	ProbeTrack	11.3	WolfelabHowe	20101019.122125	20101019.123744	8	0.011766	60	0	60-180	60	151	GapExp	0	169	2	45	0	distractor	1	485	758	314220	11.765	11.753	11.776
ProbeTrack12	5	ProbeTrack	11.3	WolfelabHowe	20101019.122125	20101019.123751	8	0.011766	60	10	60-180	60	152	GapExp	0	170	2	45	1	target	1	438	781	315001	11.765	11.754	11.777
ProbeTrack12	5	ProbeTrack	11.3	WolfelabHowe	20101019.122125	20101019.123757	8	0.011766	60	10	60-180	60	83	GapExp	0	171	2	45	0	distractor	1	426	787	315788	11.765	11.753	11.777
ProbeTrack12	5	ProbeTrack	11.3	WolfelabHowe	20101019.122125	20101019.123803	8	0.011766	60	0	60-180	60	141	GapExp	0	172	2	45	1	target	1	461	770	316558	11.765	11.746	11.778
ProbeTrack12	5	ProbeTrack	11.3	WolfelabHowe	20101019.122125	20101019.123809	8	0.011766	60	10	60-180	60	108	GapExp	0	173	2	1	0	distractor	1	426	787	317345	11.765	11.732	11.795
ProbeTrack12	5	ProbeTrack	11.3	WolfelabHowe	20101019.122125	20101019.123814	8	0.011766	60	0	60-180	60	93	GapExp	0	174	2	0	0	distractor	1	426	787	318132	11.765	11.755	11.776
ProbeTrack12	5	ProbeTrack	11.3	WolfelabHowe	20101019.122125	20101019.123822	8	0.011766	60	0	60-180	60	135	GapExp	0	175	2	3	0	distractor	1	426	787	318919	11.765	11.754	11.777
ProbeTrack12	5	ProbeTrack	11.3	WolfelabHowe	20101019.122125	20101019.123828	8	0.011766	60	0	60-180	60	153	GapExp	0	176	2	3	1	target	1	332	834	319753	11.810	11.695	23.536
ProbeTrack12	5	ProbeTrack	11.3	WolfelabHowe	20101019.122125	20101019.123834	8	0.011766	60	0	60-180	60	161	GapExp	0	177	2	1	1	target	1	310	845	320598	11.765	11.747	11.779
ProbeTrack12	5	ProbeTrack	11.3	WolfelabHowe	20101019.122125	20101019.123839	8	0.011766	60	10	60-180	60	105	GapExp	0	178	2	1	1	target	1	379	811	321409	11.765	11.754	11.777
ProbeTrack12	5	ProbeTrack	11.3	WolfelabHowe	20101019.122125	20101019.123845	8	0.011766	60	10	60-180	60	90	GapExp	0	179	2	3	1	target	1	438	781	322190	11.765	11.754	11.778
ProbeTrack12	5	ProbeTrack	11.3	WolfelabHowe	20101019.122125	20101019.123850	8	0.011766	60	10	60-180	60	102	GapExp	0	180	2	45	0	distractor	1	391	805	322995	11.765	11.749	11.784
ProbeTrack12	5	ProbeTrack	11.3	WolfelabHowe	20101019.122125	20101019.123856	8	0.011766	60	10	60-180	60	83	GapExp	0	181	2	45	0	distractor	1	485	758	323753	11.765	11.713	11.823
ProbeTrack12	5	ProbeTrack	11.3	WolfelabHowe	20101019.122125	20101019.123901	8	0.011766	60	10	60-180	60	163	GapExp	0	182	2	0	0	distractor	1	461	770	324523	11.765	11.754	11.778
ProbeTrack12	5	ProbeTrack	11.3	WolfelabHowe	20101019.122125	20101019.123907	8	0.011766	60	0	60-180	60	88	GapExp	0	183	2	45	0	distractor	1	473	764	325287	11.765	11.754	11.777
ProbeTrack12	5	ProbeTrack	11.3	WolfelabHowe	20101019.122125	20101019.123915	8	0.011766	60	0	60-180	60	102	GapExp	0	184	2	0	1	target	1	449	776	326063	11.765	11.705	11.823
ProbeTrack12	5	ProbeTrack	11.3	WolfelabHowe	20101019.122125	20101019.123920	8	0.011766	60	0	60-180	60	70	GapExp	0	185	2	45	1	target	1	321	840	326903	11.765	11.754	11.779
ProbeTrack12	5	ProbeTrack	11.3	WolfelabHowe	20101019.122125	20101019.123926	8	0.011766	60	10	60-180	60	117	GapExp	0	186	2	0	1	target	1	332	834	327737	11.765	11.753	11.775
ProbeTrack12	5	ProbeTrack	11.3	WolfelabHowe	20101019.122125	20101019.123931	8	0.011766	60	10	60-180	60	167	GapExp	0	187	2	1	1	target	1	497	752	328489	11.765	11.746	11.777
ProbeTrack12	5	ProbeTrack	11.3	WolfelabHowe	20101019.122125	20101019.123937	8	0.011766	60	0	60-180	60	164	GapExp	0	188	2	1	0	distractor	1	438	781	329270	11.765	11.754	11.777
ProbeTrack12	5	ProbeTrack	11.3	WolfelabHowe	20101019.122125	20101019.123943	8	0.011766	60	10	60-180	60	141	GapExp	0	189	2	1	1	target	1	344	828	330098	11.765	11.746	11.780
ProbeTrack12	5	ProbeTrack	11.3	WolfelabHowe	20101019.122125	20101019.123949	8	0.011766	60	0	60-180	60	138	GapExp	0	190	2	3	0	distractor	1	508	746	330844	11.765	11.749	11.784
ProbeTrack12	5	ProbeTrack	11.3	WolfelabHowe	20101019.122125	20101019.123955	8	0.011766	60	10	60-180	60	64	GapExp	0	191	2	1	0	distractor	1	520	740	331584	11.765	11.754	11.775
ProbeTrack12	5	ProbeTrack	11.3	WolfelabHowe	20101019.122125	20101019.124000	8	0.011766	60	10	60-180	60	70	GapExp	0	192	2	1	1	target	1	415	793	332377	11.765	11.750	11.778
ProbeTrack12	5	ProbeTrack	11.3	WolfelabHowe	20101019.122125	20101019.124005	8	0.011766	60	10	60-180	60	175	GapExp	0	193	2	1	0	distractor	1	520	740	333117	11.765	11.714	11.813
ProbeTrack12	5	ProbeTrack	11.3	WolfelabHowe	20101019.122125	20101019.124011	8	0.011766	60	10	60-180	60	154	GapExp	0	194	2	3	0	distractor	1	450	775	333892	11.765	11.754	11.777
ProbeTrack12	5	ProbeTrack	11.3	WolfelabHowe	20101019.122125	20101019.124017	8	0.011766	60	0	60-180	60	129	GapExp	0	195	2	0	0	target	0	426	-1000	332892	11.765	11.753	11.776
ProbeTrack12	5	ProbeTrack	11.3	WolfelabHowe	20101019.122125	20101019.124023	8	0.011766	60	0	60-180	60	74	GapExp	0	196	2	1	1	target	1	438	781	333673	11.765	11.755	11.776
ProbeTrack12	5	ProbeTrack	11.3	WolfelabHowe	20101019.122125	20101019.124028	8	0.011766	60	10	60-180	60	112	GapExp	0	197	2	0	1	target	1	379	811	334484	11.765	11.753	11.777
ProbeTrack12	5	ProbeTrack	11.3	WolfelabHowe	20101019.122125	20101019.124033	8	0.011766	60	10	60-180	60	88	GapExp	0	198	2	45	0	distractor	1	414	793	335277	11.765	11.754	11.777
ProbeTrack12	5	ProbeTrack	11.3	WolfelabHowe	20101019.122125	20101019.124039	8	0.011766	60	10	60-180	60	77	GapExp	0	199	2	0	0	distractor	1	520	740	336017	11.765	11.755	11.777
ProbeTrack12	5	ProbeTrack	11.3	WolfelabHowe	20101019.122125	20101019.124044	8	0.011766	60	10	60-180	60	147	GapExp	0	200	2	1	0	distractor	1	449	776	336793	11.765	11.734	11.799
ProbeTrack12	5	ProbeTrack	11.3	WolfelabHowe	20101019.122125	20101019.124050	8	0.011766	60	0	60-180	60	171	GapExp	0	201	2	0	0	distractor	1	461	770	337563	11.765	11.753	11.777
ProbeTrack12	5	ProbeTrack	11.3	WolfelabHowe	20101019.122125	20101019.124056	8	0.011766	60	10	60-180	60	80	GapExp	0	202	2	3	1	target	1	461	770	338333	11.765	11.754	11.776
ProbeTrack12	5	ProbeTrack	11.3	WolfelabHowe	20101019.122125	20101019.124101	8	0.011766	60	10	60-180	60	83	GapExp	0	203	2	45	0	distractor	1	391	805	339138	11.765	11.753	11.778
ProbeTrack12	5	ProbeTrack	11.3	WolfelabHowe	20101019.122125	20101019.124107	8	0.011766	60	0	60-180	60	73	GapExp	0	204	2	45	0	distractor	1	461	770	339908	11.765	11.755	11.778
ProbeTrack12	5	ProbeTrack	11.3	WolfelabHowe	20101019.122125	20101019.124112	8	0.011766	60	10	60-180	60	62	GapExp	0	205	2	3	1	target	1	414	793	340701	11.765	11.716	11.811
ProbeTrack12	5	ProbeTrack	11.3	WolfelabHowe	20101019.122125	20101019.124117	8	0.011766	60	0	60-180	60	146	GapExp	0	206	2	45	1	target	1	344	828	341529	11.765	11.753	11.776
ProbeTrack12	5	ProbeTrack	11.3	WolfelabHowe	20101019.122125	20101019.124123	8	0.011766	60	10	60-180	60	118	GapExp	0	207	2	45	1	target	1	332	834	342363	11.765	11.754	11.776
ProbeTrack12	5	ProbeTrack	11.3	WolfelabHowe	20101019.122125	20101019.124129	8	0.011766	60	0	60-180	60	146	GapExp	0	208	2	0	1	target	1	437	782	343145	11.765	11.753	11.778
ProbeTrack12	5	ProbeTrack	11.3	WolfelabHowe	20101019.122125	20101019.124134	8	0.011766	60	0	60-180	60	174	GapExp	0	209	2	1	1	target	1	320	840	343985	11.765	11.707	11.820
ProbeTrack12	5	ProbeTrack	11.3	WolfelabHowe	20101019.122125	20101019.124140	8	0.011766	60	10	60-180	60	160	GapExp	0	210	2	45	1	target	1	320	840	344825	11.765	11.754	11.776
ProbeTrack12	5	ProbeTrack	11.3	WolfelabHowe	20101019.122125	20101019.124147	8	0.011766	60	0	60-180	60	175	GapExp	0	211	2	3	1	target	1	379	811	345636	11.765	11.753	11.777
ProbeTrack12	5	ProbeTrack	11.3	WolfelabHowe	20101019.122125	20101019.124153	8	0.011766	60	10	60-180	60	170	GapExp	0	212	2	1	1	target	1	379	811	346447	11.765	11.753	11.777
ProbeTrack12	5	ProbeTrack	11.3	WolfelabHowe	20101019.122125	20101019.124200	8	0.011766	60	0	60-180	60	143	GapExp	0	213	2	0	0	distractor	1	485	758	347205	11.765	11.753	11.778
ProbeTrack12	5	ProbeTrack	11.3	WolfelabHowe	20101019.122125	20101019.124207	8	0.011766	60	10	60-180	60	151	GapExp	0	214	2	0	1	distractor	0	603	-1000	346205	11.765	11.754	11.777
ProbeTrack12	5	ProbeTrack	11.3	WolfelabHowe	20101019.122125	20101019.124213	8	0.011766	60	10	60-180	60	176	GapExp	0	215	2	45	1	target	1	355	823	347028	11.765	11.749	11.779
ProbeTrack12	5	ProbeTrack	11.3	WolfelabHowe	20101019.122125	20101019.124220	8	0.011766	60	0	60-180	60	67	GapExp	0	216	2	45	1	target	1	414	793	347821	11.765	11.747	11.786
ProbeTrack12	5	ProbeTrack	11.3	WolfelabHowe	20101019.122125	20101019.124225	8	0.011766	60	0	60-180	60	96	GapExp	0	217	2	3	1	target	1	380	810	348631	11.765	11.753	11.777
ProbeTrack12	5	ProbeTrack	11.3	WolfelabHowe	20101019.122125	20101019.124231	8	0.011766	60	0	60-180	60	147	GapExp	0	218	2	45	0	distractor	1	485	758	349389	11.765	11.753	11.777
ProbeTrack12	5	ProbeTrack	11.3	WolfelabHowe	20101019.122125	20101019.124237	8	0.011766	60	0	60-180	60	90	GapExp	0	219	2	1	1	target	1	368	816	350205	11.765	11.750	11.781
ProbeTrack12	5	ProbeTrack	11.3	WolfelabHowe	20101019.122125	20101019.124244	8	0.011766	60	0	60-180	60	148	GapExp	0	220	2	0	1	target	1	391	805	351010	11.765	11.753	11.779
ProbeTrack12	5	ProbeTrack	11.3	WolfelabHowe	20101019.122125	20101019.124250	8	0.011766	60	10	60-180	60	150	GapExp	0	221	2	45	0	distractor	1	449	776	351786	11.765	11.729	11.806
ProbeTrack12	5	ProbeTrack	11.3	WolfelabHowe	20101019.122125	20101019.124257	8	0.011766	60	10	60-180	60	142	GapExp	0	222	2	0	0	distractor	1	614	693	352479	11.765	11.753	11.777
ProbeTrack12	5	ProbeTrack	11.3	WolfelabHowe	20101019.122125	20101019.124304	8	0.011766	60	0	60-180	60	174	GapExp	0	223	2	45	0	distractor	1	438	781	353260	11.765	11.720	11.818
ProbeTrack12	5	ProbeTrack	11.3	WolfelabHowe	20101019.122125	20101019.124311	8	0.011766	60	10	60-180	60	84	GapExp	0	224	2	3	0	distractor	1	497	752	354012	11.765	11.739	11.790
ProbeTrack12	5	ProbeTrack	11.3	WolfelabHowe	20101019.122125	20101019.124316	8	0.011766	60	0	60-180	60	115	GapExp	0	225	2	45	0	distractor	1	556	722	354734	11.765	11.754	11.777
ProbeTrack12	5	ProbeTrack	11.3	WolfelabHowe	20101019.122125	20101019.124322	8	0.011766	60	0	60-180	60	109	GapExp	0	226	2	3	1	target	1	473	764	355498	11.765	11.753	11.777
ProbeTrack12	5	ProbeTrack	11.3	WolfelabHowe	20101019.122125	20101019.124327	8	0.011766	60	10	60-180	60	154	GapExp	0	227	2	0	1	target	1	391	805	356303	11.765	11.678	11.857
ProbeTrack12	5	ProbeTrack	11.3	WolfelabHowe	20101019.122125	20101019.124333	8	0.011766	60	10	60-180	60	171	GapExp	0	228	2	3	1	target	1	438	781	357084	11.765	11.754	11.778
ProbeTrack12	5	ProbeTrack	11.3	WolfelabHowe	20101019.122125	20101019.124340	8	0.011766	60	0	60-180	60	179	GapExp	0	229	2	3	0	distractor	1	438	781	357865	11.765	11.753	11.777
ProbeTrack12	5	ProbeTrack	11.3	WolfelabHowe	20101019.122125	20101019.124346	8	0.011766	60	0	60-180	60	106	GapExp	0	230	2	0	1	target	1	402	799	358664	11.765	11.753	11.778
ProbeTrack12	5	ProbeTrack	11.3	WolfelabHowe	20101019.122125	20101019.124351	8	0.011766	60	10	60-180	60	66	GapExp	0	231	2	45	1	target	1	320	840	359504	11.765	11.729	11.797
ProbeTrack12	5	ProbeTrack	11.3	WolfelabHowe	20101019.122125	20101019.124356	8	0.011766	60	0	60-180	60	167	GapExp	0	232	2	3	0	distractor	1	449	776	360280	11.765	11.754	11.778
ProbeTrack12	5	ProbeTrack	11.3	WolfelabHowe	20101019.122125	20101019.124402	8	0.011766	60	10	60-180	60	122	GapExp	0	233	2	1	0	distractor	1	567	717	360997	11.765	11.752	11.779
ProbeTrack12	5	ProbeTrack	11.3	WolfelabHowe	20101019.122125	20101019.124408	8	0.011766	60	0	60-180	60	116	GapExp	0	234	2	3	0	distractor	1	462	769	361766	11.765	11.755	11.778
ProbeTrack12	5	ProbeTrack	11.3	WolfelabHowe	20101019.122125	20101019.124414	8	0.011766	60	0	60-180	60	150	GapExp	0	235	2	3	1	target	1	414	793	362559	11.765	11.753	11.777
ProbeTrack12	5	ProbeTrack	11.3	WolfelabHowe	20101019.122125	20101019.124419	8	0.011766	60	0	60-180	60	166	GapExp	0	236	2	3	1	target	1	356	822	363381	11.765	11.709	11.813
ProbeTrack12	5	ProbeTrack	11.3	WolfelabHowe	20101019.122125	20101019.124425	8	0.011766	60	0	60-180	60	116	GapExp	0	237	2	1	0	distractor	1	532	734	364115	11.765	11.716	11.813
ProbeTrack12	5	ProbeTrack	11.3	WolfelabHowe	20101019.122125	20101019.124431	8	0.011766	60	10	60-180	60	103	GapExp	0	238	2	0	1	target	1	402	799	364914	11.765	11.752	11.778
ProbeTrack12	5	ProbeTrack	11.3	WolfelabHowe	20101019.122125	20101019.124436	8	0.011766	60	0	60-180	60	121	GapExp	0	239	2	0	0	distractor	1	402	799	365713	11.765	11.752	11.778
ProbeTrack12	5	ProbeTrack	11.3	WolfelabHowe	20101019.122125	20101019.124442	8	0.011766	60	0	60-180	60	161	GapExp	0	240	2	1	0	distractor	1	438	781	366494	11.765	11.752	11.777
ProbeTrack12	5	ProbeTrack	11.3	WolfelabHowe	20101019.122125	20101019.124448	8	0.011766	60	0	60-180	60	135	GapExp	0	241	2	0	0	distractor	1	355	823	367317	11.765	11.754	11.778
ProbeTrack12	5	ProbeTrack	11.3	WolfelabHowe	20101019.122125	20101019.124453	8	0.011766	60	0	60-180	60	144	GapExp	0	242	2	1	0	distractor	1	508	746	368063	11.765	11.753	11.776
ProbeTrack12	5	ProbeTrack	11.3	WolfelabHowe	20101019.122125	20101019.124459	8	0.011766	60	10	60-180	60	73	GapExp	0	243	2	0	0	target	0	379	-1000	367063	11.765	11.728	11.806
ProbeTrack12	5	ProbeTrack	11.3	WolfelabHowe	20101019.122125	20101019.124504	8	0.011766	60	0	60-180	60	118	GapExp	0	244	2	0	1	target	1	414	793	367856	11.765	11.722	11.802
ProbeTrack12	5	ProbeTrack	11.3	WolfelabHowe	20101019.122125	20101019.124510	8	0.011766	60	0	60-180	60	119	GapExp	0	245	2	0	0	distractor	1	449	776	368632	11.765	11.749	11.781
ProbeTrack12	5	ProbeTrack	11.3	WolfelabHowe	20101019.122125	20101019.124515	8	0.011766	60	10	60-180	60	146	GapExp	0	246	2	1	1	target	1	544	728	369360	11.765	11.754	11.775
ProbeTrack12	5	ProbeTrack	11.3	WolfelabHowe	20101019.122125	20101019.124521	8	0.011766	60	0	60-180	60	164	GapExp	0	247	2	1	0	distractor	1	485	758	370118	11.765	11.730	11.793
ProbeTrack12	5	ProbeTrack	11.3	WolfelabHowe	20101019.122125	20101019.124527	8	0.011766	60	10	60-180	60	99	GapExp	0	248	2	45	1	target	1	426	787	370905	11.765	11.754	11.777
ProbeTrack12	5	ProbeTrack	11.3	WolfelabHowe	20101019.122125	20101019.124533	8	0.011766	60	0	60-180	60	124	GapExp	0	249	2	0	0	distractor	1	426	787	371692	11.765	11.753	11.780
ProbeTrack12	5	ProbeTrack	11.3	WolfelabHowe	20101019.122125	20101019.124539	8	0.011766	60	10	60-180	60	180	GapExp	0	250	2	0	1	target	1	449	776	372468	11.765	11.752	11.778
