exp	sub	code	rev	comp	runtime	trialtime	nstim	refreshdur	cuedur	gapdur	gapOnsetRange	durPostProbe	gapOnsetTime	blocktype	prac	trial	ntargets	soa	probeTarget	resp	acc	rt	pts	tpts	meanFrameDur	minFrameDur	maxFrameDur
ProbeTrack12	7	ProbeTrack	11.3	WolfelabSpurzheim	20101025.112103	20101025.112205	8	0.011766	60	0	60-180	60	157	NoGap	1	1	2	3	0	target	0	3625	-1000	-1000	11.885	11.752	23.533
ProbeTrack12	7	ProbeTrack	11.3	WolfelabSpurzheim	20101025.112103	20101025.112216	8	0.011766	60	0	60-180	60	114	NoGap	1	2	2	45	1	target	1	919	541	-459	11.765	11.754	11.775
ProbeTrack12	7	ProbeTrack	11.3	WolfelabSpurzheim	20101025.112103	20101025.112227	8	0.011766	60	0	60-180	60	101	NoGap	1	3	2	3	0	distractor	1	849	576	117	11.765	11.726	11.803
ProbeTrack12	7	ProbeTrack	11.3	WolfelabSpurzheim	20101025.112103	20101025.112240	8	0.011766	60	0	60-180	60	101	NoGap	1	4	2	45	1	target	1	285	858	975	11.765	11.707	11.816
ProbeTrack12	7	ProbeTrack	11.3	WolfelabSpurzheim	20101025.112103	20101025.112249	8	0.011766	60	0	60-180	60	174	NoGap	1	5	2	0	1	target	1	390	805	1780	11.765	11.754	11.775
ProbeTrack12	7	ProbeTrack	11.3	WolfelabSpurzheim	20101025.112103	20101025.112256	8	0.011766	60	0	60-180	60	83	NoGap	1	6	2	0	0	target	0	437	-1000	780	11.765	11.749	11.788
ProbeTrack12	7	ProbeTrack	11.3	WolfelabSpurzheim	20101025.112103	20101025.112302	8	0.011766	60	0	60-180	60	131	NoGap	1	7	2	0	0	distractor	1	708	646	1426	11.765	11.754	11.775
ProbeTrack12	7	ProbeTrack	11.3	WolfelabSpurzheim	20101025.112103	20101025.112315	8	0.011766	60	0	60-180	60	134	NoGap	1	8	2	1	0	target	0	320	-1000	426	11.765	11.755	11.776
ProbeTrack12	7	ProbeTrack	11.3	WolfelabSpurzheim	20101025.112103	20101025.112321	8	0.011766	60	0	60-180	60	63	NoGap	1	9	2	45	1	target	1	344	828	1254	11.765	11.754	11.776
ProbeTrack12	7	ProbeTrack	11.3	WolfelabSpurzheim	20101025.112103	20101025.112328	8	0.011766	60	0	60-180	60	120	NoGap	1	10	2	1	0	distractor	1	461	770	2024	11.765	11.754	11.775
ProbeTrack12	7	ProbeTrack	11.3	WolfelabSpurzheim	20101025.112103	20101025.112334	8	0.011766	60	0	60-180	60	111	NoGap	1	11	2	3	1	target	1	285	858	2882	11.765	11.754	11.777
ProbeTrack12	7	ProbeTrack	11.3	WolfelabSpurzheim	20101025.112103	20101025.112340	8	0.011766	60	0	60-180	60	67	NoGap	1	12	2	0	1	distractor	0	402	-1000	1882	11.765	11.754	11.777
ProbeTrack12	7	ProbeTrack	11.3	WolfelabSpurzheim	20101025.112103	20101025.112345	8	0.011766	60	0	60-180	60	139	NoGap	1	13	2	45	1	distractor	0	237	-1000	882	11.765	11.753	11.776
ProbeTrack12	7	ProbeTrack	11.3	WolfelabSpurzheim	20101025.112103	20101025.112352	8	0.011766	60	0	60-180	60	143	NoGap	1	14	2	0	1	target	1	402	799	1681	11.765	11.754	11.776
ProbeTrack12	7	ProbeTrack	11.3	WolfelabSpurzheim	20101025.112103	20101025.112358	8	0.011766	60	0	60-180	60	120	NoGap	1	15	2	3	0	target	0	343	-1000	681	11.765	11.754	11.776
ProbeTrack12	7	ProbeTrack	11.3	WolfelabSpurzheim	20101025.112103	20101025.112404	8	0.011766	60	0	60-180	60	95	NoGap	1	16	2	1	1	44	-3	402	-1000	-319	11.765	11.754	11.775
ProbeTrack12	7	ProbeTrack	11.3	WolfelabSpurzheim	20101025.112103	20101025.112410	8	0.011766	60	0	60-180	60	180	NoGap	1	17	2	3	1	distractor	0	414	-1000	-1319	11.765	11.754	11.778
ProbeTrack12	7	ProbeTrack	11.3	WolfelabSpurzheim	20101025.112103	20101025.112418	8	0.011766	60	0	60-180	60	101	NoGap	1	18	2	1	1	target	1	355	823	-496	11.765	11.728	11.802
ProbeTrack12	7	ProbeTrack	11.3	WolfelabSpurzheim	20101025.112103	20101025.112424	8	0.011766	60	0	60-180	60	176	NoGap	1	19	2	3	1	target	1	343	829	333	11.765	11.754	11.777
ProbeTrack12	7	ProbeTrack	11.3	WolfelabSpurzheim	20101025.112103	20101025.112430	8	0.011766	60	0	60-180	60	133	NoGap	1	20	2	0	0	44	-3	555	-1000	-667	11.765	11.755	11.776
ProbeTrack12	7	ProbeTrack	11.3	WolfelabSpurzheim	20101025.112103	20101025.112436	8	0.011766	60	0	60-180	60	83	NoGap	1	21	2	3	0	target	0	414	-1000	-1667	11.765	11.755	11.776
ProbeTrack12	7	ProbeTrack	11.3	WolfelabSpurzheim	20101025.112103	20101025.112442	8	0.011766	60	0	60-180	60	107	NoGap	1	22	2	1	1	target	1	344	828	-839	11.765	11.754	11.776
ProbeTrack12	7	ProbeTrack	11.3	WolfelabSpurzheim	20101025.112103	20101025.112448	8	0.011766	60	0	60-180	60	170	NoGap	1	23	2	45	0	distractor	1	708	646	-193	11.765	11.754	11.780
ProbeTrack12	7	ProbeTrack	11.3	WolfelabSpurzheim	20101025.112103	20101025.112456	8	0.011766	60	0	60-180	60	69	NoGap	1	24	2	0	1	target	1	343	829	636	11.765	11.755	11.775
ProbeTrack12	7	ProbeTrack	11.3	WolfelabSpurzheim	20101025.112103	20101025.112501	8	0.011766	60	0	60-180	60	169	NoGap	1	25	2	1	0	distractor	1	485	758	1394	11.765	11.754	11.776
ProbeTrack12	7	ProbeTrack	11.3	WolfelabSpurzheim	20101025.112103	20101025.112508	8	0.011766	60	0	60-180	60	66	NoGap	1	26	2	3	0	distractor	1	508	746	2140	11.765	11.755	11.776
ProbeTrack12	7	ProbeTrack	11.3	WolfelabSpurzheim	20101025.112103	20101025.112514	8	0.011766	60	0	60-180	60	62	NoGap	1	27	2	1	0	target	0	390	-1000	1140	11.765	11.754	11.775
ProbeTrack12	7	ProbeTrack	11.3	WolfelabSpurzheim	20101025.112103	20101025.112519	8	0.011766	60	0	60-180	60	84	NoGap	1	28	2	45	0	distractor	1	496	752	1892	11.765	11.753	11.776
ProbeTrack12	7	ProbeTrack	11.3	WolfelabSpurzheim	20101025.112103	20101025.112525	8	0.011766	60	0	60-180	60	107	NoGap	1	29	2	45	0	distractor	1	508	746	2638	11.765	11.755	11.776
ProbeTrack12	7	ProbeTrack	11.3	WolfelabSpurzheim	20101025.112103	20101025.112531	8	0.011766	60	0	60-180	60	71	NoGap	1	30	2	1	1	target	1	343	829	3467	11.765	11.754	11.775
ProbeTrack12	7	ProbeTrack	11.3	WolfelabSpurzheim	20101025.112103	20101025.112537	8	0.011766	60	0	60-180	60	133	NoGap	1	31	2	45	1	distractor	0	438	-1000	2467	11.765	11.754	11.777
ProbeTrack12	7	ProbeTrack	11.3	WolfelabSpurzheim	20101025.112103	20101025.112543	8	0.011766	60	0	60-180	60	82	NoGap	1	32	2	0	0	distractor	1	532	734	3201	11.765	11.754	11.776
ProbeTrack12	7	ProbeTrack	11.3	WolfelabSpurzheim	20101025.112103	20101025.112549	8	0.011766	60	0	60-180	60	120	NoGap	1	33	2	1	0	distractor	1	567	717	3918	11.765	11.755	11.776
ProbeTrack12	7	ProbeTrack	11.3	WolfelabSpurzheim	20101025.112103	20101025.112556	8	0.011766	60	0	60-180	60	124	NoGap	1	34	2	45	0	distractor	1	508	746	4664	11.765	11.749	11.782
ProbeTrack12	7	ProbeTrack	11.3	WolfelabSpurzheim	20101025.112103	20101025.112602	8	0.011766	60	0	60-180	60	134	NoGap	1	35	2	3	1	target	1	367	817	5481	11.765	11.753	11.776
ProbeTrack12	7	ProbeTrack	11.3	WolfelabSpurzheim	20101025.112103	20101025.112608	8	0.011766	60	0	60-180	60	105	NoGap	1	36	2	3	1	target	1	343	829	6310	11.765	11.754	11.777
ProbeTrack12	7	ProbeTrack	11.3	WolfelabSpurzheim	20101025.112103	20101025.112613	8	0.011766	60	0	60-180	60	71	NoGap	1	37	2	0	0	distractor	1	496	752	7062	11.765	11.754	11.777
ProbeTrack12	7	ProbeTrack	11.3	WolfelabSpurzheim	20101025.112103	20101025.112618	8	0.011766	60	0	60-180	60	161	NoGap	1	38	2	1	1	target	1	461	770	7832	11.765	11.755	11.775
ProbeTrack12	7	ProbeTrack	11.3	WolfelabSpurzheim	20101025.112103	20101025.112624	8	0.011766	60	0	60-180	60	116	NoGap	1	39	2	0	1	target	1	485	758	8590	11.765	11.754	11.776
ProbeTrack12	7	ProbeTrack	11.3	WolfelabSpurzheim	20101025.112103	20101025.112630	8	0.011766	60	0	60-180	60	138	NoGap	1	40	2	45	0	distractor	1	508	746	9336	11.765	11.753	11.776
ProbeTrack12	7	ProbeTrack	11.3	WolfelabSpurzheim	20101025.112714	20101025.112744	8	0.011765	60	10	60-180	60	87	GapPrac	1	1	2	1	1	target	1	202	899	10235	11.888	11.753	11.776
ProbeTrack12	7	ProbeTrack	11.3	WolfelabSpurzheim	20101025.112714	20101025.112752	8	0.011765	60	0	60-180	60	158	GapPrac	1	2	2	1	1	target	1	273	864	11099	11.901	11.755	23.532
ProbeTrack12	7	ProbeTrack	11.3	WolfelabSpurzheim	20101025.112714	20101025.112758	8	0.011765	60	0	60-180	60	135	GapPrac	1	3	2	1	0	distractor	1	543	729	11828	11.765	11.755	11.777
ProbeTrack12	7	ProbeTrack	11.3	WolfelabSpurzheim	20101025.112714	20101025.112805	8	0.011765	60	0	60-180	60	104	GapPrac	1	4	2	3	1	target	1	320	840	12668	11.765	11.754	11.776
ProbeTrack12	7	ProbeTrack	11.3	WolfelabSpurzheim	20101025.112714	20101025.112811	8	0.011765	60	10	60-180	60	132	GapPrac	1	5	2	1	1	distractor	0	344	-1000	11668	11.765	11.754	11.776
ProbeTrack12	7	ProbeTrack	11.3	WolfelabSpurzheim	20101025.112714	20101025.112817	8	0.011765	60	0	60-180	60	86	GapPrac	1	6	2	1	1	target	1	520	740	12408	11.765	11.752	11.777
ProbeTrack12	7	ProbeTrack	11.3	WolfelabSpurzheim	20101025.112714	20101025.112822	8	0.011765	60	0	60-180	60	139	GapPrac	1	7	2	1	0	distractor	1	508	746	13154	11.765	11.715	11.815
ProbeTrack12	7	ProbeTrack	11.3	WolfelabSpurzheim	20101025.112714	20101025.112828	8	0.011765	60	0	60-180	60	165	GapPrac	1	8	2	3	1	target	1	379	811	13965	11.765	11.754	11.777
ProbeTrack12	7	ProbeTrack	11.3	WolfelabSpurzheim	20101025.112714	20101025.112835	8	0.011765	60	10	60-180	60	178	GapPrac	1	9	2	3	1	target	1	332	834	14799	11.765	11.754	11.775
ProbeTrack12	7	ProbeTrack	11.3	WolfelabSpurzheim	20101025.112714	20101025.112841	8	0.011765	60	0	60-180	60	144	GapPrac	1	10	2	45	0	distractor	1	509	746	15545	11.765	11.753	11.775
ProbeTrack12	7	ProbeTrack	11.3	WolfelabSpurzheim	20101025.112714	20101025.112847	8	0.011765	60	10	60-180	60	127	GapPrac	1	11	2	45	0	distractor	1	567	717	16262	11.765	11.755	11.778
ProbeTrack12	7	ProbeTrack	11.3	WolfelabSpurzheim	20101025.112714	20101025.112854	8	0.011765	60	0	60-180	60	156	GapPrac	1	12	2	0	1	target	1	308	846	17108	11.765	11.754	11.777
ProbeTrack12	7	ProbeTrack	11.3	WolfelabSpurzheim	20101025.112714	20101025.112901	8	0.011765	60	10	60-180	60	149	GapPrac	1	13	2	1	0	target	0	356	-1000	16108	11.765	11.755	11.776
ProbeTrack12	7	ProbeTrack	11.3	WolfelabSpurzheim	20101025.112714	20101025.112907	8	0.011765	60	10	60-180	60	79	GapPrac	1	14	2	45	1	target	1	508	746	16854	11.765	11.754	11.774
ProbeTrack12	7	ProbeTrack	11.3	WolfelabSpurzheim	20101025.112714	20101025.112913	8	0.011765	60	10	60-180	60	168	GapPrac	1	15	2	0	1	distractor	0	379	-1000	15854	11.765	11.754	11.776
ProbeTrack12	7	ProbeTrack	11.3	WolfelabSpurzheim	20101025.112714	20101025.112919	8	0.011765	60	0	60-180	60	167	GapPrac	1	16	2	3	0	distractor	1	614	693	16547	11.765	11.753	11.775
ProbeTrack12	7	ProbeTrack	11.3	WolfelabSpurzheim	20101025.112714	20101025.112927	8	0.011765	60	0	60-180	60	137	GapPrac	1	17	2	0	0	distractor	1	543	729	17276	11.765	11.754	11.777
ProbeTrack12	7	ProbeTrack	11.3	WolfelabSpurzheim	20101025.112714	20101025.112933	8	0.011765	60	10	60-180	60	105	GapPrac	1	18	2	0	0	target	0	355	-1000	16276	11.765	11.754	11.778
ProbeTrack12	7	ProbeTrack	11.3	WolfelabSpurzheim	20101025.112714	20101025.112938	8	0.011765	60	10	60-180	60	134	GapPrac	1	19	2	3	0	distractor	1	414	793	17069	11.765	11.754	11.776
ProbeTrack12	7	ProbeTrack	11.3	WolfelabSpurzheim	20101025.112714	20101025.112946	8	0.011765	60	0	60-180	60	67	GapPrac	1	20	2	45	1	target	1	367	817	17886	11.765	11.754	11.777
ProbeTrack12	7	ProbeTrack	11.3	WolfelabSpurzheim	20101025.113107	20101025.113117	8	0.011766	60	10	60-180	60	86	GapExp	1	1	2	3	1	target	1	308	846	18732	11.882	11.753	11.777
ProbeTrack12	7	ProbeTrack	11.3	WolfelabSpurzheim	20101025.113107	20101025.113124	8	0.011766	60	0	60-180	60	163	GapExp	1	2	2	3	0	distractor	1	626	687	19419	11.884	11.753	23.527
ProbeTrack12	7	ProbeTrack	11.3	WolfelabSpurzheim	20101025.113107	20101025.113131	8	0.011766	60	0	60-180	60	64	GapExp	1	3	2	3	1	target	1	367	817	20236	11.765	11.754	11.775
ProbeTrack12	7	ProbeTrack	11.3	WolfelabSpurzheim	20101025.113107	20101025.113140	8	0.011766	60	10	60-180	60	119	GapExp	1	4	2	45	1	target	1	461	770	21006	11.765	11.737	11.793
ProbeTrack12	7	ProbeTrack	11.3	WolfelabSpurzheim	20101025.113107	20101025.113146	8	0.011766	60	10	60-180	60	98	GapExp	1	5	2	0	0	distractor	1	579	711	21717	11.765	11.754	11.777
ProbeTrack12	7	ProbeTrack	11.3	WolfelabSpurzheim	20101025.113107	20101025.113152	8	0.011766	60	0	60-180	60	174	GapExp	1	6	2	45	0	distractor	1	543	729	22446	11.765	11.754	11.778
ProbeTrack12	7	ProbeTrack	11.3	WolfelabSpurzheim	20101025.113107	20101025.113159	8	0.011766	60	10	60-180	60	133	GapExp	1	7	2	3	0	distractor	1	673	664	23110	11.765	11.755	11.775
ProbeTrack12	7	ProbeTrack	11.3	WolfelabSpurzheim	20101025.113107	20101025.113206	8	0.011766	60	10	60-180	60	169	GapExp	1	8	2	45	0	distractor	1	943	529	23639	11.765	11.753	11.777
ProbeTrack12	7	ProbeTrack	11.3	WolfelabSpurzheim	20101025.113107	20101025.113214	8	0.011766	60	0	60-180	60	118	GapExp	1	9	2	0	0	distractor	1	637	682	24321	11.765	11.754	11.776
ProbeTrack12	7	ProbeTrack	11.3	WolfelabSpurzheim	20101025.113107	20101025.113223	8	0.011766	60	10	60-180	60	136	GapExp	1	10	2	1	1	target	1	766	617	24938	11.765	11.753	11.775
ProbeTrack12	7	ProbeTrack	11.3	WolfelabSpurzheim	20101025.113107	20101025.113230	8	0.011766	60	0	60-180	60	158	GapExp	0	11	2	3	0	distractor	1	532	734	25672	11.765	11.754	11.776
ProbeTrack12	7	ProbeTrack	11.3	WolfelabSpurzheim	20101025.113107	20101025.113237	8	0.011766	60	0	60-180	60	70	GapExp	0	12	2	0	0	distractor	1	602	699	26371	11.765	11.754	11.776
ProbeTrack12	7	ProbeTrack	11.3	WolfelabSpurzheim	20101025.113107	20101025.113242	8	0.011766	60	10	60-180	60	114	GapExp	0	13	2	1	1	distractor	0	591	-1000	25371	11.765	11.754	11.776
ProbeTrack12	7	ProbeTrack	11.3	WolfelabSpurzheim	20101025.113107	20101025.113249	8	0.011766	60	10	60-180	60	130	GapExp	0	14	2	45	1	target	1	625	688	26059	11.765	11.755	11.776
ProbeTrack12	7	ProbeTrack	11.3	WolfelabSpurzheim	20101025.113107	20101025.113255	8	0.011766	60	10	60-180	60	69	GapExp	0	15	2	3	0	distractor	1	708	646	26705	11.765	11.755	11.775
ProbeTrack12	7	ProbeTrack	11.3	WolfelabSpurzheim	20101025.113107	20101025.113303	8	0.011766	60	0	60-180	60	75	GapExp	0	16	2	3	1	distractor	0	591	-1000	25705	11.765	11.754	11.781
ProbeTrack12	7	ProbeTrack	11.3	WolfelabSpurzheim	20101025.113107	20101025.113309	8	0.011766	60	0	60-180	60	67	GapExp	0	17	2	45	1	target	1	426	787	26492	11.765	11.754	11.775
ProbeTrack12	7	ProbeTrack	11.3	WolfelabSpurzheim	20101025.113107	20101025.113314	8	0.011766	60	10	60-180	60	114	GapExp	0	18	2	45	0	distractor	1	626	687	27179	11.765	11.753	11.776
ProbeTrack12	7	ProbeTrack	11.3	WolfelabSpurzheim	20101025.113107	20101025.113321	8	0.011766	60	10	60-180	60	162	GapExp	0	19	2	45	0	distractor	1	778	611	27790	11.765	11.754	11.776
ProbeTrack12	7	ProbeTrack	11.3	WolfelabSpurzheim	20101025.113107	20101025.113329	8	0.011766	60	10	60-180	60	76	GapExp	0	20	2	45	1	target	1	590	705	28495	11.765	11.754	11.776
ProbeTrack12	7	ProbeTrack	11.3	WolfelabSpurzheim	20101025.113107	20101025.113336	8	0.011766	60	0	60-180	60	87	GapExp	0	21	2	45	1	target	1	391	805	29300	11.765	11.755	11.777
ProbeTrack12	7	ProbeTrack	11.3	WolfelabSpurzheim	20101025.113107	20101025.113342	8	0.011766	60	10	60-180	60	83	GapExp	0	22	2	0	0	distractor	1	543	729	30029	11.765	11.753	11.775
ProbeTrack12	7	ProbeTrack	11.3	WolfelabSpurzheim	20101025.113107	20101025.113347	8	0.011766	60	0	60-180	60	62	GapExp	0	23	2	3	0	distractor	1	661	670	30699	11.765	11.754	11.777
ProbeTrack12	7	ProbeTrack	11.3	WolfelabSpurzheim	20101025.113107	20101025.113353	8	0.011766	60	10	60-180	60	87	GapExp	0	24	2	1	1	target	1	4225	0	30699	11.765	11.754	11.776
ProbeTrack12	7	ProbeTrack	11.3	WolfelabSpurzheim	20101025.113107	20101025.113402	8	0.011766	60	10	60-180	60	132	GapExp	0	25	2	0	0	distractor	1	426	787	31486	11.765	11.753	11.776
ProbeTrack12	7	ProbeTrack	11.3	WolfelabSpurzheim	20101025.113107	20101025.113410	8	0.011766	60	10	60-180	60	76	GapExp	0	26	2	45	1	target	1	532	734	32220	11.765	11.755	11.775
ProbeTrack12	7	ProbeTrack	11.3	WolfelabSpurzheim	20101025.113107	20101025.113416	8	0.011766	60	0	60-180	60	94	GapExp	0	27	2	45	0	target	0	543	-1000	31220	11.765	11.754	11.777
ProbeTrack12	7	ProbeTrack	11.3	WolfelabSpurzheim	20101025.113107	20101025.113426	8	0.011766	60	10	60-180	60	148	GapExp	0	28	2	1	0	distractor	1	567	717	31937	11.765	11.754	11.776
ProbeTrack12	7	ProbeTrack	11.3	WolfelabSpurzheim	20101025.113107	20101025.113432	8	0.011766	60	10	60-180	60	162	GapExp	0	29	2	0	1	target	1	508	746	32683	11.765	11.753	11.777
ProbeTrack12	7	ProbeTrack	11.3	WolfelabSpurzheim	20101025.113107	20101025.113439	8	0.011766	60	10	60-180	60	92	GapExp	0	30	2	45	0	target	0	1602	-1000	31683	11.765	11.754	11.777
ProbeTrack12	7	ProbeTrack	11.3	WolfelabSpurzheim	20101025.113107	20101025.113447	8	0.011766	60	0	60-180	60	73	GapExp	0	31	2	3	1	target	1	555	723	32406	11.765	11.754	11.777
ProbeTrack12	7	ProbeTrack	11.3	WolfelabSpurzheim	20101025.113107	20101025.113452	8	0.011766	60	10	60-180	60	145	GapExp	0	32	2	0	0	distractor	1	1366	317	32723	11.765	11.754	11.777
ProbeTrack12	7	ProbeTrack	11.3	WolfelabSpurzheim	20101025.113107	20101025.113500	8	0.011766	60	0	60-180	60	66	GapExp	0	33	2	45	0	distractor	1	743	629	33352	11.765	11.754	11.776
ProbeTrack12	7	ProbeTrack	11.3	WolfelabSpurzheim	20101025.113107	20101025.113506	8	0.011766	60	0	60-180	60	151	GapExp	0	34	2	45	1	target	1	449	776	34128	11.765	11.753	11.776
ProbeTrack12	7	ProbeTrack	11.3	WolfelabSpurzheim	20101025.113107	20101025.113515	8	0.011766	60	10	60-180	60	80	GapExp	0	35	2	0	0	distractor	1	685	658	34786	11.765	11.754	11.777
ProbeTrack12	7	ProbeTrack	11.3	WolfelabSpurzheim	20101025.113107	20101025.113521	8	0.011766	60	10	60-180	60	177	GapExp	0	36	2	1	1	target	1	379	811	35597	11.765	11.754	11.777
ProbeTrack12	7	ProbeTrack	11.3	WolfelabSpurzheim	20101025.113107	20101025.113528	8	0.011766	60	10	60-180	60	63	GapExp	0	37	2	0	1	target	1	520	740	36337	11.765	11.753	11.777
ProbeTrack12	7	ProbeTrack	11.3	WolfelabSpurzheim	20101025.113107	20101025.113533	8	0.011766	60	10	60-180	60	104	GapExp	0	38	2	45	1	target	1	638	681	37018	11.765	11.754	11.776
ProbeTrack12	7	ProbeTrack	11.3	WolfelabSpurzheim	20101025.113107	20101025.113540	8	0.011766	60	10	60-180	60	171	GapExp	0	39	2	1	1	target	1	426	787	37805	11.765	11.754	11.777
ProbeTrack12	7	ProbeTrack	11.3	WolfelabSpurzheim	20101025.113107	20101025.113547	8	0.011766	60	10	60-180	60	164	GapExp	0	40	2	45	0	distractor	1	637	682	38487	11.765	11.754	11.777
ProbeTrack12	7	ProbeTrack	11.3	WolfelabSpurzheim	20101025.113107	20101025.113555	8	0.011766	60	0	60-180	60	89	GapExp	0	41	2	3	0	distractor	1	755	623	39110	11.765	11.754	11.776
ProbeTrack12	7	ProbeTrack	11.3	WolfelabSpurzheim	20101025.113107	20101025.113601	8	0.011766	60	10	60-180	60	118	GapExp	0	42	2	1	1	target	1	602	699	39809	11.765	11.754	11.775
ProbeTrack12	7	ProbeTrack	11.3	WolfelabSpurzheim	20101025.113107	20101025.113607	8	0.011766	60	0	60-180	60	141	GapExp	0	43	2	0	1	target	1	379	811	40620	11.765	11.756	11.776
ProbeTrack12	7	ProbeTrack	11.3	WolfelabSpurzheim	20101025.113107	20101025.113613	8	0.011766	60	0	60-180	60	65	GapExp	0	44	2	0	1	target	1	579	711	41331	11.765	11.753	11.777
ProbeTrack12	7	ProbeTrack	11.3	WolfelabSpurzheim	20101025.113107	20101025.113619	8	0.011766	60	10	60-180	60	83	GapExp	0	45	2	1	0	target	0	696	-1000	40331	11.765	11.753	11.775
ProbeTrack12	7	ProbeTrack	11.3	WolfelabSpurzheim	20101025.113107	20101025.113624	8	0.011766	60	10	60-180	60	145	GapExp	0	46	2	0	0	distractor	1	614	693	41024	11.765	11.754	11.777
ProbeTrack12	7	ProbeTrack	11.3	WolfelabSpurzheim	20101025.113107	20101025.113630	8	0.011766	60	0	60-180	60	130	GapExp	0	47	2	3	0	distractor	1	743	629	41653	11.765	11.755	11.776
ProbeTrack12	7	ProbeTrack	11.3	WolfelabSpurzheim	20101025.113107	20101025.113637	8	0.011766	60	10	60-180	60	87	GapExp	0	48	2	0	1	target	1	520	740	42393	11.765	11.754	11.776
ProbeTrack12	7	ProbeTrack	11.3	WolfelabSpurzheim	20101025.113107	20101025.113642	8	0.011766	60	10	60-180	60	143	GapExp	0	49	2	1	0	distractor	1	649	676	43069	11.765	11.753	11.776
ProbeTrack12	7	ProbeTrack	11.3	WolfelabSpurzheim	20101025.113107	20101025.113649	8	0.011766	60	10	60-180	60	151	GapExp	0	50	2	3	1	target	1	778	611	43680	11.765	11.741	11.781
ProbeTrack12	7	ProbeTrack	11.3	WolfelabSpurzheim	20101025.113107	20101025.113655	8	0.011766	60	0	60-180	60	81	GapExp	0	51	2	0	0	distractor	1	661	670	44350	11.765	11.753	11.777
ProbeTrack12	7	ProbeTrack	11.3	WolfelabSpurzheim	20101025.113107	20101025.113702	8	0.011766	60	0	60-180	60	101	GapExp	0	52	2	0	0	target	0	567	-1000	43350	11.765	11.754	11.776
ProbeTrack12	7	ProbeTrack	11.3	WolfelabSpurzheim	20101025.113107	20101025.113708	8	0.011766	60	0	60-180	60	97	GapExp	0	53	2	1	0	distractor	1	790	605	43955	11.765	11.753	11.778
ProbeTrack12	7	ProbeTrack	11.3	WolfelabSpurzheim	20101025.113107	20101025.113713	8	0.011766	60	10	60-180	60	175	GapExp	0	54	2	1	1	target	1	778	611	44566	11.765	11.754	11.776
ProbeTrack12	7	ProbeTrack	11.3	WolfelabSpurzheim	20101025.113107	20101025.113720	8	0.011766	60	10	60-180	60	126	GapExp	0	55	2	3	0	distractor	1	567	717	45283	11.765	11.754	11.776
ProbeTrack12	7	ProbeTrack	11.3	WolfelabSpurzheim	20101025.113107	20101025.113726	8	0.011766	60	0	60-180	60	150	GapExp	0	56	2	3	1	target	1	637	682	45965	11.765	11.753	11.776
ProbeTrack12	7	ProbeTrack	11.3	WolfelabSpurzheim	20101025.113107	20101025.113734	8	0.011766	60	0	60-180	60	122	GapExp	0	57	2	0	1	target	1	579	711	46676	11.765	11.754	11.776
ProbeTrack12	7	ProbeTrack	11.3	WolfelabSpurzheim	20101025.113107	20101025.113740	8	0.011766	60	0	60-180	60	142	GapExp	0	58	2	0	0	distractor	1	637	682	47358	11.765	11.754	11.778
ProbeTrack12	7	ProbeTrack	11.3	WolfelabSpurzheim	20101025.113107	20101025.113746	8	0.011766	60	10	60-180	60	74	GapExp	0	59	2	45	0	distractor	1	661	670	48028	11.765	11.753	11.777
ProbeTrack12	7	ProbeTrack	11.3	WolfelabSpurzheim	20101025.113107	20101025.113752	8	0.011766	60	10	60-180	60	77	GapExp	0	60	2	3	0	distractor	1	955	523	48551	11.765	11.731	11.791
ProbeTrack12	7	ProbeTrack	11.3	WolfelabSpurzheim	20101025.113107	20101025.113758	8	0.011766	60	10	60-180	60	87	GapExp	0	61	2	45	0	distractor	1	719	641	49192	11.765	11.753	11.776
ProbeTrack12	7	ProbeTrack	11.3	WolfelabSpurzheim	20101025.113107	20101025.113805	8	0.011766	60	0	60-180	60	75	GapExp	0	62	2	1	0	distractor	1	673	664	49856	11.765	11.753	11.777
ProbeTrack12	7	ProbeTrack	11.3	WolfelabSpurzheim	20101025.113107	20101025.113811	8	0.011766	60	0	60-180	60	171	GapExp	0	63	2	0	1	target	1	437	782	50638	11.765	11.755	11.776
ProbeTrack12	7	ProbeTrack	11.3	WolfelabSpurzheim	20101025.113107	20101025.113817	8	0.011766	60	10	60-180	60	84	GapExp	0	64	2	0	1	target	1	614	693	51331	11.765	11.754	11.775
ProbeTrack12	7	ProbeTrack	11.3	WolfelabSpurzheim	20101025.113107	20101025.113823	8	0.011766	60	10	60-180	60	116	GapExp	0	65	2	0	1	target	1	543	729	52060	11.765	11.752	11.776
ProbeTrack12	7	ProbeTrack	11.3	WolfelabSpurzheim	20101025.113107	20101025.113829	8	0.011766	60	0	60-180	60	179	GapExp	0	66	2	0	1	target	1	637	682	52742	11.765	11.727	11.799
ProbeTrack12	7	ProbeTrack	11.3	WolfelabSpurzheim	20101025.113107	20101025.113836	8	0.011766	60	10	60-180	60	69	GapExp	0	67	2	45	0	target	0	2273	-1000	51742	11.765	11.743	11.790
ProbeTrack12	7	ProbeTrack	11.3	WolfelabSpurzheim	20101025.113107	20101025.113843	8	0.011766	60	0	60-180	60	80	GapExp	0	68	2	1	1	target	1	496	752	52494	11.765	11.736	11.797
ProbeTrack12	7	ProbeTrack	11.3	WolfelabSpurzheim	20101025.113107	20101025.113849	8	0.011766	60	10	60-180	60	121	GapExp	0	69	2	0	0	distractor	1	602	699	53193	11.765	11.755	11.776
ProbeTrack12	7	ProbeTrack	11.3	WolfelabSpurzheim	20101025.113107	20101025.113856	8	0.011766	60	0	60-180	60	180	GapExp	0	70	2	1	0	distractor	1	708	646	53839	11.765	11.754	11.777
ProbeTrack12	7	ProbeTrack	11.3	WolfelabSpurzheim	20101025.113107	20101025.113903	8	0.011766	60	0	60-180	60	179	GapExp	0	71	2	1	1	target	1	414	793	54632	11.765	11.753	11.777
ProbeTrack12	7	ProbeTrack	11.3	WolfelabSpurzheim	20101025.113107	20101025.113909	8	0.011766	60	10	60-180	60	69	GapExp	0	72	2	0	1	target	1	414	793	55425	11.765	11.754	11.776
ProbeTrack12	7	ProbeTrack	11.3	WolfelabSpurzheim	20101025.113107	20101025.113915	8	0.011766	60	0	60-180	60	155	GapExp	0	73	2	1	1	target	1	344	828	56253	11.765	11.753	11.776
ProbeTrack12	7	ProbeTrack	11.3	WolfelabSpurzheim	20101025.113107	20101025.113921	8	0.011766	60	0	60-180	60	142	GapExp	0	74	2	3	1	distractor	0	520	-1000	55253	11.765	11.755	11.776
ProbeTrack12	7	ProbeTrack	11.3	WolfelabSpurzheim	20101025.113107	20101025.113927	8	0.011766	60	0	60-180	60	123	GapExp	0	75	2	3	0	distractor	1	661	670	55923	11.765	11.753	11.777
ProbeTrack12	7	ProbeTrack	11.3	WolfelabSpurzheim	20101025.113107	20101025.113933	8	0.011766	60	0	60-180	60	152	GapExp	0	76	2	45	1	target	1	343	829	56752	11.765	11.753	11.776
ProbeTrack12	7	ProbeTrack	11.3	WolfelabSpurzheim	20101025.113107	20101025.113940	8	0.011766	60	10	60-180	60	98	GapExp	0	77	2	1	0	distractor	1	567	717	57469	11.765	11.754	11.778
ProbeTrack12	7	ProbeTrack	11.3	WolfelabSpurzheim	20101025.113107	20101025.113946	8	0.011766	60	0	60-180	60	131	GapExp	0	78	2	45	1	target	1	344	828	58297	11.765	11.754	11.776
ProbeTrack12	7	ProbeTrack	11.3	WolfelabSpurzheim	20101025.113107	20101025.113953	8	0.011766	60	0	60-180	60	115	GapExp	0	79	2	3	0	distractor	1	614	693	58990	11.765	11.754	11.777
ProbeTrack12	7	ProbeTrack	11.3	WolfelabSpurzheim	20101025.113107	20101025.114000	8	0.011766	60	0	60-180	60	134	GapExp	0	80	2	3	0	distractor	1	602	699	59689	11.765	11.754	11.777
ProbeTrack12	7	ProbeTrack	11.3	WolfelabSpurzheim	20101025.113107	20101025.114007	8	0.011766	60	0	60-180	60	90	GapExp	0	81	2	45	0	distractor	1	544	728	60417	11.765	11.736	11.792
ProbeTrack12	7	ProbeTrack	11.3	WolfelabSpurzheim	20101025.113107	20101025.114013	8	0.011766	60	0	60-180	60	90	GapExp	0	82	2	45	0	distractor	1	591	705	61122	11.765	11.755	11.777
ProbeTrack12	7	ProbeTrack	11.3	WolfelabSpurzheim	20101025.113107	20101025.114020	8	0.011766	60	10	60-180	60	127	GapExp	0	83	2	3	1	target	1	450	775	61897	11.765	11.754	11.777
ProbeTrack12	7	ProbeTrack	11.3	WolfelabSpurzheim	20101025.113107	20101025.114026	8	0.011766	60	0	60-180	60	112	GapExp	0	84	2	1	1	target	1	438	781	62678	11.765	11.753	11.775
ProbeTrack12	7	ProbeTrack	11.3	WolfelabSpurzheim	20101025.113107	20101025.114032	8	0.011766	60	10	60-180	60	97	GapExp	0	85	2	0	0	distractor	1	532	734	63412	11.765	11.754	11.777
ProbeTrack12	7	ProbeTrack	11.3	WolfelabSpurzheim	20101025.113107	20101025.114038	8	0.011766	60	0	60-180	60	147	GapExp	0	86	2	1	0	distractor	1	590	705	64117	11.765	11.754	11.779
ProbeTrack12	7	ProbeTrack	11.3	WolfelabSpurzheim	20101025.113107	20101025.114044	8	0.011766	60	0	60-180	60	104	GapExp	0	87	2	0	0	distractor	1	567	717	64834	11.765	11.742	11.788
ProbeTrack12	7	ProbeTrack	11.3	WolfelabSpurzheim	20101025.113107	20101025.114050	8	0.011766	60	0	60-180	60	69	GapExp	0	88	2	3	0	distractor	1	614	693	65527	11.765	11.754	11.777
ProbeTrack12	7	ProbeTrack	11.3	WolfelabSpurzheim	20101025.113107	20101025.114055	8	0.011766	60	10	60-180	60	88	GapExp	0	89	2	0	1	target	1	379	811	66338	11.765	11.755	11.776
ProbeTrack12	7	ProbeTrack	11.3	WolfelabSpurzheim	20101025.113107	20101025.114101	8	0.011766	60	10	60-180	60	162	GapExp	0	90	2	1	0	distractor	1	520	740	67078	11.765	11.754	11.775
ProbeTrack12	7	ProbeTrack	11.3	WolfelabSpurzheim	20101025.113107	20101025.114107	8	0.011766	60	0	60-180	60	129	GapExp	0	91	2	1	0	distractor	1	508	746	67824	11.765	11.754	11.776
ProbeTrack12	7	ProbeTrack	11.3	WolfelabSpurzheim	20101025.113107	20101025.114113	8	0.011766	60	10	60-180	60	109	GapExp	0	92	2	3	0	distractor	1	532	734	68558	11.765	11.755	11.776
ProbeTrack12	7	ProbeTrack	11.3	WolfelabSpurzheim	20101025.113107	20101025.114119	8	0.011766	60	0	60-180	60	166	GapExp	0	93	2	1	0	distractor	1	544	728	69286	11.765	11.754	11.775
ProbeTrack12	7	ProbeTrack	11.3	WolfelabSpurzheim	20101025.113107	20101025.114126	8	0.011766	60	10	60-180	60	130	GapExp	0	94	2	1	1	target	1	567	717	70003	11.765	11.754	11.775
ProbeTrack12	7	ProbeTrack	11.3	WolfelabSpurzheim	20101025.113107	20101025.114132	8	0.011766	60	10	60-180	60	180	GapExp	0	95	2	45	1	target	1	473	764	70767	11.765	11.753	11.777
ProbeTrack12	7	ProbeTrack	11.3	WolfelabSpurzheim	20101025.113107	20101025.114139	8	0.011766	60	10	60-180	60	158	GapExp	0	96	2	0	0	distractor	1	532	734	71501	11.765	11.754	11.775
ProbeTrack12	7	ProbeTrack	11.3	WolfelabSpurzheim	20101025.113107	20101025.114146	8	0.011766	60	0	60-180	60	87	GapExp	0	97	2	1	1	target	1	591	705	72206	11.765	11.754	11.776
ProbeTrack12	7	ProbeTrack	11.3	WolfelabSpurzheim	20101025.113107	20101025.114151	8	0.011766	60	10	60-180	60	160	GapExp	0	98	2	45	1	target	1	449	776	72982	11.765	11.754	11.777
ProbeTrack12	7	ProbeTrack	11.3	WolfelabSpurzheim	20101025.113107	20101025.114158	8	0.011766	60	0	60-180	60	144	GapExp	0	99	2	0	0	distractor	1	567	717	73699	11.765	11.755	11.776
ProbeTrack12	7	ProbeTrack	11.3	WolfelabSpurzheim	20101025.113107	20101025.114205	8	0.011766	60	0	60-180	60	172	GapExp	0	100	2	0	0	distractor	1	626	687	74386	11.765	11.754	11.776
ProbeTrack12	7	ProbeTrack	11.3	WolfelabSpurzheim	20101025.113107	20101025.114211	8	0.011766	60	10	60-180	60	143	GapExp	0	101	2	0	1	target	1	284	858	75244	11.765	11.754	11.776
ProbeTrack12	7	ProbeTrack	11.3	WolfelabSpurzheim	20101025.113107	20101025.114217	8	0.011766	60	0	60-180	60	72	GapExp	0	102	2	1	1	target	1	437	782	76026	11.765	11.755	11.775
ProbeTrack12	7	ProbeTrack	11.3	WolfelabSpurzheim	20101025.113107	20101025.114222	8	0.011766	60	10	60-180	60	146	GapExp	0	103	2	3	1	target	1	461	770	76796	11.765	11.755	11.776
ProbeTrack12	7	ProbeTrack	11.3	WolfelabSpurzheim	20101025.113107	20101025.114228	8	0.011766	60	10	60-180	60	82	GapExp	0	104	2	3	0	distractor	1	367	817	77613	11.765	11.754	11.776
ProbeTrack12	7	ProbeTrack	11.3	WolfelabSpurzheim	20101025.113107	20101025.114234	8	0.011766	60	10	60-180	60	180	GapExp	0	105	2	1	0	distractor	1	438	781	78394	11.765	11.725	11.813
ProbeTrack12	7	ProbeTrack	11.3	WolfelabSpurzheim	20101025.113107	20101025.114241	8	0.011766	60	10	60-180	60	121	GapExp	0	106	2	0	1	target	1	473	764	79158	11.765	11.754	11.777
ProbeTrack12	7	ProbeTrack	11.3	WolfelabSpurzheim	20101025.113107	20101025.114246	8	0.011766	60	0	60-180	60	131	GapExp	0	107	2	45	0	distractor	1	591	705	79863	11.765	11.754	11.775
ProbeTrack12	7	ProbeTrack	11.3	WolfelabSpurzheim	20101025.113107	20101025.114253	8	0.011766	60	0	60-180	60	113	GapExp	0	108	2	45	0	distractor	1	555	723	80586	11.765	11.731	11.801
ProbeTrack12	7	ProbeTrack	11.3	WolfelabSpurzheim	20101025.113107	20101025.114300	8	0.011766	60	0	60-180	60	142	GapExp	0	109	2	3	1	target	1	308	846	81432	11.765	11.755	11.777
ProbeTrack12	7	ProbeTrack	11.3	WolfelabSpurzheim	20101025.113107	20101025.114305	8	0.011766	60	10	60-180	60	149	GapExp	0	110	2	3	1	target	1	355	823	82255	11.765	11.754	11.776
ProbeTrack12	7	ProbeTrack	11.3	WolfelabSpurzheim	20101025.113107	20101025.114312	8	0.011766	60	0	60-180	60	171	GapExp	0	111	2	0	1	target	1	496	752	83007	11.765	11.754	11.775
ProbeTrack12	7	ProbeTrack	11.3	WolfelabSpurzheim	20101025.113107	20101025.114319	8	0.011766	60	10	60-180	60	100	GapExp	0	112	2	1	1	target	1	414	793	83800	11.765	11.753	11.777
ProbeTrack12	7	ProbeTrack	11.3	WolfelabSpurzheim	20101025.113107	20101025.114324	8	0.011766	60	0	60-180	60	98	GapExp	0	113	2	45	0	distractor	1	579	711	84511	11.765	11.754	11.775
ProbeTrack12	7	ProbeTrack	11.3	WolfelabSpurzheim	20101025.113107	20101025.114330	8	0.011766	60	0	60-180	60	159	GapExp	0	114	2	0	1	target	1	379	811	85322	11.765	11.754	11.777
ProbeTrack12	7	ProbeTrack	11.3	WolfelabSpurzheim	20101025.113107	20101025.114337	8	0.011766	60	0	60-180	60	159	GapExp	0	115	2	0	0	distractor	1	544	728	86050	11.765	11.754	11.777
ProbeTrack12	7	ProbeTrack	11.3	WolfelabSpurzheim	20101025.113107	20101025.114343	8	0.011766	60	10	60-180	60	148	GapExp	0	116	2	3	0	distractor	1	555	723	86773	11.765	11.754	11.777
ProbeTrack12	7	ProbeTrack	11.3	WolfelabSpurzheim	20101025.113107	20101025.114349	8	0.011766	60	0	60-180	60	110	GapExp	0	117	2	1	0	distractor	1	497	752	87525	11.765	11.754	11.776
ProbeTrack12	7	ProbeTrack	11.3	WolfelabSpurzheim	20101025.113107	20101025.114355	8	0.011766	60	0	60-180	60	89	GapExp	0	118	2	45	0	distractor	1	520	740	88265	11.765	11.754	11.777
ProbeTrack12	7	ProbeTrack	11.3	WolfelabSpurzheim	20101025.113107	20101025.114401	8	0.011766	60	0	60-180	60	69	GapExp	0	119	2	0	1	target	1	402	799	89064	11.765	11.754	11.776
ProbeTrack12	7	ProbeTrack	11.3	WolfelabSpurzheim	20101025.113107	20101025.114406	8	0.011766	60	10	60-180	60	169	GapExp	0	120	2	3	1	target	1	320	840	89904	11.765	11.753	11.777
ProbeTrack12	7	ProbeTrack	11.3	WolfelabSpurzheim	20101025.113107	20101025.114412	8	0.011766	60	10	60-180	60	146	GapExp	0	121	2	1	1	target	1	379	811	90715	11.765	11.753	11.776
ProbeTrack12	7	ProbeTrack	11.3	WolfelabSpurzheim	20101025.113107	20101025.114418	8	0.011766	60	10	60-180	60	141	GapExp	0	122	2	1	0	distractor	1	449	776	91491	11.765	11.739	11.783
ProbeTrack12	7	ProbeTrack	11.3	WolfelabSpurzheim	20101025.113107	20101025.114424	8	0.011766	60	10	60-180	60	170	GapExp	0	123	2	3	0	distractor	1	556	722	92213	11.765	11.755	11.776
ProbeTrack12	7	ProbeTrack	11.3	WolfelabSpurzheim	20101025.113107	20101025.114431	8	0.011766	60	10	60-180	60	158	GapExp	0	124	2	45	0	distractor	1	602	699	92912	11.765	11.753	11.776
ProbeTrack12	7	ProbeTrack	11.3	WolfelabSpurzheim	20101025.113107	20101025.114438	8	0.011766	60	0	60-180	60	72	GapExp	0	125	2	45	1	target	1	343	829	93741	11.765	11.754	11.775
ProbeTrack12	7	ProbeTrack	11.3	WolfelabSpurzheim	20101025.113107	20101025.114443	8	0.011766	60	0	60-180	60	78	GapExp	0	126	2	45	0	distractor	1	485	758	94499	11.765	11.754	11.776
ProbeTrack12	7	ProbeTrack	11.3	WolfelabSpurzheim	20101025.113107	20101025.114451	8	0.011766	60	0	60-180	60	178	GapExp	0	127	2	0	1	target	1	331	835	95334	11.765	11.745	11.788
ProbeTrack12	7	ProbeTrack	11.3	WolfelabSpurzheim	20101025.113107	20101025.114457	8	0.011766	60	0	60-180	60	73	GapExp	0	128	2	1	0	distractor	1	532	734	96068	11.765	11.739	11.800
ProbeTrack12	7	ProbeTrack	11.3	WolfelabSpurzheim	20101025.113107	20101025.114503	8	0.011766	60	0	60-180	60	82	GapExp	0	129	2	3	1	target	1	332	834	96902	11.765	11.755	11.776
ProbeTrack12	7	ProbeTrack	11.3	WolfelabSpurzheim	20101025.113107	20101025.114508	8	0.011766	60	10	60-180	60	171	GapExp	0	130	2	3	0	distractor	1	438	781	97683	11.765	11.754	11.776
ProbeTrack12	7	ProbeTrack	11.3	WolfelabSpurzheim	20101025.113107	20101025.114515	8	0.011766	60	0	60-180	60	84	GapExp	0	131	2	45	0	distractor	1	555	723	98406	11.765	11.754	11.776
ProbeTrack12	7	ProbeTrack	11.3	WolfelabSpurzheim	20101025.113107	20101025.114521	8	0.011766	60	0	60-180	60	139	GapExp	0	132	2	3	1	distractor	0	496	-1000	97406	11.765	11.752	11.775
ProbeTrack12	7	ProbeTrack	11.3	WolfelabSpurzheim	20101025.113107	20101025.114527	8	0.011766	60	10	60-180	60	98	GapExp	0	133	2	45	1	distractor	0	1438	-1000	96406	11.765	11.753	11.775
ProbeTrack12	7	ProbeTrack	11.3	WolfelabSpurzheim	20101025.113107	20101025.114534	8	0.011766	60	10	60-180	60	107	GapExp	0	134	2	3	1	target	1	391	805	97211	11.765	11.726	11.803
ProbeTrack12	7	ProbeTrack	11.3	WolfelabSpurzheim	20101025.113107	20101025.114540	8	0.011766	60	0	60-180	60	155	GapExp	0	135	2	1	0	distractor	1	990	505	97716	11.765	11.754	11.776
ProbeTrack12	7	ProbeTrack	11.3	WolfelabSpurzheim	20101025.113107	20101025.114547	8	0.011766	60	10	60-180	60	82	GapExp	0	136	2	45	1	target	1	403	799	98515	11.765	11.753	11.776
ProbeTrack12	7	ProbeTrack	11.3	WolfelabSpurzheim	20101025.113107	20101025.114553	8	0.011766	60	10	60-180	60	175	GapExp	0	137	2	45	1	target	1	379	811	99326	11.765	11.752	11.776
ProbeTrack12	7	ProbeTrack	11.3	WolfelabSpurzheim	20101025.113107	20101025.114559	8	0.011766	60	0	60-180	60	117	GapExp	0	138	2	3	0	distractor	1	590	705	100031	11.765	11.753	11.776
ProbeTrack12	7	ProbeTrack	11.3	WolfelabSpurzheim	20101025.113107	20101025.114605	8	0.011766	60	10	60-180	60	158	GapExp	0	139	2	0	0	distractor	1	555	723	100754	11.765	11.752	11.776
ProbeTrack12	7	ProbeTrack	11.3	WolfelabSpurzheim	20101025.113107	20101025.114612	8	0.011766	60	10	60-180	60	77	GapExp	0	140	2	1	0	distractor	1	508	746	101500	11.765	11.754	11.778
ProbeTrack12	7	ProbeTrack	11.3	WolfelabSpurzheim	20101025.113107	20101025.114617	8	0.011766	60	10	60-180	60	64	GapExp	0	141	2	1	1	target	1	461	770	102270	11.765	11.754	11.777
ProbeTrack12	7	ProbeTrack	11.3	WolfelabSpurzheim	20101025.113107	20101025.114623	8	0.011766	60	10	60-180	60	119	GapExp	0	142	2	0	1	target	1	390	805	103075	11.765	11.730	11.802
ProbeTrack12	7	ProbeTrack	11.3	WolfelabSpurzheim	20101025.113107	20101025.114629	8	0.011766	60	10	60-180	60	82	GapExp	0	143	2	0	1	target	1	414	793	103868	11.765	11.753	11.780
ProbeTrack12	7	ProbeTrack	11.3	WolfelabSpurzheim	20101025.113107	20101025.114634	8	0.011766	60	0	60-180	60	109	GapExp	0	144	2	45	1	target	1	450	775	104643	11.765	11.728	11.795
ProbeTrack12	7	ProbeTrack	11.3	WolfelabSpurzheim	20101025.113107	20101025.114641	8	0.011766	60	10	60-180	60	67	GapExp	0	145	2	0	0	distractor	1	579	711	105354	11.765	11.755	11.776
ProbeTrack12	7	ProbeTrack	11.3	WolfelabSpurzheim	20101025.113107	20101025.114646	8	0.011766	60	10	60-180	60	140	GapExp	0	146	2	1	0	target	0	708	-1000	104354	11.765	11.755	11.776
ProbeTrack12	7	ProbeTrack	11.3	WolfelabSpurzheim	20101025.113107	20101025.114652	8	0.011766	60	0	60-180	60	115	GapExp	0	147	2	0	0	distractor	1	532	734	105088	11.765	11.755	11.776
ProbeTrack12	7	ProbeTrack	11.3	WolfelabSpurzheim	20101025.113107	20101025.114658	8	0.011766	60	10	60-180	60	93	GapExp	0	148	2	0	0	distractor	1	473	764	105852	11.765	11.755	11.776
ProbeTrack12	7	ProbeTrack	11.3	WolfelabSpurzheim	20101025.113107	20101025.114703	8	0.011766	60	0	60-180	60	103	GapExp	0	149	2	0	0	distractor	1	555	723	106575	11.765	11.753	11.776
ProbeTrack12	7	ProbeTrack	11.3	WolfelabSpurzheim	20101025.113107	20101025.114709	8	0.011766	60	0	60-180	60	179	GapExp	0	150	2	3	0	distractor	1	567	717	107292	11.765	11.755	11.776
ProbeTrack12	7	ProbeTrack	11.3	WolfelabSpurzheim	20101025.113107	20101025.114716	8	0.011766	60	0	60-180	60	79	GapExp	0	151	2	1	0	distractor	1	520	740	108032	11.765	11.750	11.786
ProbeTrack12	7	ProbeTrack	11.3	WolfelabSpurzheim	20101025.113107	20101025.114721	8	0.011766	60	0	60-180	60	79	GapExp	0	152	2	1	1	target	1	532	734	108766	11.765	11.754	11.777
ProbeTrack12	7	ProbeTrack	11.3	WolfelabSpurzheim	20101025.113107	20101025.114727	8	0.011766	60	0	60-180	60	95	GapExp	0	153	2	45	1	target	1	414	793	109559	11.765	11.750	11.783
ProbeTrack12	7	ProbeTrack	11.3	WolfelabSpurzheim	20101025.113107	20101025.114733	8	0.011766	60	0	60-180	60	118	GapExp	0	154	2	1	0	distractor	1	520	740	110299	11.765	11.753	11.775
ProbeTrack12	7	ProbeTrack	11.3	WolfelabSpurzheim	20101025.113107	20101025.114738	8	0.011766	60	10	60-180	60	159	GapExp	0	155	2	0	0	distractor	1	485	758	111057	11.765	11.753	11.777
ProbeTrack12	7	ProbeTrack	11.3	WolfelabSpurzheim	20101025.113107	20101025.114745	8	0.011766	60	10	60-180	60	98	GapExp	0	156	2	1	1	target	1	391	805	111862	11.765	11.754	11.776
ProbeTrack12	7	ProbeTrack	11.3	WolfelabSpurzheim	20101025.113107	20101025.114750	8	0.011766	60	10	60-180	60	129	GapExp	0	157	2	0	0	distractor	1	579	711	112573	11.765	11.753	11.777
ProbeTrack12	7	ProbeTrack	11.3	WolfelabSpurzheim	20101025.113107	20101025.114756	8	0.011766	60	0	60-180	60	159	GapExp	0	158	2	45	1	target	1	449	776	113349	11.765	11.754	11.776
ProbeTrack12	7	ProbeTrack	11.3	WolfelabSpurzheim	20101025.113107	20101025.114803	8	0.011766	60	10	60-180	60	103	GapExp	0	159	2	0	1	target	1	402	799	114148	11.765	11.754	11.776
ProbeTrack12	7	ProbeTrack	11.3	WolfelabSpurzheim	20101025.113107	20101025.114808	8	0.011766	60	0	60-180	60	80	GapExp	0	160	2	3	1	target	1	414	793	114941	11.765	11.738	11.795
ProbeTrack12	7	ProbeTrack	11.3	WolfelabSpurzheim	20101025.113107	20101025.114814	8	0.011766	60	10	60-180	60	154	GapExp	0	161	2	45	0	distractor	1	673	664	115605	11.765	11.754	11.777
ProbeTrack12	7	ProbeTrack	11.3	WolfelabSpurzheim	20101025.113107	20101025.114821	8	0.011766	60	10	60-180	60	78	GapExp	0	162	2	45	1	target	1	426	787	116392	11.765	11.755	11.778
ProbeTrack12	7	ProbeTrack	11.3	WolfelabSpurzheim	20101025.113107	20101025.114826	8	0.011766	60	10	60-180	60	67	GapExp	0	163	2	3	1	target	1	367	817	117209	11.765	11.754	11.778
ProbeTrack12	7	ProbeTrack	11.3	WolfelabSpurzheim	20101025.113107	20101025.114832	8	0.011766	60	10	60-180	60	112	GapExp	0	164	2	1	1	target	1	308	846	118055	11.765	11.753	11.777
ProbeTrack12	7	ProbeTrack	11.3	WolfelabSpurzheim	20101025.113107	20101025.114838	8	0.011766	60	10	60-180	60	92	GapExp	0	165	2	45	1	target	1	426	787	118842	11.765	11.736	11.789
ProbeTrack12	7	ProbeTrack	11.3	WolfelabSpurzheim	20101025.113107	20101025.114844	8	0.011766	60	0	60-180	60	166	GapExp	0	166	2	45	1	target	1	473	764	119606	11.765	11.692	11.840
ProbeTrack12	7	ProbeTrack	11.3	WolfelabSpurzheim	20101025.113107	20101025.114850	8	0.011766	60	10	60-180	60	87	GapExp	0	167	2	45	0	distractor	1	614	693	120299	11.765	11.754	11.776
ProbeTrack12	7	ProbeTrack	11.3	WolfelabSpurzheim	20101025.113107	20101025.114856	8	0.011766	60	10	60-180	60	118	GapExp	0	168	2	1	0	distractor	1	590	705	121004	11.765	11.755	11.776
ProbeTrack12	7	ProbeTrack	11.3	WolfelabSpurzheim	20101025.113107	20101025.114903	8	0.011766	60	10	60-180	60	140	GapExp	0	169	2	3	1	target	1	344	828	121832	11.765	11.755	11.776
ProbeTrack12	7	ProbeTrack	11.3	WolfelabSpurzheim	20101025.113107	20101025.114908	8	0.011766	60	10	60-180	60	142	GapExp	0	170	2	1	0	distractor	1	555	723	122555	11.765	11.741	11.790
ProbeTrack12	7	ProbeTrack	11.3	WolfelabSpurzheim	20101025.113107	20101025.114915	8	0.011766	60	0	60-180	60	70	GapExp	0	171	2	0	0	target	0	673	-1000	121555	11.765	11.754	11.777
ProbeTrack12	7	ProbeTrack	11.3	WolfelabSpurzheim	20101025.113107	20101025.114920	8	0.011766	60	0	60-180	60	106	GapExp	0	172	2	1	1	target	1	367	817	122372	11.765	11.753	11.776
ProbeTrack12	7	ProbeTrack	11.3	WolfelabSpurzheim	20101025.113107	20101025.114926	8	0.011766	60	0	60-180	60	170	GapExp	0	173	2	0	0	distractor	1	532	734	123106	11.765	11.754	11.776
ProbeTrack12	7	ProbeTrack	11.3	WolfelabSpurzheim	20101025.113107	20101025.114933	8	0.011766	60	0	60-180	60	63	GapExp	0	174	2	1	1	distractor	0	614	-1000	122106	11.765	11.754	11.776
ProbeTrack12	7	ProbeTrack	11.3	WolfelabSpurzheim	20101025.113107	20101025.114938	8	0.011766	60	0	60-180	60	77	GapExp	0	175	2	0	1	target	1	461	770	122876	11.765	11.754	11.776
ProbeTrack12	7	ProbeTrack	11.3	WolfelabSpurzheim	20101025.113107	20101025.114945	8	0.011766	60	10	60-180	60	93	GapExp	0	176	2	0	1	target	1	402	799	123675	11.765	11.754	11.776
ProbeTrack12	7	ProbeTrack	11.3	WolfelabSpurzheim	20101025.113107	20101025.114950	8	0.011766	60	0	60-180	60	99	GapExp	0	177	2	45	0	distractor	1	567	717	124392	11.765	11.754	11.775
ProbeTrack12	7	ProbeTrack	11.3	WolfelabSpurzheim	20101025.113107	20101025.114957	8	0.011766	60	0	60-180	60	86	GapExp	0	178	2	0	0	distractor	1	602	699	125091	11.765	11.754	11.777
ProbeTrack12	7	ProbeTrack	11.3	WolfelabSpurzheim	20101025.113107	20101025.115003	8	0.011766	60	0	60-180	60	83	GapExp	0	179	2	0	1	target	1	402	799	125890	11.765	11.755	11.776
ProbeTrack12	7	ProbeTrack	11.3	WolfelabSpurzheim	20101025.113107	20101025.115008	8	0.011766	60	0	60-180	60	129	GapExp	0	180	2	0	1	target	1	473	764	126654	11.765	11.755	11.776
ProbeTrack12	7	ProbeTrack	11.3	WolfelabSpurzheim	20101025.113107	20101025.115014	8	0.011766	60	10	60-180	60	84	GapExp	0	181	2	0	1	target	1	579	711	127365	11.765	11.754	11.777
ProbeTrack12	7	ProbeTrack	11.3	WolfelabSpurzheim	20101025.113107	20101025.115019	8	0.011766	60	10	60-180	60	89	GapExp	0	182	2	45	0	target	0	849	-1000	126365	11.765	11.754	11.777
ProbeTrack12	7	ProbeTrack	11.3	WolfelabSpurzheim	20101025.113107	20101025.115026	8	0.011766	60	10	60-180	60	130	GapExp	0	183	2	3	1	target	1	603	699	127064	11.765	11.754	11.777
ProbeTrack12	7	ProbeTrack	11.3	WolfelabSpurzheim	20101025.113107	20101025.115033	8	0.011766	60	0	60-180	60	118	GapExp	0	184	2	1	0	distractor	1	661	670	127734	11.765	11.752	11.777
ProbeTrack12	7	ProbeTrack	11.3	WolfelabSpurzheim	20101025.113107	20101025.115039	8	0.011766	60	0	60-180	60	125	GapExp	0	185	2	1	1	target	1	402	799	128533	11.765	11.754	11.777
ProbeTrack12	7	ProbeTrack	11.3	WolfelabSpurzheim	20101025.113107	20101025.115045	8	0.011766	60	0	60-180	60	124	GapExp	0	186	2	45	1	target	1	438	781	129314	11.765	11.753	11.777
ProbeTrack12	7	ProbeTrack	11.3	WolfelabSpurzheim	20101025.113107	20101025.115052	8	0.011766	60	10	60-180	60	161	GapExp	0	187	2	3	0	distractor	1	532	734	130048	11.765	11.754	11.776
ProbeTrack12	7	ProbeTrack	11.3	WolfelabSpurzheim	20101025.113107	20101025.115058	8	0.011766	60	10	60-180	60	86	GapExp	0	188	2	3	0	target	0	861	-1000	129048	11.765	11.754	11.778
ProbeTrack12	7	ProbeTrack	11.3	WolfelabSpurzheim	20101025.113107	20101025.115104	8	0.011766	60	10	60-180	60	151	GapExp	0	189	2	3	1	target	1	520	740	129788	11.765	11.753	11.776
ProbeTrack12	7	ProbeTrack	11.3	WolfelabSpurzheim	20101025.113107	20101025.115110	8	0.011766	60	0	60-180	60	164	GapExp	0	190	2	0	0	distractor	1	696	652	130440	11.765	11.753	11.777
ProbeTrack12	7	ProbeTrack	11.3	WolfelabSpurzheim	20101025.113107	20101025.115117	8	0.011766	60	10	60-180	60	62	GapExp	0	191	2	45	0	distractor	1	615	693	131133	11.765	11.754	11.776
ProbeTrack12	7	ProbeTrack	11.3	WolfelabSpurzheim	20101025.113107	20101025.115123	8	0.011766	60	10	60-180	60	98	GapExp	0	192	2	0	1	target	1	414	793	131926	11.765	11.754	11.776
ProbeTrack12	7	ProbeTrack	11.3	WolfelabSpurzheim	20101025.113107	20101025.115129	8	0.011766	60	10	60-180	60	89	GapExp	0	193	2	45	0	target	0	755	-1000	130926	11.765	11.753	11.776
ProbeTrack12	7	ProbeTrack	11.3	WolfelabSpurzheim	20101025.113107	20101025.115135	8	0.011766	60	10	60-180	60	97	GapExp	0	194	2	45	1	target	1	520	740	131666	11.765	11.752	11.776
ProbeTrack12	7	ProbeTrack	11.3	WolfelabSpurzheim	20101025.113107	20101025.115142	8	0.011766	60	10	60-180	60	115	GapExp	0	195	2	1	0	distractor	1	861	570	132236	11.765	11.754	11.776
ProbeTrack12	7	ProbeTrack	11.3	WolfelabSpurzheim	20101025.113107	20101025.115148	8	0.011766	60	10	60-180	60	126	GapExp	0	196	2	0	0	target	0	673	-1000	131236	11.765	11.730	11.794
ProbeTrack12	7	ProbeTrack	11.3	WolfelabSpurzheim	20101025.113107	20101025.115155	8	0.011766	60	10	60-180	60	168	GapExp	0	197	2	3	1	target	1	438	781	132017	11.765	11.755	11.776
ProbeTrack12	7	ProbeTrack	11.3	WolfelabSpurzheim	20101025.113107	20101025.115201	8	0.011766	60	0	60-180	60	100	GapExp	0	198	2	45	0	distractor	1	543	729	132746	11.765	11.753	11.776
ProbeTrack12	7	ProbeTrack	11.3	WolfelabSpurzheim	20101025.113107	20101025.115207	8	0.011766	60	10	60-180	60	91	GapExp	0	199	2	3	0	target	0	602	-1000	131746	11.765	11.755	11.777
ProbeTrack12	7	ProbeTrack	11.3	WolfelabSpurzheim	20101025.113107	20101025.115213	8	0.011766	60	0	60-180	60	160	GapExp	0	200	2	3	1	target	1	438	781	132527	11.765	11.754	11.777
ProbeTrack12	7	ProbeTrack	11.3	WolfelabSpurzheim	20101025.113107	20101025.115220	8	0.011766	60	10	60-180	60	109	GapExp	0	201	2	1	0	distractor	1	766	617	133144	11.765	11.755	11.775
ProbeTrack12	7	ProbeTrack	11.3	WolfelabSpurzheim	20101025.113107	20101025.115226	8	0.011766	60	10	60-180	60	120	GapExp	0	202	2	45	1	distractor	0	743	-1000	132144	11.765	11.754	11.777
ProbeTrack12	7	ProbeTrack	11.3	WolfelabSpurzheim	20101025.113107	20101025.115233	8	0.011766	60	10	60-180	60	132	GapExp	0	203	2	3	1	target	1	426	787	132931	11.765	11.755	11.776
ProbeTrack12	7	ProbeTrack	11.3	WolfelabSpurzheim	20101025.113107	20101025.115239	8	0.011766	60	0	60-180	60	113	GapExp	0	204	2	3	0	distractor	1	849	576	133507	11.765	11.754	11.776
ProbeTrack12	7	ProbeTrack	11.3	WolfelabSpurzheim	20101025.113107	20101025.115245	8	0.011766	60	10	60-180	60	165	GapExp	0	205	2	3	0	distractor	1	496	752	134259	11.765	11.719	11.818
ProbeTrack12	7	ProbeTrack	11.3	WolfelabSpurzheim	20101025.113107	20101025.115252	8	0.011766	60	0	60-180	60	136	GapExp	0	206	2	45	0	distractor	1	638	681	134940	11.765	11.754	11.778
ProbeTrack12	7	ProbeTrack	11.3	WolfelabSpurzheim	20101025.113107	20101025.115259	8	0.011766	60	10	60-180	60	180	GapExp	0	207	2	3	0	distractor	1	719	641	135581	11.765	11.753	11.776
ProbeTrack12	7	ProbeTrack	11.3	WolfelabSpurzheim	20101025.113107	20101025.115306	8	0.011766	60	10	60-180	60	75	GapExp	0	208	2	1	1	target	1	555	723	136304	11.765	11.754	11.777
ProbeTrack12	7	ProbeTrack	11.3	WolfelabSpurzheim	20101025.113107	20101025.115311	8	0.011766	60	0	60-180	60	82	GapExp	0	209	2	1	1	target	1	414	793	137097	11.765	11.753	11.777
ProbeTrack12	7	ProbeTrack	11.3	WolfelabSpurzheim	20101025.113107	20101025.115317	8	0.011766	60	0	60-180	60	118	GapExp	0	210	2	1	1	target	1	473	764	137861	11.765	11.754	11.776
ProbeTrack12	7	ProbeTrack	11.3	WolfelabSpurzheim	20101025.113107	20101025.115323	8	0.011766	60	10	60-180	60	134	GapExp	0	211	2	3	1	target	1	356	822	138683	11.765	11.755	11.777
ProbeTrack12	7	ProbeTrack	11.3	WolfelabSpurzheim	20101025.113107	20101025.115328	8	0.011766	60	0	60-180	60	74	GapExp	0	212	2	1	1	target	1	473	764	139447	11.765	11.754	11.775
ProbeTrack12	7	ProbeTrack	11.3	WolfelabSpurzheim	20101025.113107	20101025.115334	8	0.011766	60	0	60-180	60	63	GapExp	0	213	2	3	0	distractor	1	696	652	140099	11.765	11.754	11.776
ProbeTrack12	7	ProbeTrack	11.3	WolfelabSpurzheim	20101025.113107	20101025.115339	8	0.011766	60	10	60-180	60	107	GapExp	0	214	2	1	1	target	1	308	846	140945	11.765	11.754	11.777
ProbeTrack12	7	ProbeTrack	11.3	WolfelabSpurzheim	20101025.113107	20101025.115345	8	0.011766	60	0	60-180	60	165	GapExp	0	215	2	3	0	distractor	1	402	799	141744	11.765	11.754	11.776
ProbeTrack12	7	ProbeTrack	11.3	WolfelabSpurzheim	20101025.113107	20101025.115351	8	0.011766	60	10	60-180	60	141	GapExp	0	216	2	45	0	distractor	1	1638	181	141925	11.765	11.754	11.777
ProbeTrack12	7	ProbeTrack	11.3	WolfelabSpurzheim	20101025.113107	20101025.115359	8	0.011766	60	10	60-180	60	114	GapExp	0	217	2	45	0	distractor	1	637	682	142607	11.765	11.754	11.777
ProbeTrack12	7	ProbeTrack	11.3	WolfelabSpurzheim	20101025.113107	20101025.115406	8	0.011766	60	0	60-180	60	140	GapExp	0	218	2	3	1	target	1	485	758	143365	11.765	11.755	11.776
ProbeTrack12	7	ProbeTrack	11.3	WolfelabSpurzheim	20101025.113107	20101025.115412	8	0.011766	60	0	60-180	60	63	GapExp	0	219	2	3	1	target	1	485	758	144123	11.765	11.754	11.777
ProbeTrack12	7	ProbeTrack	11.3	WolfelabSpurzheim	20101025.113107	20101025.115417	8	0.011766	60	10	60-180	60	151	GapExp	0	220	2	1	0	target	0	344	-1000	143123	11.765	11.752	11.780
ProbeTrack12	7	ProbeTrack	11.3	WolfelabSpurzheim	20101025.113107	20101025.115423	8	0.011766	60	10	60-180	60	108	GapExp	0	221	2	3	0	distractor	1	626	687	143810	11.765	11.750	11.776
ProbeTrack12	7	ProbeTrack	11.3	WolfelabSpurzheim	20101025.113107	20101025.115429	8	0.011766	60	10	60-180	60	150	GapExp	0	222	2	3	1	target	1	497	752	144562	11.765	11.754	11.776
ProbeTrack12	7	ProbeTrack	11.3	WolfelabSpurzheim	20101025.113107	20101025.115435	8	0.011766	60	0	60-180	60	72	GapExp	0	223	2	3	1	target	1	473	764	145326	11.765	11.754	11.777
ProbeTrack12	7	ProbeTrack	11.3	WolfelabSpurzheim	20101025.113107	20101025.115440	8	0.011766	60	0	60-180	60	138	GapExp	0	224	2	45	0	distractor	1	509	746	146072	11.765	11.753	11.775
ProbeTrack12	7	ProbeTrack	11.3	WolfelabSpurzheim	20101025.113107	20101025.115446	8	0.011766	60	10	60-180	60	68	GapExp	0	225	2	3	0	distractor	1	508	746	146818	11.765	11.753	11.776
ProbeTrack12	7	ProbeTrack	11.3	WolfelabSpurzheim	20101025.113107	20101025.115452	8	0.011766	60	0	60-180	60	160	GapExp	0	226	2	0	1	target	1	402	799	147617	11.765	11.754	11.776
ProbeTrack12	7	ProbeTrack	11.3	WolfelabSpurzheim	20101025.113107	20101025.115458	8	0.011766	60	0	60-180	60	149	GapExp	0	227	2	45	1	target	1	320	840	148457	11.765	11.753	11.777
ProbeTrack12	7	ProbeTrack	11.3	WolfelabSpurzheim	20101025.113107	20101025.115504	8	0.011766	60	10	60-180	60	139	GapExp	0	228	2	3	1	distractor	0	438	-1000	147457	11.765	11.752	11.777
ProbeTrack12	7	ProbeTrack	11.3	WolfelabSpurzheim	20101025.113107	20101025.115510	8	0.011766	60	0	60-180	60	170	GapExp	0	229	2	3	1	target	1	1719	141	147598	11.765	11.753	11.777
ProbeTrack12	7	ProbeTrack	11.3	WolfelabSpurzheim	20101025.113107	20101025.115518	8	0.011766	60	0	60-180	60	102	GapExp	0	230	2	0	1	target	1	590	705	148303	11.765	11.754	11.775
ProbeTrack12	7	ProbeTrack	11.3	WolfelabSpurzheim	20101025.113107	20101025.115525	8	0.011766	60	0	60-180	60	136	GapExp	0	231	2	45	0	distractor	1	520	740	149043	11.765	11.753	11.776
ProbeTrack12	7	ProbeTrack	11.3	WolfelabSpurzheim	20101025.113107	20101025.115531	8	0.011766	60	10	60-180	60	143	GapExp	0	232	2	1	0	distractor	1	579	711	149754	11.765	11.718	11.811
ProbeTrack12	7	ProbeTrack	11.3	WolfelabSpurzheim	20101025.113107	20101025.115538	8	0.011766	60	0	60-180	60	70	GapExp	0	233	2	45	1	target	1	355	823	150577	11.765	11.754	11.776
ProbeTrack12	7	ProbeTrack	11.3	WolfelabSpurzheim	20101025.113107	20101025.115543	8	0.011766	60	10	60-180	60	83	GapExp	0	234	2	0	0	distractor	1	520	740	151317	11.765	11.754	11.776
ProbeTrack12	7	ProbeTrack	11.3	WolfelabSpurzheim	20101025.113107	20101025.115549	8	0.011766	60	0	60-180	60	93	GapExp	0	235	2	3	0	distractor	1	567	717	152034	11.765	11.753	11.776
ProbeTrack12	7	ProbeTrack	11.3	WolfelabSpurzheim	20101025.113107	20101025.115554	8	0.011766	60	0	60-180	60	85	GapExp	0	236	2	3	1	target	1	355	823	152857	11.765	11.754	11.775
ProbeTrack12	7	ProbeTrack	11.3	WolfelabSpurzheim	20101025.113107	20101025.115559	8	0.011766	60	0	60-180	60	141	GapExp	0	237	2	1	0	distractor	1	496	752	153609	11.765	11.736	11.789
ProbeTrack12	7	ProbeTrack	11.3	WolfelabSpurzheim	20101025.113107	20101025.115605	8	0.011766	60	0	60-180	60	89	GapExp	0	238	2	0	0	target	0	614	-1000	152609	11.765	11.753	11.776
ProbeTrack12	7	ProbeTrack	11.3	WolfelabSpurzheim	20101025.113107	20101025.115611	8	0.011766	60	0	60-180	60	129	GapExp	0	239	2	0	1	target	1	555	723	153332	11.765	11.744	11.793
ProbeTrack12	7	ProbeTrack	11.3	WolfelabSpurzheim	20101025.113107	20101025.115616	8	0.011766	60	0	60-180	60	134	GapExp	0	240	2	45	1	target	1	367	817	154149	11.765	11.735	11.792
ProbeTrack12	7	ProbeTrack	11.3	WolfelabSpurzheim	20101025.113107	20101025.115623	8	0.011766	60	0	60-180	60	131	GapExp	0	241	2	3	0	distractor	1	567	717	154866	11.765	11.756	11.776
ProbeTrack12	7	ProbeTrack	11.3	WolfelabSpurzheim	20101025.113107	20101025.115630	8	0.011766	60	10	60-180	60	147	GapExp	0	242	2	45	1	target	1	449	776	155642	11.765	11.755	11.775
ProbeTrack12	7	ProbeTrack	11.3	WolfelabSpurzheim	20101025.113107	20101025.115636	8	0.011766	60	0	60-180	60	138	GapExp	0	243	2	45	1	target	1	426	787	156429	11.765	11.725	11.805
ProbeTrack12	7	ProbeTrack	11.3	WolfelabSpurzheim	20101025.113107	20101025.115643	8	0.011766	60	0	60-180	60	87	GapExp	0	244	2	1	1	target	1	332	834	157263	11.765	11.754	11.776
ProbeTrack12	7	ProbeTrack	11.3	WolfelabSpurzheim	20101025.113107	20101025.115648	8	0.011766	60	0	60-180	60	97	GapExp	0	245	2	3	1	target	1	308	846	158109	11.765	11.753	11.776
ProbeTrack12	7	ProbeTrack	11.3	WolfelabSpurzheim	20101025.113107	20101025.115653	8	0.011766	60	0	60-180	60	118	GapExp	0	246	2	1	0	distractor	1	591	705	158814	11.765	11.753	11.776
ProbeTrack12	7	ProbeTrack	11.3	WolfelabSpurzheim	20101025.113107	20101025.115700	8	0.011766	60	10	60-180	60	150	GapExp	0	247	2	45	1	distractor	0	555	-1000	157814	11.765	11.754	11.776
ProbeTrack12	7	ProbeTrack	11.3	WolfelabSpurzheim	20101025.113107	20101025.115707	8	0.011766	60	0	60-180	60	109	GapExp	0	248	2	1	1	target	1	437	782	158596	11.765	11.755	11.777
ProbeTrack12	7	ProbeTrack	11.3	WolfelabSpurzheim	20101025.113107	20101025.115714	8	0.011766	60	10	60-180	60	132	GapExp	0	249	2	1	1	target	1	308	846	159442	11.765	11.755	11.775
ProbeTrack12	7	ProbeTrack	11.3	WolfelabSpurzheim	20101025.113107	20101025.115720	8	0.011766	60	0	60-180	60	150	GapExp	0	250	2	1	0	distractor	1	626	687	160129	11.765	11.754	11.776
ProbeTrack12	7	ProbeTrack	11.3	WolfelabSpurzheim	20101025.115813	20101025.115822	8	0.011766	60	10	60-180	60	173	GapExp	1	1	2	1	1	target	1	379	811	160940	11.885	11.753	23.535
ProbeTrack12	7	ProbeTrack	11.3	WolfelabSpurzheim	20101025.115813	20101025.115833	8	0.011766	60	10	60-180	60	121	GapExp	1	2	2	0	0	target	0	344	-1000	159940	11.864	11.734	11.788
ProbeTrack12	7	ProbeTrack	11.3	WolfelabSpurzheim	20101025.115813	20101025.115840	8	0.011766	60	10	60-180	60	170	GapExp	1	3	2	3	1	target	1	402	799	160739	11.765	11.733	11.805
ProbeTrack12	7	ProbeTrack	11.3	WolfelabSpurzheim	20101025.115813	20101025.115846	8	0.011766	60	10	60-180	60	100	GapExp	1	4	2	1	0	distractor	1	661	670	161409	11.765	11.754	11.777
ProbeTrack12	7	ProbeTrack	11.3	WolfelabSpurzheim	20101025.115813	20101025.115852	8	0.011766	60	10	60-180	60	105	GapExp	1	5	2	45	1	target	1	414	793	162202	11.765	11.755	11.776
ProbeTrack12	7	ProbeTrack	11.3	WolfelabSpurzheim	20101025.115813	20101025.115859	8	0.011766	60	0	60-180	60	107	GapExp	1	6	2	45	1	target	1	343	829	163031	11.811	11.754	23.531
ProbeTrack12	7	ProbeTrack	11.3	WolfelabSpurzheim	20101025.115813	20101025.115905	8	0.011766	60	0	60-180	60	173	GapExp	1	7	2	45	0	distractor	1	567	717	163748	11.765	11.753	11.776
ProbeTrack12	7	ProbeTrack	11.3	WolfelabSpurzheim	20101025.115813	20101025.115912	8	0.011766	60	10	60-180	60	95	GapExp	1	8	2	45	0	distractor	1	649	676	164424	11.765	11.754	11.776
ProbeTrack12	7	ProbeTrack	11.3	WolfelabSpurzheim	20101025.115813	20101025.115920	8	0.011766	60	0	60-180	60	104	GapExp	1	9	2	1	1	target	1	379	811	165235	11.765	11.754	11.777
ProbeTrack12	7	ProbeTrack	11.3	WolfelabSpurzheim	20101025.115813	20101025.115925	8	0.011766	60	0	60-180	60	180	GapExp	1	10	2	0	1	target	1	602	699	165934	11.765	11.742	11.792
ProbeTrack12	7	ProbeTrack	11.3	WolfelabSpurzheim	20101025.115813	20101025.115932	8	0.011766	60	0	60-180	60	166	GapExp	0	11	2	0	1	target	1	367	817	166751	11.765	11.754	11.776
ProbeTrack12	7	ProbeTrack	11.3	WolfelabSpurzheim	20101025.115813	20101025.115938	8	0.011766	60	10	60-180	60	98	GapExp	0	12	2	3	1	target	1	367	817	167568	11.765	11.754	11.776
ProbeTrack12	7	ProbeTrack	11.3	WolfelabSpurzheim	20101025.115813	20101025.115944	8	0.011766	60	0	60-180	60	79	GapExp	0	13	2	0	1	target	1	449	776	168344	11.765	11.754	11.775
ProbeTrack12	7	ProbeTrack	11.3	WolfelabSpurzheim	20101025.115813	20101025.115949	8	0.011766	60	0	60-180	60	164	GapExp	0	14	2	1	1	target	1	449	776	169120	11.765	11.741	11.791
ProbeTrack12	7	ProbeTrack	11.3	WolfelabSpurzheim	20101025.115813	20101025.115956	8	0.011766	60	10	60-180	60	99	GapExp	0	15	2	1	1	target	1	402	799	169919	11.765	11.753	11.777
ProbeTrack12	7	ProbeTrack	11.3	WolfelabSpurzheim	20101025.115813	20101025.120001	8	0.011766	60	0	60-180	60	151	GapExp	0	16	2	0	0	distractor	1	661	670	170589	11.765	11.754	11.776
ProbeTrack12	7	ProbeTrack	11.3	WolfelabSpurzheim	20101025.115813	20101025.120008	8	0.011766	60	10	60-180	60	166	GapExp	0	17	2	0	0	distractor	1	919	541	171130	11.765	11.753	11.777
ProbeTrack12	7	ProbeTrack	11.3	WolfelabSpurzheim	20101025.115813	20101025.120015	8	0.011766	60	0	60-180	60	102	GapExp	0	18	2	45	1	target	1	390	805	171935	11.765	11.718	11.806
ProbeTrack12	7	ProbeTrack	11.3	WolfelabSpurzheim	20101025.115813	20101025.120021	8	0.011766	60	10	60-180	60	143	GapExp	0	19	2	0	0	distractor	1	496	752	172687	11.765	11.754	11.776
ProbeTrack12	7	ProbeTrack	11.3	WolfelabSpurzheim	20101025.115813	20101025.120028	8	0.011766	60	0	60-180	60	142	GapExp	0	20	2	45	1	target	1	426	787	173474	11.765	11.753	11.777
ProbeTrack12	7	ProbeTrack	11.3	WolfelabSpurzheim	20101025.115813	20101025.120034	8	0.011766	60	0	60-180	60	163	GapExp	0	21	2	0	0	distractor	1	555	723	174197	11.765	11.754	11.776
ProbeTrack12	7	ProbeTrack	11.3	WolfelabSpurzheim	20101025.115813	20101025.120041	8	0.011766	60	0	60-180	60	162	GapExp	0	22	2	45	0	distractor	1	555	723	174920	11.765	11.754	11.782
ProbeTrack12	7	ProbeTrack	11.3	WolfelabSpurzheim	20101025.115813	20101025.120048	8	0.011766	60	10	60-180	60	74	GapExp	0	23	2	0	0	distractor	1	661	670	175590	11.765	11.755	11.776
ProbeTrack12	7	ProbeTrack	11.3	WolfelabSpurzheim	20101025.115813	20101025.120053	8	0.011766	60	0	60-180	60	68	GapExp	0	24	2	45	0	distractor	1	532	734	176324	11.765	11.742	11.789
ProbeTrack12	7	ProbeTrack	11.3	WolfelabSpurzheim	20101025.115813	20101025.120059	8	0.011766	60	10	60-180	60	87	GapExp	0	25	2	45	0	distractor	1	837	582	176906	11.765	11.754	11.776
ProbeTrack12	7	ProbeTrack	11.3	WolfelabSpurzheim	20101025.115813	20101025.120105	8	0.011766	60	10	60-180	60	77	GapExp	0	26	2	45	1	target	1	450	775	177681	11.765	11.743	11.790
ProbeTrack12	7	ProbeTrack	11.3	WolfelabSpurzheim	20101025.115813	20101025.120112	8	0.011766	60	0	60-180	60	178	GapExp	0	27	2	0	1	target	1	414	793	178474	11.765	11.754	11.776
ProbeTrack12	7	ProbeTrack	11.3	WolfelabSpurzheim	20101025.115813	20101025.120118	8	0.011766	60	10	60-180	60	169	GapExp	0	28	2	45	0	distractor	1	579	711	179185	11.765	11.755	11.776
ProbeTrack12	7	ProbeTrack	11.3	WolfelabSpurzheim	20101025.115813	20101025.120125	8	0.011766	60	10	60-180	60	72	GapExp	0	29	2	3	1	target	1	367	817	180002	11.765	11.754	11.776
ProbeTrack12	7	ProbeTrack	11.3	WolfelabSpurzheim	20101025.115813	20101025.120131	8	0.011766	60	0	60-180	60	140	GapExp	0	30	2	0	1	target	1	355	823	180825	11.765	11.754	11.775
ProbeTrack12	7	ProbeTrack	11.3	WolfelabSpurzheim	20101025.115813	20101025.120136	8	0.011766	60	0	60-180	60	159	GapExp	0	31	2	3	1	target	1	320	840	181665	11.765	11.754	11.776
ProbeTrack12	7	ProbeTrack	11.3	WolfelabSpurzheim	20101025.115813	20101025.120143	8	0.011766	60	0	60-180	60	98	GapExp	0	32	2	45	0	distractor	1	556	722	182387	11.765	11.753	11.776
ProbeTrack12	7	ProbeTrack	11.3	WolfelabSpurzheim	20101025.115813	20101025.120149	8	0.011766	60	0	60-180	60	86	GapExp	0	33	2	3	0	distractor	1	555	723	183110	11.765	11.755	11.777
ProbeTrack12	7	ProbeTrack	11.3	WolfelabSpurzheim	20101025.115813	20101025.120200	8	0.011766	60	10	60-180	60	171	GapExp	0	34	2	0	1	target	1	579	711	183821	11.765	11.754	11.777
ProbeTrack12	7	ProbeTrack	11.3	WolfelabSpurzheim	20101025.115813	20101025.120208	8	0.011766	60	10	60-180	60	131	GapExp	0	35	2	0	1	target	1	473	764	184585	11.765	11.754	11.776
ProbeTrack12	7	ProbeTrack	11.3	WolfelabSpurzheim	20101025.115813	20101025.120214	8	0.011766	60	0	60-180	60	123	GapExp	0	36	2	0	0	distractor	1	520	740	185325	11.765	11.754	11.775
ProbeTrack12	7	ProbeTrack	11.3	WolfelabSpurzheim	20101025.115813	20101025.120220	8	0.011766	60	10	60-180	60	158	GapExp	0	37	2	45	1	distractor	0	508	-1000	184325	11.765	11.754	11.778
ProbeTrack12	7	ProbeTrack	11.3	WolfelabSpurzheim	20101025.115813	20101025.120227	8	0.011766	60	10	60-180	60	71	GapExp	0	38	2	3	1	target	1	473	764	185089	11.765	11.744	11.786
ProbeTrack12	7	ProbeTrack	11.3	WolfelabSpurzheim	20101025.115813	20101025.120233	8	0.011766	60	0	60-180	60	64	GapExp	0	39	2	0	0	distractor	1	649	676	185765	11.765	11.753	11.775
ProbeTrack12	7	ProbeTrack	11.3	WolfelabSpurzheim	20101025.115813	20101025.120238	8	0.011766	60	0	60-180	60	111	GapExp	0	40	2	45	0	distractor	1	555	723	186488	11.765	11.754	11.778
ProbeTrack12	7	ProbeTrack	11.3	WolfelabSpurzheim	20101025.115813	20101025.120245	8	0.011766	60	10	60-180	60	126	GapExp	0	41	2	45	0	target	0	509	-1000	185488	11.765	11.753	11.778
ProbeTrack12	7	ProbeTrack	11.3	WolfelabSpurzheim	20101025.115813	20101025.120251	8	0.011766	60	0	60-180	60	109	GapExp	0	42	2	1	0	distractor	1	814	593	186081	11.765	11.753	11.777
ProbeTrack12	7	ProbeTrack	11.3	WolfelabSpurzheim	20101025.115813	20101025.120259	8	0.011766	60	0	60-180	60	135	GapExp	0	43	2	0	0	distractor	1	579	711	186792	11.765	11.755	11.777
ProbeTrack12	7	ProbeTrack	11.3	WolfelabSpurzheim	20101025.115813	20101025.120305	8	0.011766	60	10	60-180	60	176	GapExp	0	44	2	0	1	target	1	379	811	187603	11.765	11.714	11.816
ProbeTrack12	7	ProbeTrack	11.3	WolfelabSpurzheim	20101025.115813	20101025.120312	8	0.011766	60	0	60-180	60	79	GapExp	0	45	2	3	1	target	1	355	823	188426	11.765	11.754	11.776
ProbeTrack12	7	ProbeTrack	11.3	WolfelabSpurzheim	20101025.115813	20101025.120317	8	0.011766	60	0	60-180	60	97	GapExp	0	46	2	3	1	target	1	450	775	189201	11.765	11.754	11.776
ProbeTrack12	7	ProbeTrack	11.3	WolfelabSpurzheim	20101025.115813	20101025.120323	8	0.011766	60	0	60-180	60	179	GapExp	0	47	2	1	0	distractor	1	602	699	189900	11.765	11.752	11.775
ProbeTrack12	7	ProbeTrack	11.3	WolfelabSpurzheim	20101025.115813	20101025.120329	8	0.011766	60	10	60-180	60	176	GapExp	0	48	2	3	0	distractor	1	485	758	190658	11.765	11.751	11.780
ProbeTrack12	7	ProbeTrack	11.3	WolfelabSpurzheim	20101025.115813	20101025.120336	8	0.011766	60	10	60-180	60	162	GapExp	0	49	2	1	1	target	1	461	770	191428	11.765	11.753	11.777
ProbeTrack12	7	ProbeTrack	11.3	WolfelabSpurzheim	20101025.115813	20101025.120342	8	0.011766	60	10	60-180	60	66	GapExp	0	50	2	1	0	distractor	1	590	705	192133	11.765	11.755	11.775
ProbeTrack12	7	ProbeTrack	11.3	WolfelabSpurzheim	20101025.115813	20101025.120348	8	0.011766	60	0	60-180	60	111	GapExp	0	51	2	0	0	distractor	1	531	735	192868	11.765	11.754	11.776
ProbeTrack12	7	ProbeTrack	11.3	WolfelabSpurzheim	20101025.115813	20101025.120353	8	0.011766	60	0	60-180	60	128	GapExp	0	52	2	1	1	target	1	390	805	193673	11.765	11.755	11.775
ProbeTrack12	7	ProbeTrack	11.3	WolfelabSpurzheim	20101025.115813	20101025.120400	8	0.011766	60	0	60-180	60	161	GapExp	0	53	2	1	1	target	1	437	782	194455	11.765	11.754	11.776
ProbeTrack12	7	ProbeTrack	11.3	WolfelabSpurzheim	20101025.115813	20101025.120406	8	0.011766	60	10	60-180	60	71	GapExp	0	54	2	1	0	distractor	1	555	723	195178	11.765	11.755	11.775
ProbeTrack12	7	ProbeTrack	11.3	WolfelabSpurzheim	20101025.115813	20101025.120412	8	0.011766	60	10	60-180	60	142	GapExp	0	55	2	1	1	target	1	414	793	195971	11.765	11.754	11.776
ProbeTrack12	7	ProbeTrack	11.3	WolfelabSpurzheim	20101025.115813	20101025.120417	8	0.011766	60	0	60-180	60	61	GapExp	0	56	2	3	0	distractor	1	638	681	196652	11.765	11.754	11.776
ProbeTrack12	7	ProbeTrack	11.3	WolfelabSpurzheim	20101025.115813	20101025.120423	8	0.011766	60	0	60-180	60	63	GapExp	0	57	2	3	0	distractor	1	590	705	197357	11.765	11.734	11.795
ProbeTrack12	7	ProbeTrack	11.3	WolfelabSpurzheim	20101025.115813	20101025.120428	8	0.011766	60	10	60-180	60	67	GapExp	0	58	2	45	1	target	1	602	699	198056	11.765	11.754	11.777
ProbeTrack12	7	ProbeTrack	11.3	WolfelabSpurzheim	20101025.115813	20101025.120434	8	0.011766	60	0	60-180	60	160	GapExp	0	59	2	45	1	target	1	308	846	198902	11.765	11.753	11.778
ProbeTrack12	7	ProbeTrack	11.3	WolfelabSpurzheim	20101025.115813	20101025.120441	8	0.011766	60	10	60-180	60	139	GapExp	0	60	2	3	0	target	0	731	-1000	197902	11.765	11.740	11.783
ProbeTrack12	7	ProbeTrack	11.3	WolfelabSpurzheim	20101025.115813	20101025.120447	8	0.011766	60	0	60-180	60	64	GapExp	0	61	2	1	1	target	1	402	799	198701	11.765	11.756	11.776
ProbeTrack12	7	ProbeTrack	11.3	WolfelabSpurzheim	20101025.115813	20101025.120452	8	0.011766	60	0	60-180	60	178	GapExp	0	62	2	0	1	target	1	390	805	199506	11.765	11.753	11.776
ProbeTrack12	7	ProbeTrack	11.3	WolfelabSpurzheim	20101025.115813	20101025.120500	8	0.011766	60	0	60-180	60	152	GapExp	0	63	2	0	1	target	1	367	817	200323	11.765	11.708	11.821
ProbeTrack12	7	ProbeTrack	11.3	WolfelabSpurzheim	20101025.115813	20101025.120506	8	0.011766	60	0	60-180	60	167	GapExp	0	64	2	45	0	distractor	1	508	746	201069	11.765	11.754	11.776
ProbeTrack12	7	ProbeTrack	11.3	WolfelabSpurzheim	20101025.115813	20101025.120514	8	0.011766	60	0	60-180	60	118	GapExp	0	65	2	3	1	target	1	461	770	201839	11.765	11.755	11.775
ProbeTrack12	7	ProbeTrack	11.3	WolfelabSpurzheim	20101025.115813	20101025.120519	8	0.011766	60	0	60-180	60	64	GapExp	0	66	2	1	0	distractor	1	591	705	202544	11.765	11.754	11.777
ProbeTrack12	7	ProbeTrack	11.3	WolfelabSpurzheim	20101025.115813	20101025.120525	8	0.011766	60	0	60-180	60	114	GapExp	0	67	2	1	0	distractor	1	567	717	203261	11.765	11.754	11.777
ProbeTrack12	7	ProbeTrack	11.3	WolfelabSpurzheim	20101025.115813	20101025.120531	8	0.011766	60	0	60-180	60	90	GapExp	0	68	2	45	0	distractor	1	567	717	203978	11.765	11.755	11.775
ProbeTrack12	7	ProbeTrack	11.3	WolfelabSpurzheim	20101025.115813	20101025.120537	8	0.011766	60	10	60-180	60	150	GapExp	0	69	2	45	1	target	1	508	746	204724	11.765	11.748	11.782
ProbeTrack12	7	ProbeTrack	11.3	WolfelabSpurzheim	20101025.115813	20101025.120544	8	0.011766	60	10	60-180	60	172	GapExp	0	70	2	45	0	distractor	1	626	687	205411	11.765	11.754	11.776
ProbeTrack12	7	ProbeTrack	11.3	WolfelabSpurzheim	20101025.115813	20101025.120551	8	0.011766	60	10	60-180	60	167	GapExp	0	71	2	1	1	target	1	449	776	206187	11.765	11.749	11.776
ProbeTrack12	7	ProbeTrack	11.3	WolfelabSpurzheim	20101025.115813	20101025.120557	8	0.011766	60	10	60-180	60	105	GapExp	0	72	2	45	0	distractor	1	567	717	206904	11.765	11.754	11.777
ProbeTrack12	7	ProbeTrack	11.3	WolfelabSpurzheim	20101025.115813	20101025.120604	8	0.011766	60	10	60-180	60	73	GapExp	0	73	2	0	0	distractor	1	532	734	207638	11.765	11.754	11.776
ProbeTrack12	7	ProbeTrack	11.3	WolfelabSpurzheim	20101025.115813	20101025.120611	8	0.011766	60	10	60-180	60	120	GapExp	0	74	2	3	1	target	1	627	687	208325	11.765	11.754	11.776
ProbeTrack12	7	ProbeTrack	11.3	WolfelabSpurzheim	20101025.115813	20101025.120620	8	0.011766	60	10	60-180	60	155	GapExp	0	75	2	45	0	distractor	1	556	722	209047	11.765	11.754	11.777
ProbeTrack12	7	ProbeTrack	11.3	WolfelabSpurzheim	20101025.115813	20101025.120628	8	0.011766	60	0	60-180	60	137	GapExp	0	76	2	0	1	target	1	426	787	209834	11.765	11.754	11.777
ProbeTrack12	7	ProbeTrack	11.3	WolfelabSpurzheim	20101025.115813	20101025.120634	8	0.011766	60	0	60-180	60	133	GapExp	0	77	2	1	0	distractor	1	649	676	210510	11.765	11.753	11.775
ProbeTrack12	7	ProbeTrack	11.3	WolfelabSpurzheim	20101025.115813	20101025.120640	8	0.011766	60	0	60-180	60	106	GapExp	0	78	2	1	0	distractor	1	579	711	211221	11.765	11.754	11.776
ProbeTrack12	7	ProbeTrack	11.3	WolfelabSpurzheim	20101025.115813	20101025.120646	8	0.011766	60	10	60-180	60	135	GapExp	0	79	2	1	0	distractor	1	555	723	211944	11.765	11.755	11.776
ProbeTrack12	7	ProbeTrack	11.3	WolfelabSpurzheim	20101025.115813	20101025.120652	8	0.011766	60	10	60-180	60	126	GapExp	0	80	2	1	0	distractor	1	543	729	212673	11.765	11.754	11.777
ProbeTrack12	7	ProbeTrack	11.3	WolfelabSpurzheim	20101025.115813	20101025.120658	8	0.011766	60	10	60-180	60	68	GapExp	0	81	2	45	0	distractor	1	673	664	213337	11.765	11.753	11.776
ProbeTrack12	7	ProbeTrack	11.3	WolfelabSpurzheim	20101025.115813	20101025.120705	8	0.011766	60	0	60-180	60	174	GapExp	0	82	2	1	1	target	1	426	787	214124	11.765	11.754	11.776
ProbeTrack12	7	ProbeTrack	11.3	WolfelabSpurzheim	20101025.115813	20101025.120711	8	0.011766	60	10	60-180	60	143	GapExp	0	83	2	0	1	distractor	0	473	-1000	213124	11.765	11.754	11.777
ProbeTrack12	7	ProbeTrack	11.3	WolfelabSpurzheim	20101025.115813	20101025.120718	8	0.011766	60	10	60-180	60	62	GapExp	0	84	2	1	0	target	0	884	-1000	212124	11.765	11.754	11.775
ProbeTrack12	7	ProbeTrack	11.3	WolfelabSpurzheim	20101025.115813	20101025.120723	8	0.011766	60	0	60-180	60	149	GapExp	0	85	2	45	1	target	1	379	811	212935	11.765	11.754	11.776
ProbeTrack12	7	ProbeTrack	11.3	WolfelabSpurzheim	20101025.115813	20101025.120730	8	0.011766	60	10	60-180	60	166	GapExp	0	86	2	45	0	distractor	1	567	717	213652	11.765	11.754	11.776
ProbeTrack12	7	ProbeTrack	11.3	WolfelabSpurzheim	20101025.115813	20101025.120737	8	0.011766	60	0	60-180	60	64	GapExp	0	87	2	0	0	distractor	1	731	635	214287	11.765	11.754	11.777
ProbeTrack12	7	ProbeTrack	11.3	WolfelabSpurzheim	20101025.115813	20101025.120742	8	0.011766	60	0	60-180	60	97	GapExp	0	88	2	45	0	distractor	1	602	699	214986	11.765	11.753	11.776
ProbeTrack12	7	ProbeTrack	11.3	WolfelabSpurzheim	20101025.115813	20101025.120749	8	0.011766	60	10	60-180	60	88	GapExp	0	89	2	1	1	target	1	449	776	215762	11.765	11.753	11.776
ProbeTrack12	7	ProbeTrack	11.3	WolfelabSpurzheim	20101025.115813	20101025.120754	8	0.011766	60	10	60-180	60	70	GapExp	0	90	2	1	0	distractor	1	579	711	216473	11.765	11.754	11.777
ProbeTrack12	7	ProbeTrack	11.3	WolfelabSpurzheim	20101025.115813	20101025.120800	8	0.011766	60	0	60-180	60	159	GapExp	0	91	2	0	1	target	1	437	782	217255	11.765	11.755	11.776
ProbeTrack12	7	ProbeTrack	11.3	WolfelabSpurzheim	20101025.115813	20101025.120806	8	0.011766	60	0	60-180	60	179	GapExp	0	92	2	45	1	target	1	367	817	218072	11.765	11.742	11.786
ProbeTrack12	7	ProbeTrack	11.3	WolfelabSpurzheim	20101025.115813	20101025.120813	8	0.011766	60	0	60-180	60	166	GapExp	0	93	2	0	0	distractor	1	625	688	218760	11.765	11.755	11.776
ProbeTrack12	7	ProbeTrack	11.3	WolfelabSpurzheim	20101025.115813	20101025.120819	8	0.011766	60	10	60-180	60	176	GapExp	0	94	2	0	0	distractor	1	555	723	219483	11.765	11.754	11.776
ProbeTrack12	7	ProbeTrack	11.3	WolfelabSpurzheim	20101025.115813	20101025.120826	8	0.011766	60	10	60-180	60	82	GapExp	0	95	2	45	0	target	0	543	-1000	218483	11.765	11.754	11.776
ProbeTrack12	7	ProbeTrack	11.3	WolfelabSpurzheim	20101025.115813	20101025.120832	8	0.011766	60	0	60-180	60	104	GapExp	0	96	2	1	0	distractor	1	649	676	219159	11.765	11.754	11.776
ProbeTrack12	7	ProbeTrack	11.3	WolfelabSpurzheim	20101025.115813	20101025.120838	8	0.011766	60	0	60-180	60	126	GapExp	0	97	2	1	1	target	1	449	776	219935	11.765	11.753	11.777
ProbeTrack12	7	ProbeTrack	11.3	WolfelabSpurzheim	20101025.115813	20101025.120844	8	0.011766	60	10	60-180	60	153	GapExp	0	98	2	0	0	target	0	449	-1000	218935	11.765	11.755	11.776
ProbeTrack12	7	ProbeTrack	11.3	WolfelabSpurzheim	20101025.115813	20101025.120850	8	0.011766	60	10	60-180	60	70	GapExp	0	99	2	0	0	target	0	649	-1000	217935	11.765	11.743	11.791
ProbeTrack12	7	ProbeTrack	11.3	WolfelabSpurzheim	20101025.115813	20101025.120856	8	0.011766	60	10	60-180	60	160	GapExp	0	100	2	0	0	distractor	1	1990	5	217940	11.765	11.754	11.777
ProbeTrack12	7	ProbeTrack	11.3	WolfelabSpurzheim	20101025.115813	20101025.120904	8	0.011766	60	0	60-180	60	118	GapExp	0	101	2	0	0	distractor	1	743	629	218569	11.765	11.755	11.776
ProbeTrack12	7	ProbeTrack	11.3	WolfelabSpurzheim	20101025.115813	20101025.120911	8	0.011766	60	10	60-180	60	109	GapExp	0	102	2	45	0	distractor	1	673	664	219233	11.765	11.753	11.777
ProbeTrack12	7	ProbeTrack	11.3	WolfelabSpurzheim	20101025.115813	20101025.120919	8	0.011766	60	10	60-180	60	153	GapExp	0	103	2	45	0	distractor	1	602	699	219932	11.765	11.721	11.803
ProbeTrack12	7	ProbeTrack	11.3	WolfelabSpurzheim	20101025.115813	20101025.120927	8	0.011766	60	0	60-180	60	85	GapExp	0	104	2	3	0	distractor	1	696	652	220584	11.765	11.753	11.777
ProbeTrack12	7	ProbeTrack	11.3	WolfelabSpurzheim	20101025.115813	20101025.120933	8	0.011766	60	0	60-180	60	76	GapExp	0	105	2	3	0	distractor	1	814	593	221177	11.765	11.755	11.775
ProbeTrack12	7	ProbeTrack	11.3	WolfelabSpurzheim	20101025.115813	20101025.120938	8	0.011766	60	10	60-180	60	71	GapExp	0	106	2	45	1	target	1	402	799	221976	11.765	11.754	11.778
ProbeTrack12	7	ProbeTrack	11.3	WolfelabSpurzheim	20101025.115813	20101025.120944	8	0.011766	60	0	60-180	60	155	GapExp	0	107	2	3	0	distractor	1	544	728	222704	11.765	11.753	11.775
ProbeTrack12	7	ProbeTrack	11.3	WolfelabSpurzheim	20101025.115813	20101025.120952	8	0.011766	60	10	60-180	60	106	GapExp	0	108	2	1	1	target	1	367	817	223521	11.765	11.738	11.786
ProbeTrack12	7	ProbeTrack	11.3	WolfelabSpurzheim	20101025.115813	20101025.120958	8	0.011766	60	10	60-180	60	63	GapExp	0	109	2	0	1	target	1	437	782	224303	11.765	11.754	11.777
ProbeTrack12	7	ProbeTrack	11.3	WolfelabSpurzheim	20101025.115813	20101025.121003	8	0.011766	60	10	60-180	60	154	GapExp	0	110	2	1	1	target	1	356	822	225125	11.765	11.754	11.775
ProbeTrack12	7	ProbeTrack	11.3	WolfelabSpurzheim	20101025.115813	20101025.121009	8	0.011766	60	0	60-180	60	89	GapExp	0	111	2	1	0	distractor	1	567	717	225842	11.765	11.755	11.776
ProbeTrack12	7	ProbeTrack	11.3	WolfelabSpurzheim	20101025.115813	20101025.121015	8	0.011766	60	0	60-180	60	130	GapExp	0	112	2	3	1	target	1	355	823	226665	11.765	11.754	11.777
ProbeTrack12	7	ProbeTrack	11.3	WolfelabSpurzheim	20101025.115813	20101025.121021	8	0.011766	60	0	60-180	60	95	GapExp	0	113	2	3	1	target	1	461	770	227435	11.765	11.754	11.776
ProbeTrack12	7	ProbeTrack	11.3	WolfelabSpurzheim	20101025.115813	20101025.121026	8	0.011766	60	0	60-180	60	107	GapExp	0	114	2	45	1	target	1	485	758	228193	11.765	11.754	11.776
ProbeTrack12	7	ProbeTrack	11.3	WolfelabSpurzheim	20101025.115813	20101025.121032	8	0.011766	60	10	60-180	60	128	GapExp	0	115	2	3	1	target	1	403	799	228992	11.765	11.755	11.775
ProbeTrack12	7	ProbeTrack	11.3	WolfelabSpurzheim	20101025.115813	20101025.121038	8	0.011766	60	10	60-180	60	121	GapExp	0	116	2	45	1	target	1	497	752	229744	11.765	11.755	11.778
ProbeTrack12	7	ProbeTrack	11.3	WolfelabSpurzheim	20101025.115813	20101025.121045	8	0.011766	60	0	60-180	60	148	GapExp	0	117	2	45	0	distractor	1	579	711	230455	11.765	11.754	11.777
ProbeTrack12	7	ProbeTrack	11.3	WolfelabSpurzheim	20101025.115813	20101025.121052	8	0.011766	60	10	60-180	60	132	GapExp	0	118	2	3	1	target	1	638	681	231136	11.765	11.754	11.775
ProbeTrack12	7	ProbeTrack	11.3	WolfelabSpurzheim	20101025.115813	20101025.121058	8	0.011766	60	10	60-180	60	99	GapExp	0	119	2	3	1	target	1	391	805	231941	11.765	11.752	11.778
ProbeTrack12	7	ProbeTrack	11.3	WolfelabSpurzheim	20101025.115813	20101025.121104	8	0.011766	60	0	60-180	60	179	GapExp	0	120	2	1	1	target	1	355	823	232764	11.765	11.754	11.775
ProbeTrack12	7	ProbeTrack	11.3	WolfelabSpurzheim	20101025.115813	20101025.121110	8	0.011766	60	10	60-180	60	145	GapExp	0	121	2	1	1	target	1	461	770	233534	11.765	11.754	11.776
ProbeTrack12	7	ProbeTrack	11.3	WolfelabSpurzheim	20101025.115813	20101025.121117	8	0.011766	60	0	60-180	60	177	GapExp	0	122	2	3	0	distractor	1	626	687	234221	11.765	11.753	11.776
ProbeTrack12	7	ProbeTrack	11.3	WolfelabSpurzheim	20101025.115813	20101025.121124	8	0.011766	60	0	60-180	60	76	GapExp	0	123	2	45	1	target	1	403	799	235020	11.765	11.735	11.790
ProbeTrack12	7	ProbeTrack	11.3	WolfelabSpurzheim	20101025.115813	20101025.121130	8	0.011766	60	10	60-180	60	170	GapExp	0	124	2	0	1	target	1	626	687	235707	11.765	11.754	11.777
ProbeTrack12	7	ProbeTrack	11.3	WolfelabSpurzheim	20101025.115813	20101025.121137	8	0.011766	60	0	60-180	60	64	GapExp	0	125	2	45	0	distractor	1	602	699	236406	11.765	11.751	11.779
ProbeTrack12	7	ProbeTrack	11.3	WolfelabSpurzheim	20101025.115813	20101025.121146	8	0.011766	60	0	60-180	60	87	GapExp	0	126	2	0	1	target	1	437	782	237188	11.765	11.754	11.775
ProbeTrack12	7	ProbeTrack	11.3	WolfelabSpurzheim	20101025.115813	20101025.121152	8	0.011766	60	10	60-180	60	150	GapExp	0	127	2	1	1	target	1	497	752	237940	11.765	11.754	11.777
ProbeTrack12	7	ProbeTrack	11.3	WolfelabSpurzheim	20101025.115813	20101025.121158	8	0.011766	60	0	60-180	60	156	GapExp	0	128	2	0	0	distractor	1	614	693	238633	11.765	11.754	11.776
ProbeTrack12	7	ProbeTrack	11.3	WolfelabSpurzheim	20101025.115813	20101025.121204	8	0.011766	60	10	60-180	60	135	GapExp	0	129	2	45	1	target	1	461	770	239403	11.765	11.754	11.776
ProbeTrack12	7	ProbeTrack	11.3	WolfelabSpurzheim	20101025.115813	20101025.121211	8	0.011766	60	10	60-180	60	159	GapExp	0	130	2	1	0	target	0	661	-1000	238403	11.765	11.752	11.776
ProbeTrack12	7	ProbeTrack	11.3	WolfelabSpurzheim	20101025.115813	20101025.121218	8	0.011766	60	0	60-180	60	102	GapExp	0	131	2	1	0	distractor	1	650	675	239078	11.765	11.755	11.775
ProbeTrack12	7	ProbeTrack	11.3	WolfelabSpurzheim	20101025.115813	20101025.121223	8	0.011766	60	10	60-180	60	153	GapExp	0	132	2	3	0	distractor	1	567	717	239795	11.765	11.754	11.776
ProbeTrack12	7	ProbeTrack	11.3	WolfelabSpurzheim	20101025.115813	20101025.121230	8	0.011766	60	0	60-180	60	67	GapExp	0	133	2	1	0	distractor	1	602	699	240494	11.765	11.754	11.777
ProbeTrack12	7	ProbeTrack	11.3	WolfelabSpurzheim	20101025.115813	20101025.121235	8	0.011766	60	10	60-180	60	142	GapExp	0	134	2	3	1	target	1	638	681	241175	11.765	11.754	11.776
ProbeTrack12	7	ProbeTrack	11.3	WolfelabSpurzheim	20101025.115813	20101025.121242	8	0.011766	60	10	60-180	60	120	GapExp	0	135	2	0	1	target	1	650	675	241850	11.765	11.754	11.776
ProbeTrack12	7	ProbeTrack	11.3	WolfelabSpurzheim	20101025.115813	20101025.121248	8	0.011766	60	10	60-180	60	117	GapExp	0	136	2	1	0	distractor	1	485	758	242608	11.765	11.735	11.803
ProbeTrack12	7	ProbeTrack	11.3	WolfelabSpurzheim	20101025.115813	20101025.121254	8	0.011766	60	10	60-180	60	173	GapExp	0	137	2	1	1	target	1	450	775	243383	11.765	11.755	11.776
ProbeTrack12	7	ProbeTrack	11.3	WolfelabSpurzheim	20101025.115813	20101025.121301	8	0.011766	60	10	60-180	60	171	GapExp	0	138	2	1	1	target	1	379	811	244194	11.765	11.754	11.779
ProbeTrack12	7	ProbeTrack	11.3	WolfelabSpurzheim	20101025.115813	20101025.121308	8	0.011766	60	0	60-180	60	103	GapExp	0	139	2	0	0	distractor	1	790	605	244799	11.765	11.755	11.775
ProbeTrack12	7	ProbeTrack	11.3	WolfelabSpurzheim	20101025.115813	20101025.121314	8	0.011766	60	0	60-180	60	122	GapExp	0	140	2	3	0	distractor	1	731	635	245434	11.765	11.744	11.785
ProbeTrack12	7	ProbeTrack	11.3	WolfelabSpurzheim	20101025.115813	20101025.121320	8	0.011766	60	10	60-180	60	85	GapExp	0	141	2	3	0	distractor	1	626	687	246121	11.765	11.756	11.776
ProbeTrack12	7	ProbeTrack	11.3	WolfelabSpurzheim	20101025.115813	20101025.121326	8	0.011766	60	10	60-180	60	91	GapExp	0	142	2	0	1	distractor	0	602	-1000	245121	11.765	11.731	11.804
ProbeTrack12	7	ProbeTrack	11.3	WolfelabSpurzheim	20101025.115813	20101025.121332	8	0.011766	60	0	60-180	60	170	GapExp	0	143	2	45	0	distractor	1	603	699	245820	11.765	11.753	11.776
ProbeTrack12	7	ProbeTrack	11.3	WolfelabSpurzheim	20101025.115813	20101025.121339	8	0.011766	60	10	60-180	60	169	GapExp	0	144	2	0	1	target	1	367	817	246637	11.765	11.754	11.776
ProbeTrack12	7	ProbeTrack	11.3	WolfelabSpurzheim	20101025.115813	20101025.121345	8	0.011766	60	10	60-180	60	65	GapExp	0	145	2	1	0	distractor	1	637	682	247319	11.765	11.754	11.778
ProbeTrack12	7	ProbeTrack	11.3	WolfelabSpurzheim	20101025.115813	20101025.121351	8	0.011766	60	10	60-180	60	87	GapExp	0	146	2	0	1	target	1	391	805	248124	11.765	11.753	11.776
ProbeTrack12	7	ProbeTrack	11.3	WolfelabSpurzheim	20101025.115813	20101025.121357	8	0.011766	60	10	60-180	60	88	GapExp	0	147	2	45	1	target	1	402	799	248923	11.765	11.753	11.776
ProbeTrack12	7	ProbeTrack	11.3	WolfelabSpurzheim	20101025.115813	20101025.121403	8	0.011766	60	0	60-180	60	172	GapExp	0	148	2	1	1	target	1	461	770	249693	11.765	11.754	11.776
ProbeTrack12	7	ProbeTrack	11.3	WolfelabSpurzheim	20101025.115813	20101025.121409	8	0.011766	60	10	60-180	60	153	GapExp	0	149	2	3	0	distractor	1	508	746	250439	11.765	11.755	11.775
ProbeTrack12	7	ProbeTrack	11.3	WolfelabSpurzheim	20101025.115813	20101025.121416	8	0.011766	60	10	60-180	60	179	GapExp	0	150	2	3	0	distractor	1	496	752	251191	11.765	11.749	11.784
ProbeTrack12	7	ProbeTrack	11.3	WolfelabSpurzheim	20101025.115813	20101025.121423	8	0.011766	60	10	60-180	60	160	GapExp	0	151	2	1	0	distractor	1	555	723	251914	11.765	11.753	11.779
ProbeTrack12	7	ProbeTrack	11.3	WolfelabSpurzheim	20101025.115813	20101025.121430	8	0.011766	60	0	60-180	60	151	GapExp	0	152	2	1	1	target	1	379	811	252725	11.765	11.754	11.776
ProbeTrack12	7	ProbeTrack	11.3	WolfelabSpurzheim	20101025.115813	20101025.121437	8	0.011766	60	0	60-180	60	80	GapExp	0	153	2	1	1	target	1	543	729	253454	11.765	11.754	11.776
ProbeTrack12	7	ProbeTrack	11.3	WolfelabSpurzheim	20101025.115813	20101025.121442	8	0.011766	60	0	60-180	60	127	GapExp	0	154	2	3	0	distractor	1	532	734	254188	11.765	11.753	11.776
ProbeTrack12	7	ProbeTrack	11.3	WolfelabSpurzheim	20101025.115813	20101025.121448	8	0.011766	60	0	60-180	60	130	GapExp	0	155	2	1	0	distractor	1	555	723	254911	11.765	11.753	11.775
ProbeTrack12	7	ProbeTrack	11.3	WolfelabSpurzheim	20101025.115813	20101025.121454	8	0.011766	60	0	60-180	60	164	GapExp	0	156	2	3	1	target	1	414	793	255704	11.765	11.752	11.776
ProbeTrack12	7	ProbeTrack	11.3	WolfelabSpurzheim	20101025.115813	20101025.121501	8	0.011766	60	10	60-180	60	101	GapExp	0	157	2	45	1	target	1	391	805	256509	11.765	11.754	11.777
ProbeTrack12	7	ProbeTrack	11.3	WolfelabSpurzheim	20101025.115813	20101025.121507	8	0.011766	60	0	60-180	60	163	GapExp	0	158	2	0	1	target	1	379	811	257320	11.765	11.731	11.796
ProbeTrack12	7	ProbeTrack	11.3	WolfelabSpurzheim	20101025.115813	20101025.121514	8	0.011766	60	10	60-180	60	168	GapExp	0	159	2	45	0	distractor	1	556	722	258042	11.765	11.754	11.776
ProbeTrack12	7	ProbeTrack	11.3	WolfelabSpurzheim	20101025.115813	20101025.121521	8	0.011766	60	10	60-180	60	148	GapExp	0	160	2	45	0	distractor	1	544	728	258770	11.765	11.754	11.776
ProbeTrack12	7	ProbeTrack	11.3	WolfelabSpurzheim	20101025.115813	20101025.121527	8	0.011766	60	10	60-180	60	114	GapExp	0	161	2	0	1	target	1	461	770	259540	11.765	11.754	11.776
ProbeTrack12	7	ProbeTrack	11.3	WolfelabSpurzheim	20101025.115813	20101025.121533	8	0.011766	60	0	60-180	60	72	GapExp	0	162	2	1	0	distractor	1	637	682	260222	11.765	11.753	11.776
ProbeTrack12	7	ProbeTrack	11.3	WolfelabSpurzheim	20101025.115813	20101025.121539	8	0.011766	60	0	60-180	60	97	GapExp	0	163	2	45	1	target	1	473	764	260986	11.765	11.754	11.775
ProbeTrack12	7	ProbeTrack	11.3	WolfelabSpurzheim	20101025.115813	20101025.121545	8	0.011766	60	0	60-180	60	149	GapExp	0	164	2	45	1	target	1	402	799	261785	11.765	11.753	11.776
ProbeTrack12	7	ProbeTrack	11.3	WolfelabSpurzheim	20101025.115813	20101025.121552	8	0.011766	60	10	60-180	60	165	GapExp	0	165	2	1	1	target	1	461	770	262555	11.765	11.753	11.776
ProbeTrack12	7	ProbeTrack	11.3	WolfelabSpurzheim	20101025.115813	20101025.121558	8	0.011766	60	10	60-180	60	87	GapExp	0	166	2	3	1	target	1	473	764	263319	11.765	11.754	11.776
ProbeTrack12	7	ProbeTrack	11.3	WolfelabSpurzheim	20101025.115813	20101025.121604	8	0.011766	60	10	60-180	60	92	GapExp	0	167	2	0	0	distractor	1	1355	323	263642	11.765	11.754	11.776
ProbeTrack12	7	ProbeTrack	11.3	WolfelabSpurzheim	20101025.115813	20101025.121610	8	0.011766	60	10	60-180	60	172	GapExp	0	168	2	0	0	distractor	1	661	670	264312	11.765	11.754	11.776
ProbeTrack12	7	ProbeTrack	11.3	WolfelabSpurzheim	20101025.115813	20101025.121617	8	0.011766	60	10	60-180	60	140	GapExp	0	169	2	0	1	target	1	390	805	265117	11.765	11.754	11.777
ProbeTrack12	7	ProbeTrack	11.3	WolfelabSpurzheim	20101025.115813	20101025.121623	8	0.011766	60	10	60-180	60	141	GapExp	0	170	2	0	1	target	1	343	829	265946	11.765	11.753	11.775
ProbeTrack12	7	ProbeTrack	11.3	WolfelabSpurzheim	20101025.115813	20101025.121629	8	0.011766	60	10	60-180	60	141	GapExp	0	171	2	3	0	target	0	720	-1000	264946	11.765	11.754	11.776
ProbeTrack12	7	ProbeTrack	11.3	WolfelabSpurzheim	20101025.115813	20101025.121637	8	0.011766	60	0	60-180	60	148	GapExp	0	172	2	1	1	target	1	414	793	265739	11.765	11.754	11.778
ProbeTrack12	7	ProbeTrack	11.3	WolfelabSpurzheim	20101025.115813	20101025.121643	8	0.011766	60	0	60-180	60	164	GapExp	0	173	2	3	1	target	1	438	781	266520	11.765	11.740	11.801
ProbeTrack12	7	ProbeTrack	11.3	WolfelabSpurzheim	20101025.115813	20101025.121649	8	0.011766	60	10	60-180	60	91	GapExp	0	174	2	3	1	target	1	461	770	267290	11.765	11.754	11.776
ProbeTrack12	7	ProbeTrack	11.3	WolfelabSpurzheim	20101025.115813	20101025.121655	8	0.011766	60	0	60-180	60	84	GapExp	0	175	2	3	1	target	1	438	781	268071	11.765	11.754	11.775
ProbeTrack12	7	ProbeTrack	11.3	WolfelabSpurzheim	20101025.115813	20101025.121700	8	0.011766	60	0	60-180	60	130	GapExp	0	176	2	0	0	distractor	1	649	676	268747	11.765	11.738	11.787
ProbeTrack12	7	ProbeTrack	11.3	WolfelabSpurzheim	20101025.115813	20101025.121707	8	0.011766	60	10	60-180	60	173	GapExp	0	177	2	0	0	target	0	508	-1000	267747	11.765	11.751	11.777
ProbeTrack12	7	ProbeTrack	11.3	WolfelabSpurzheim	20101025.115813	20101025.121713	8	0.011766	60	10	60-180	60	168	GapExp	0	178	2	3	0	distractor	1	614	693	268440	11.765	11.755	11.776
ProbeTrack12	7	ProbeTrack	11.3	WolfelabSpurzheim	20101025.115813	20101025.121720	8	0.011766	60	10	60-180	60	98	GapExp	0	179	2	1	0	distractor	1	837	582	269022	11.765	11.753	11.776
ProbeTrack12	7	ProbeTrack	11.3	WolfelabSpurzheim	20101025.115813	20101025.121726	8	0.011766	60	0	60-180	60	115	GapExp	0	180	2	1	1	target	1	520	740	269762	11.765	11.754	11.776
ProbeTrack12	7	ProbeTrack	11.3	WolfelabSpurzheim	20101025.115813	20101025.121732	8	0.011766	60	0	60-180	60	160	GapExp	0	181	2	45	0	distractor	1	578	711	270473	11.765	11.752	11.777
ProbeTrack12	7	ProbeTrack	11.3	WolfelabSpurzheim	20101025.115813	20101025.121739	8	0.011766	60	0	60-180	60	129	GapExp	0	182	2	3	1	target	1	567	717	271190	11.765	11.754	11.776
ProbeTrack12	7	ProbeTrack	11.3	WolfelabSpurzheim	20101025.115813	20101025.121745	8	0.011766	60	0	60-180	60	84	GapExp	0	183	2	1	1	target	1	473	764	271954	11.765	11.733	11.798
ProbeTrack12	7	ProbeTrack	11.3	WolfelabSpurzheim	20101025.115813	20101025.121751	8	0.011766	60	0	60-180	60	107	GapExp	0	184	2	3	0	distractor	1	602	699	272653	11.765	11.710	11.812
ProbeTrack12	7	ProbeTrack	11.3	WolfelabSpurzheim	20101025.115813	20101025.121807	8	0.011766	60	0	60-180	60	96	GapExp	0	185	2	1	0	distractor	1	567	717	273370	11.765	11.754	11.777
ProbeTrack12	7	ProbeTrack	11.3	WolfelabSpurzheim	20101025.115813	20101025.121813	8	0.011766	60	0	60-180	60	168	GapExp	0	186	2	3	1	target	1	402	799	274169	11.765	11.755	11.777
ProbeTrack12	7	ProbeTrack	11.3	WolfelabSpurzheim	20101025.115813	20101025.121819	8	0.011766	60	10	60-180	60	83	GapExp	0	187	2	3	0	distractor	1	661	670	274839	11.765	11.753	11.777
ProbeTrack12	7	ProbeTrack	11.3	WolfelabSpurzheim	20101025.115813	20101025.121825	8	0.011766	60	0	60-180	60	93	GapExp	0	188	2	3	1	target	1	484	758	275597	11.765	11.755	11.776
ProbeTrack12	7	ProbeTrack	11.3	WolfelabSpurzheim	20101025.115813	20101025.121832	8	0.011766	60	10	60-180	60	61	GapExp	0	189	2	45	0	distractor	1	638	681	276278	11.765	11.754	11.776
ProbeTrack12	7	ProbeTrack	11.3	WolfelabSpurzheim	20101025.115813	20101025.121838	8	0.011766	60	10	60-180	60	111	GapExp	0	190	2	0	0	distractor	1	543	729	277007	11.765	11.753	11.776
ProbeTrack12	7	ProbeTrack	11.3	WolfelabSpurzheim	20101025.115813	20101025.121844	8	0.011766	60	0	60-180	60	169	GapExp	0	191	2	0	1	target	1	367	817	277824	11.765	11.754	11.777
ProbeTrack12	7	ProbeTrack	11.3	WolfelabSpurzheim	20101025.115813	20101025.121850	8	0.011766	60	0	60-180	60	137	GapExp	0	192	2	1	1	target	1	426	787	278611	11.765	11.754	11.775
ProbeTrack12	7	ProbeTrack	11.3	WolfelabSpurzheim	20101025.115813	20101025.121856	8	0.011766	60	10	60-180	60	132	GapExp	0	193	2	3	0	distractor	1	473	764	279375	11.765	11.754	11.778
ProbeTrack12	7	ProbeTrack	11.3	WolfelabSpurzheim	20101025.115813	20101025.121902	8	0.011766	60	10	60-180	60	104	GapExp	0	194	2	45	1	target	1	860	570	279945	11.765	11.754	11.776
ProbeTrack12	7	ProbeTrack	11.3	WolfelabSpurzheim	20101025.115813	20101025.121909	8	0.011766	60	10	60-180	60	128	GapExp	0	195	2	0	0	distractor	1	520	740	280685	11.765	11.754	11.776
ProbeTrack12	7	ProbeTrack	11.3	WolfelabSpurzheim	20101025.115813	20101025.121916	8	0.011766	60	10	60-180	60	133	GapExp	0	196	2	0	0	distractor	1	567	717	281402	11.765	11.754	11.777
ProbeTrack12	7	ProbeTrack	11.3	WolfelabSpurzheim	20101025.115813	20101025.121922	8	0.011766	60	10	60-180	60	126	GapExp	0	197	2	45	0	distractor	1	743	629	282031	11.765	11.754	11.776
ProbeTrack12	7	ProbeTrack	11.3	WolfelabSpurzheim	20101025.115813	20101025.121930	8	0.011766	60	0	60-180	60	99	GapExp	0	198	2	3	1	target	1	367	817	282848	11.765	11.754	11.777
ProbeTrack12	7	ProbeTrack	11.3	WolfelabSpurzheim	20101025.115813	20101025.121935	8	0.011766	60	0	60-180	60	138	GapExp	0	199	2	3	0	distractor	1	543	729	283577	11.765	11.753	11.777
ProbeTrack12	7	ProbeTrack	11.3	WolfelabSpurzheim	20101025.115813	20101025.121942	8	0.011766	60	10	60-180	60	152	GapExp	0	200	2	0	1	target	1	343	829	284406	11.765	11.755	11.777
ProbeTrack12	7	ProbeTrack	11.3	WolfelabSpurzheim	20101025.115813	20101025.121948	8	0.011766	60	10	60-180	60	95	GapExp	0	201	2	3	0	target	0	1378	-1000	283406	11.765	11.753	11.775
ProbeTrack12	7	ProbeTrack	11.3	WolfelabSpurzheim	20101025.115813	20101025.121955	8	0.011766	60	0	60-180	60	174	GapExp	0	202	2	3	0	distractor	1	638	681	284087	11.765	11.735	11.795
ProbeTrack12	7	ProbeTrack	11.3	WolfelabSpurzheim	20101025.115813	20101025.122001	8	0.011766	60	0	60-180	60	63	GapExp	0	203	2	0	1	target	1	473	764	284851	11.765	11.753	11.778
ProbeTrack12	7	ProbeTrack	11.3	WolfelabSpurzheim	20101025.115813	20101025.122007	8	0.011766	60	0	60-180	60	161	GapExp	0	204	2	0	0	distractor	1	555	723	285574	11.765	11.755	11.777
ProbeTrack12	7	ProbeTrack	11.3	WolfelabSpurzheim	20101025.115813	20101025.122013	8	0.011766	60	0	60-180	60	131	GapExp	0	205	2	45	0	distractor	1	567	717	286291	11.765	11.754	11.777
ProbeTrack12	7	ProbeTrack	11.3	WolfelabSpurzheim	20101025.115813	20101025.122019	8	0.011766	60	10	60-180	60	82	GapExp	0	206	2	45	1	target	1	402	799	287090	11.765	11.755	11.776
ProbeTrack12	7	ProbeTrack	11.3	WolfelabSpurzheim	20101025.115813	20101025.122025	8	0.011766	60	10	60-180	60	168	GapExp	0	207	2	0	1	target	1	355	823	287913	11.765	11.752	11.776
ProbeTrack12	7	ProbeTrack	11.3	WolfelabSpurzheim	20101025.115813	20101025.122032	8	0.011766	60	0	60-180	60	124	GapExp	0	208	2	0	1	target	1	590	705	288618	11.765	11.755	11.777
ProbeTrack12	7	ProbeTrack	11.3	WolfelabSpurzheim	20101025.115813	20101025.122038	8	0.011766	60	10	60-180	60	148	GapExp	0	209	2	3	1	target	1	367	817	289435	11.765	11.753	11.777
ProbeTrack12	7	ProbeTrack	11.3	WolfelabSpurzheim	20101025.115813	20101025.122045	8	0.011766	60	10	60-180	60	120	GapExp	0	210	2	3	0	distractor	1	438	781	290216	11.765	11.740	11.784
ProbeTrack12	7	ProbeTrack	11.3	WolfelabSpurzheim	20101025.115813	20101025.122050	8	0.011766	60	10	60-180	60	110	GapExp	0	211	2	3	0	distractor	1	590	705	290921	11.765	11.743	11.790
ProbeTrack12	7	ProbeTrack	11.3	WolfelabSpurzheim	20101025.115813	20101025.122056	8	0.011766	60	0	60-180	60	109	GapExp	0	212	2	45	1	target	1	402	799	291720	11.765	11.754	11.776
ProbeTrack12	7	ProbeTrack	11.3	WolfelabSpurzheim	20101025.115813	20101025.122103	8	0.011766	60	10	60-180	60	65	GapExp	0	213	2	1	0	distractor	1	649	676	292396	11.765	11.753	11.775
ProbeTrack12	7	ProbeTrack	11.3	WolfelabSpurzheim	20101025.115813	20101025.122108	8	0.011766	60	10	60-180	60	137	GapExp	0	214	2	3	1	target	1	497	752	293148	11.765	11.754	11.777
ProbeTrack12	7	ProbeTrack	11.3	WolfelabSpurzheim	20101025.115813	20101025.122115	8	0.011766	60	0	60-180	60	142	GapExp	0	215	2	45	1	target	1	485	758	293906	11.765	11.754	11.776
ProbeTrack12	7	ProbeTrack	11.3	WolfelabSpurzheim	20101025.115813	20101025.122121	8	0.011766	60	10	60-180	60	141	GapExp	0	216	2	0	0	distractor	1	849	576	294482	11.765	11.754	11.775
ProbeTrack12	7	ProbeTrack	11.3	WolfelabSpurzheim	20101025.115813	20101025.122128	8	0.011766	60	0	60-180	60	64	GapExp	0	217	2	1	0	distractor	1	731	635	295117	11.765	11.754	11.775
ProbeTrack12	7	ProbeTrack	11.3	WolfelabSpurzheim	20101025.115813	20101025.122133	8	0.011766	60	10	60-180	60	85	GapExp	0	218	2	1	1	target	1	473	764	295881	11.765	11.755	11.776
ProbeTrack12	7	ProbeTrack	11.3	WolfelabSpurzheim	20101025.115813	20101025.122139	8	0.011766	60	0	60-180	60	121	GapExp	0	219	2	45	1	target	1	461	770	296651	11.765	11.754	11.775
ProbeTrack12	7	ProbeTrack	11.3	WolfelabSpurzheim	20101025.115813	20101025.122145	8	0.011766	60	10	60-180	60	79	GapExp	0	220	2	1	0	distractor	1	696	652	297303	11.765	11.753	11.776
ProbeTrack12	7	ProbeTrack	11.3	WolfelabSpurzheim	20101025.115813	20101025.122151	8	0.011766	60	0	60-180	60	158	GapExp	0	221	2	1	1	target	1	414	793	298096	11.765	11.753	11.777
ProbeTrack12	7	ProbeTrack	11.3	WolfelabSpurzheim	20101025.115813	20101025.122157	8	0.011766	60	10	60-180	60	132	GapExp	0	222	2	1	0	distractor	1	579	711	298807	11.765	11.697	11.831
ProbeTrack12	7	ProbeTrack	11.3	WolfelabSpurzheim	20101025.115813	20101025.122203	8	0.011766	60	0	60-180	60	126	GapExp	0	223	2	0	0	distractor	1	626	687	299494	11.765	11.753	11.777
ProbeTrack12	7	ProbeTrack	11.3	WolfelabSpurzheim	20101025.115813	20101025.122210	8	0.011766	60	0	60-180	60	158	GapExp	0	224	2	3	0	distractor	1	614	693	300187	11.765	11.736	11.797
ProbeTrack12	7	ProbeTrack	11.3	WolfelabSpurzheim	20101025.115813	20101025.122216	8	0.011766	60	10	60-180	60	145	GapExp	0	225	2	3	0	distractor	1	508	746	300933	11.765	11.755	11.776
ProbeTrack12	7	ProbeTrack	11.3	WolfelabSpurzheim	20101025.115813	20101025.122223	8	0.011766	60	0	60-180	60	129	GapExp	0	226	2	45	1	target	1	426	787	301720	11.765	11.752	11.777
ProbeTrack12	7	ProbeTrack	11.3	WolfelabSpurzheim	20101025.115813	20101025.122230	8	0.011766	60	0	60-180	60	102	GapExp	0	227	2	3	0	distractor	1	567	717	302437	11.765	11.754	11.776
ProbeTrack12	7	ProbeTrack	11.3	WolfelabSpurzheim	20101025.115813	20101025.122249	8	0.011766	60	0	60-180	60	158	GapExp	0	228	2	45	0	distractor	1	555	723	303160	11.765	11.754	11.775
ProbeTrack12	7	ProbeTrack	11.3	WolfelabSpurzheim	20101025.115813	20101025.122256	8	0.011766	60	0	60-180	60	131	GapExp	0	229	2	3	0	distractor	1	719	641	303801	11.765	11.749	11.777
ProbeTrack12	7	ProbeTrack	11.3	WolfelabSpurzheim	20101025.115813	20101025.122302	8	0.011766	60	10	60-180	60	96	GapExp	0	230	2	3	1	target	1	426	787	304588	11.765	11.754	11.777
ProbeTrack12	7	ProbeTrack	11.3	WolfelabSpurzheim	20101025.115813	20101025.122308	8	0.011766	60	10	60-180	60	128	GapExp	0	231	2	1	1	target	1	426	787	305375	11.765	11.754	11.776
ProbeTrack12	7	ProbeTrack	11.3	WolfelabSpurzheim	20101025.115813	20101025.122314	8	0.011766	60	0	60-180	60	94	GapExp	0	232	2	45	1	target	1	379	811	306186	11.765	11.754	11.776
ProbeTrack12	7	ProbeTrack	11.3	WolfelabSpurzheim	20101025.115813	20101025.122320	8	0.011766	60	10	60-180	60	63	GapExp	0	233	2	3	0	distractor	1	532	734	306920	11.765	11.754	11.775
ProbeTrack12	7	ProbeTrack	11.3	WolfelabSpurzheim	20101025.115813	20101025.122326	8	0.011766	60	10	60-180	60	80	GapExp	0	234	2	1	0	distractor	1	532	734	307654	11.765	11.753	11.777
ProbeTrack12	7	ProbeTrack	11.3	WolfelabSpurzheim	20101025.115813	20101025.122332	8	0.011766	60	0	60-180	60	167	GapExp	0	235	2	1	0	distractor	1	625	688	308342	11.765	11.754	11.776
ProbeTrack12	7	ProbeTrack	11.3	WolfelabSpurzheim	20101025.115813	20101025.122338	8	0.011766	60	0	60-180	60	103	GapExp	0	236	2	3	1	target	1	437	782	309124	11.765	11.755	11.775
ProbeTrack12	7	ProbeTrack	11.3	WolfelabSpurzheim	20101025.115813	20101025.122344	8	0.011766	60	10	60-180	60	114	GapExp	0	237	2	45	1	target	1	438	781	309905	11.765	11.754	11.776
ProbeTrack12	7	ProbeTrack	11.3	WolfelabSpurzheim	20101025.115813	20101025.122350	8	0.011766	60	0	60-180	60	137	GapExp	0	238	2	45	0	distractor	1	543	729	310634	11.765	11.754	11.776
ProbeTrack12	7	ProbeTrack	11.3	WolfelabSpurzheim	20101025.115813	20101025.122356	8	0.011766	60	0	60-180	60	104	GapExp	0	239	2	0	1	target	1	461	770	311404	11.765	11.753	11.776
ProbeTrack12	7	ProbeTrack	11.3	WolfelabSpurzheim	20101025.115813	20101025.122402	8	0.011766	60	10	60-180	60	156	GapExp	0	240	2	45	1	distractor	0	391	-1000	310404	11.765	11.754	11.776
ProbeTrack12	7	ProbeTrack	11.3	WolfelabSpurzheim	20101025.115813	20101025.122409	8	0.011766	60	10	60-180	60	111	GapExp	0	241	2	45	1	target	1	532	734	311138	11.765	11.746	11.787
ProbeTrack12	7	ProbeTrack	11.3	WolfelabSpurzheim	20101025.115813	20101025.122416	8	0.011766	60	10	60-180	60	93	GapExp	0	242	2	3	1	target	1	485	758	311896	11.765	11.756	11.776
ProbeTrack12	7	ProbeTrack	11.3	WolfelabSpurzheim	20101025.115813	20101025.122422	8	0.011766	60	10	60-180	60	154	GapExp	0	243	2	3	1	target	1	426	787	312683	11.765	11.753	11.777
ProbeTrack12	7	ProbeTrack	11.3	WolfelabSpurzheim	20101025.115813	20101025.122428	8	0.011766	60	0	60-180	60	82	GapExp	0	244	2	45	1	target	1	485	758	313441	11.765	11.753	11.776
ProbeTrack12	7	ProbeTrack	11.3	WolfelabSpurzheim	20101025.115813	20101025.122435	8	0.011766	60	0	60-180	60	163	GapExp	0	245	2	45	0	distractor	1	673	664	314105	11.765	11.735	11.797
ProbeTrack12	7	ProbeTrack	11.3	WolfelabSpurzheim	20101025.115813	20101025.122442	8	0.011766	60	0	60-180	60	175	GapExp	0	246	2	0	0	distractor	1	673	664	314769	11.765	11.754	11.777
ProbeTrack12	7	ProbeTrack	11.3	WolfelabSpurzheim	20101025.115813	20101025.122449	8	0.011766	60	0	60-180	60	114	GapExp	0	247	2	0	1	target	1	484	758	315527	11.765	11.755	11.776
ProbeTrack12	7	ProbeTrack	11.3	WolfelabSpurzheim	20101025.115813	20101025.122455	8	0.011766	60	10	60-180	60	173	GapExp	0	248	2	1	1	target	1	449	776	316303	11.765	11.754	11.777
ProbeTrack12	7	ProbeTrack	11.3	WolfelabSpurzheim	20101025.115813	20101025.122502	8	0.011766	60	0	60-180	60	176	GapExp	0	249	2	3	1	target	1	638	681	316984	11.765	11.754	11.777
ProbeTrack12	7	ProbeTrack	11.3	WolfelabSpurzheim	20101025.115813	20101025.122511	8	0.011766	60	10	60-180	60	128	GapExp	0	250	2	45	1	target	1	449	776	317760	11.765	11.754	11.776
