exp	sub	code	rev	comp	runtime	trialtime	nstim	refreshdur	cuedur	gapdur	gapOnsetRange	durPostProbe	gapOnsetTime	blocktype	prac	trial	ntargets	soa	probeTarget	resp	acc	rt	meanFrameDur	minFrameDur	maxFrameDur
ProbeTrack7	17	ProbeTrack	1406	SCS215f	733718.386364	733718.386701	8	0.013328	60	0	60-180	60	90	NoGap	1	1	4	3	0	distractor	1	1173	13.328	13.324	13.333
ProbeTrack7	17	ProbeTrack	1406	SCS215f	733718.386364	733718.386997	8	0.013328	60	0	60-180	60	178	NoGap	1	2	4	96	1	distractor	0	640	13.328	13.314	13.341
ProbeTrack7	17	ProbeTrack	1406	SCS215f	733718.386364	733718.387123	8	0.013328	60	0	60-180	60	105	NoGap	1	3	4	96	1	distractor	0	467	13.328	13.322	13.335
ProbeTrack7	17	ProbeTrack	1406	SCS215f	733718.386364	733718.387211	8	0.013328	60	0	60-180	60	144	NoGap	1	4	4	0	0	target	0	520	13.328	13.325	13.333
ProbeTrack7	17	ProbeTrack	1406	SCS215f	733718.386364	733718.387298	8	0.013328	60	0	60-180	60	86	NoGap	1	5	4	96	0	distractor	1	733	13.328	13.322	13.333
ProbeTrack7	17	ProbeTrack	1406	SCS215f	733718.386364	733718.387382	8	0.013328	60	0	60-180	60	81	NoGap	1	6	4	6	1	distractor	0	467	13.328	13.322	13.333
ProbeTrack7	17	ProbeTrack	1406	SCS215f	733718.386364	733718.387447	8	0.013328	60	0	60-180	60	141	NoGap	1	7	4	6	1	target	1	400	13.328	13.323	13.333
ProbeTrack7	17	ProbeTrack	1406	SCS215f	733718.386364	733718.387517	8	0.013328	60	0	60-180	60	80	NoGap	1	8	4	0	0	target	0	693	13.328	13.323	13.332
ProbeTrack7	17	ProbeTrack	1406	SCS215f	733718.386364	733718.387586	8	0.013328	60	0	60-180	60	176	NoGap	1	9	4	6	0	distractor	1	307	13.328	13.324	13.332
ProbeTrack7	17	ProbeTrack	1406	SCS215f	733718.386364	733718.387665	8	0.013328	60	0	60-180	60	61	NoGap	1	10	4	3	1	distractor	0	400	13.328	13.326	13.330
ProbeTrack7	17	ProbeTrack	1406	SCS215f	733718.386364	733718.387726	8	0.013328	60	0	60-180	60	112	NoGap	1	11	4	3	1	target	1	547	13.328	13.324	13.333
ProbeTrack7	17	ProbeTrack	1406	SCS215f	733718.386364	733718.387801	8	0.013328	60	0	60-180	60	144	NoGap	1	12	4	3	1	distractor	0	507	13.328	13.323	13.332
ProbeTrack7	17	ProbeTrack	1406	SCS215f	733718.386364	733718.387882	8	0.013328	60	0	60-180	60	156	NoGap	1	13	4	0	1	distractor	0	454	13.328	13.323	13.332
ProbeTrack7	17	ProbeTrack	1406	SCS215f	733718.386364	733718.388338	8	0.013328	60	0	60-180	60	163	NoGap	1	14	4	96	1	target	1	414	13.328	13.323	13.333
ProbeTrack7	17	ProbeTrack	1406	SCS215f	733718.386364	733718.388431	8	0.013328	60	0	60-180	60	171	NoGap	1	15	4	6	1	target	1	440	13.328	13.322	13.333
ProbeTrack7	17	ProbeTrack	1406	SCS215f	733718.386364	733718.388513	8	0.013328	60	0	60-180	60	98	NoGap	1	16	4	6	0	target	0	467	13.328	13.323	13.332
ProbeTrack7	17	ProbeTrack	1406	SCS215f	733718.386364	733718.388585	8	0.013328	60	0	60-180	60	131	NoGap	1	17	4	0	0	distractor	1	493	13.328	13.323	13.333
ProbeTrack7	17	ProbeTrack	1406	SCS215f	733718.386364	733718.388659	8	0.013328	60	0	60-180	60	127	NoGap	1	18	4	0	1	target	1	893	13.328	13.312	13.343
ProbeTrack7	17	ProbeTrack	1406	SCS215f	733718.386364	733718.388738	8	0.013328	60	0	60-180	60	102	NoGap	1	19	4	3	0	target	0	467	13.328	13.307	13.349
ProbeTrack7	17	ProbeTrack	1406	SCS215f	733718.386364	733718.388807	8	0.013328	60	0	60-180	60	110	NoGap	1	20	4	3	0	distractor	1	533	13.328	13.323	13.333
ProbeTrack7	17	ProbeTrack	1406	SCS215f	733718.386364	733718.388877	8	0.013328	60	0	60-180	60	173	NoGap	1	21	4	96	0	target	0	867	13.328	13.323	13.332
ProbeTrack7	17	ProbeTrack	1406	SCS215f	733718.386364	733718.388976	8	0.013328	60	0	60-180	60	103	NoGap	1	22	4	96	0	target	0	600	13.328	13.322	13.333
ProbeTrack7	17	ProbeTrack	1406	SCS215f	733718.386364	733718.389063	8	0.013328	60	0	60-180	60	158	NoGap	1	23	4	6	0	distractor	1	360	13.328	13.323	13.334
ProbeTrack7	17	ProbeTrack	1406	SCS215f	733718.386364	733718.389138	8	0.013328	60	0	60-180	60	158	NoGap	1	24	4	3	0	distractor	1	947	13.328	13.318	13.338
ProbeTrack7	17	ProbeTrack	1406	SCS215f	733718.386364	733718.389237	8	0.013328	60	0	60-180	60	68	NoGap	1	25	4	6	1	target	1	667	13.328	13.324	13.331
ProbeTrack7	17	ProbeTrack	1406	SCS215f	733718.386364	733718.389303	8	0.013328	60	0	60-180	60	95	NoGap	1	26	4	3	0	distractor	1	800	13.328	13.322	13.333
ProbeTrack7	17	ProbeTrack	1406	SCS215f	733718.386364	733718.389376	8	0.013328	60	0	60-180	60	101	NoGap	1	27	4	0	0	target	0	600	13.328	13.323	13.332
ProbeTrack7	17	ProbeTrack	1406	SCS215f	733718.386364	733718.389446	8	0.013328	60	0	60-180	60	166	NoGap	1	28	4	3	1	target	1	653	13.328	13.322	13.333
ProbeTrack7	17	ProbeTrack	1406	SCS215f	733718.386364	733718.389527	8	0.013328	60	0	60-180	60	178	NoGap	1	29	4	0	0	distractor	1	440	13.328	13.321	13.334
ProbeTrack7	17	ProbeTrack	1406	SCS215f	733718.386364	733718.389636	8	0.013328	60	0	60-180	60	175	NoGap	1	30	4	6	1	distractor	0	707	13.328	13.317	13.339
ProbeTrack7	17	ProbeTrack	1406	SCS215f	733718.386364	733718.389718	8	0.013328	60	0	60-180	60	79	NoGap	1	31	4	3	1	distractor	0	467	13.328	13.323	13.332
ProbeTrack7	17	ProbeTrack	1406	SCS215f	733718.386364	733718.389785	8	0.013328	60	0	60-180	60	139	NoGap	1	32	4	6	1	distractor	0	653	13.328	13.323	13.332
ProbeTrack7	17	ProbeTrack	1406	SCS215f	733718.386364	733718.389860	8	0.013328	60	0	60-180	60	115	NoGap	1	33	4	6	0	distractor	1	520	13.328	13.324	13.332
ProbeTrack7	17	ProbeTrack	1406	SCS215f	733718.386364	733718.389927	8	0.013328	60	0	60-180	60	83	NoGap	1	34	4	6	0	32	-3	507	13.328	13.321	13.335
ProbeTrack7	17	ProbeTrack	1406	SCS215f	733718.386364	733718.389994	8	0.013328	60	0	60-180	60	98	NoGap	1	35	4	0	0	distractor	1	520	13.328	13.326	13.329
ProbeTrack7	17	ProbeTrack	1406	SCS215f	733718.386364	733718.390064	8	0.013328	60	0	60-180	60	122	NoGap	1	36	4	0	1	distractor	0	560	13.328	13.324	13.331
ProbeTrack7	17	ProbeTrack	1406	SCS215f	733718.386364	733718.390137	8	0.013328	60	0	60-180	60	137	NoGap	1	37	4	96	1	distractor	0	453	13.328	13.324	13.333
ProbeTrack7	17	ProbeTrack	1406	SCS215f	733718.386364	733718.390226	8	0.013328	60	0	60-180	60	106	NoGap	1	38	4	6	0	distractor	1	653	13.328	13.318	13.337
ProbeTrack7	17	ProbeTrack	1406	SCS215f	733718.386364	733718.390297	8	0.013328	60	0	60-180	60	172	NoGap	1	39	4	3	1	distractor	0	520	13.328	13.322	13.332
ProbeTrack7	17	ProbeTrack	1406	SCS215f	733718.386364	733718.390379	8	0.013328	60	0	60-180	60	106	NoGap	1	40	4	96	0	distractor	1	613	13.328	13.321	13.334
ProbeTrack7	17	ProbeTrack	1406	SCS215f	733718.386364	733718.390464	8	0.013328	60	0	60-180	60	138	NoGap	1	41	4	0	1	target	1	773	13.328	13.326	13.330
ProbeTrack7	17	ProbeTrack	1406	SCS215f	733718.386364	733718.390540	8	0.013328	60	0	60-180	60	125	NoGap	1	42	4	96	0	distractor	1	613	13.328	13.323	13.333
ProbeTrack7	17	ProbeTrack	1406	SCS215f	733718.386364	733718.390630	8	0.013328	60	0	60-180	60	104	NoGap	1	43	4	96	1	distractor	0	720	13.328	13.323	13.332
ProbeTrack7	17	ProbeTrack	1406	SCS215f	733718.386364	733718.390716	8	0.013328	60	0	60-180	60	158	NoGap	1	44	4	6	1	target	1	2986	13.328	13.323	13.333
ProbeTrack7	17	ProbeTrack	1406	SCS215f	733718.386364	733718.390824	8	0.013328	60	0	60-180	60	139	NoGap	1	45	4	0	0	distractor	1	1186	13.328	13.323	13.333
ProbeTrack7	17	ProbeTrack	1406	SCS215f	733718.386364	733718.390911	8	0.013328	60	0	60-180	60	63	NoGap	1	46	4	96	1	distractor	0	787	13.328	13.324	13.333
ProbeTrack7	17	ProbeTrack	1406	SCS215f	733718.386364	733718.390992	8	0.013328	60	0	60-180	60	72	NoGap	1	47	4	96	1	distractor	0	427	13.328	13.323	13.332
ProbeTrack7	17	ProbeTrack	1406	SCS215f	733718.386364	733718.391069	8	0.013328	60	0	60-180	60	82	NoGap	1	48	4	0	1	target	1	507	13.328	13.323	13.332
ProbeTrack7	17	ProbeTrack	1406	SCS215f	733718.386364	733718.391131	8	0.013328	60	0	60-180	60	102	NoGap	1	49	4	96	0	distractor	1	507	13.328	13.323	13.333
ProbeTrack7	17	ProbeTrack	1406	SCS215f	733718.386364	733718.391214	8	0.013328	60	0	60-180	60	98	NoGap	1	50	4	3	0	target	0	720	13.328	13.324	13.331
ProbeTrack7	17	ProbeTrack	1406	SCS215f	733718.392165	733718.392266	8	0.013328	60	0	60-180	60	105	NoGap	1	1	4	96	1	target	1	480	13.328	13.322	13.334
ProbeTrack7	17	ProbeTrack	1406	SCS215f	733718.392165	733718.392518	8	0.013328	60	0	60-180	60	153	NoGap	1	2	4	96	0	distractor	1	320	13.328	13.325	13.333
ProbeTrack7	17	ProbeTrack	1406	SCS215f	733718.392165	733718.392639	8	0.013328	60	0	60-180	60	63	NoGap	1	3	4	3	0	distractor	1	747	13.328	13.323	13.334
ProbeTrack7	17	ProbeTrack	1406	SCS215f	733718.392165	733718.392709	8	0.013328	60	0	60-180	60	180	NoGap	1	4	4	6	1	target	1	640	13.328	13.324	13.332
ProbeTrack7	17	ProbeTrack	1406	SCS215f	733718.392165	733718.392859	8	0.013328	60	0	60-180	60	89	NoGap	1	5	4	3	1	distractor	0	707	13.328	13.318	13.340
ProbeTrack7	17	ProbeTrack	1406	SCS215f	733718.392165	733718.392930	8	0.013328	60	0	60-180	60	128	NoGap	1	6	4	0	0	distractor	1	374	13.328	13.322	13.332
ProbeTrack7	17	ProbeTrack	1406	SCS215f	733718.392165	733718.393109	8	0.013328	60	0	60-180	60	137	NoGap	1	7	4	3	0	distractor	1	507	13.328	13.324	13.331
ProbeTrack7	17	ProbeTrack	1406	SCS215f	733718.392165	733718.393276	8	0.013328	60	0	60-180	60	67	NoGap	1	8	4	96	0	distractor	1	480	13.328	13.321	13.334
ProbeTrack7	17	ProbeTrack	1406	SCS215f	733718.392165	733718.393379	8	0.013328	60	0	60-180	60	121	NoGap	1	9	4	6	0	distractor	1	547	13.328	13.322	13.332
ProbeTrack7	17	ProbeTrack	1406	SCS215f	733718.392165	733718.393460	8	0.013328	60	0	60-180	60	66	NoGap	1	10	4	6	1	distractor	0	454	13.328	13.326	13.330
ProbeTrack7	17	ProbeTrack	1406	SCS215f	733718.392165	733718.393564	8	0.013328	60	0	60-180	60	107	NoGap	1	11	4	3	1	target	1	467	13.328	13.326	13.330
ProbeTrack7	17	ProbeTrack	1406	SCS215f	733718.392165	733718.393641	8	0.013328	60	0	60-180	60	76	NoGap	1	12	4	0	0	distractor	1	547	13.328	13.324	13.331
ProbeTrack7	17	ProbeTrack	1406	SCS215f	733718.392165	733718.393705	8	0.013328	60	0	60-180	60	111	NoGap	1	13	4	3	1	target	1	573	13.328	13.326	13.330
ProbeTrack7	17	ProbeTrack	1406	SCS215f	733718.392165	733718.393778	8	0.013328	60	0	60-180	60	91	NoGap	1	14	4	0	1	target	1	480	13.328	13.325	13.332
ProbeTrack7	17	ProbeTrack	1406	SCS215f	733718.392165	733718.393882	8	0.013328	60	0	60-180	60	115	NoGap	1	15	4	3	1	target	1	387	13.328	13.326	13.330
ProbeTrack7	17	ProbeTrack	1406	SCS215f	733718.392165	733718.393981	8	0.013328	60	0	60-180	60	62	NoGap	1	16	4	6	0	target	0	307	13.328	13.323	13.332
ProbeTrack7	17	ProbeTrack	1406	SCS215f	733718.392165	733718.394081	8	0.013328	60	0	60-180	60	84	NoGap	1	17	4	0	0	target	0	533	13.328	13.323	13.333
ProbeTrack7	17	ProbeTrack	1406	SCS215f	733718.392165	733718.394146	8	0.013328	60	0	60-180	60	118	NoGap	1	18	4	96	0	distractor	1	547	13.328	13.322	13.333
ProbeTrack7	17	ProbeTrack	1406	SCS215f	733718.392165	733718.394233	8	0.013328	60	0	60-180	60	86	NoGap	1	19	4	96	1	target	1	520	13.328	13.323	13.332
ProbeTrack7	17	ProbeTrack	1406	SCS215f	733718.392165	733718.394333	8	0.013328	60	0	60-180	60	157	NoGap	1	20	4	6	1	target	1	507	13.328	13.324	13.332
ProbeTrack7	17	ProbeTrack	1406	SCS215f	733718.392165	733718.394436	8	0.013328	60	0	60-180	60	63	NoGap	1	21	4	96	1	distractor	0	493	13.328	13.322	13.333
ProbeTrack7	17	ProbeTrack	1406	SCS215f	733718.392165	733718.394554	8	0.013328	60	0	60-180	60	151	NoGap	1	22	4	0	1	target	1	693	13.328	13.317	13.337
ProbeTrack7	17	ProbeTrack	1406	SCS215f	733718.392165	733718.394636	8	0.013328	60	0	60-180	60	167	NoGap	1	23	4	3	0	target	0	507	13.328	13.322	13.332
ProbeTrack7	17	ProbeTrack	1406	SCS215f	733718.392165	733718.394753	8	0.013328	60	0	60-180	60	80	NoGap	1	24	4	3	0	distractor	1	640	13.328	13.322	13.333
ProbeTrack7	17	ProbeTrack	1406	SCS215f	733718.392165	733718.394833	8	0.013328	60	0	60-180	60	69	NoGap	1	25	4	0	0	distractor	1	667	13.328	13.326	13.330
ProbeTrack7	17	ProbeTrack	1406	SCS215f	733718.392165	733718.394908	8	0.013328	60	0	60-180	60	116	NoGap	1	26	4	0	1	distractor	0	853	13.328	13.321	13.333
ProbeTrack7	17	ProbeTrack	1406	SCS215f	733718.392165	733718.395027	8	0.013328	60	0	60-180	60	131	NoGap	1	27	4	0	1	target	1	560	13.328	13.326	13.330
ProbeTrack7	17	ProbeTrack	1406	SCS215f	733718.392165	733718.395114	8	0.013328	60	0	60-180	60	90	NoGap	1	28	4	96	0	distractor	1	747	13.328	13.324	13.332
ProbeTrack7	17	ProbeTrack	1406	SCS215f	733718.392165	733718.395220	8	0.013328	60	0	60-180	60	104	NoGap	1	29	4	6	0	distractor	1	720	13.328	13.323	13.331
ProbeTrack7	17	ProbeTrack	1406	SCS215f	733718.392165	733718.395297	8	0.013328	60	0	60-180	60	131	NoGap	1	30	4	96	0	distractor	1	627	13.328	13.323	13.333
ProbeTrack7	17	ProbeTrack	1406	SCS215f	733718.392165	733718.395425	8	0.013328	60	0	60-180	60	106	NoGap	1	31	4	6	1	distractor	0	547	13.328	13.325	13.331
ProbeTrack7	17	ProbeTrack	1406	SCS215f	733718.392165	733718.395514	8	0.013328	60	0	60-180	60	147	NoGap	1	32	4	0	0	target	0	547	13.328	13.322	13.333
ProbeTrack7	17	ProbeTrack	1406	SCS215f	733718.392165	733718.395597	8	0.013328	60	0	60-180	60	64	NoGap	1	33	4	3	0	distractor	1	773	13.328	13.317	13.339
ProbeTrack7	17	ProbeTrack	1406	SCS215f	733718.392165	733718.395664	8	0.013328	60	0	60-180	60	137	NoGap	1	34	4	96	1	distractor	0	600	13.328	13.317	13.337
ProbeTrack7	17	ProbeTrack	1406	SCS215f	733718.392165	733718.395785	8	0.013328	60	0	60-180	60	96	NoGap	1	35	4	6	1	target	1	560	13.328	13.320	13.336
ProbeTrack7	17	ProbeTrack	1406	SCS215f	733718.392165	733718.395867	8	0.013328	60	0	60-180	60	129	NoGap	1	36	4	96	0	target	0	640	13.328	13.322	13.333
ProbeTrack7	17	ProbeTrack	1406	SCS215f	733718.392165	733718.395957	8	0.013328	60	0	60-180	60	127	NoGap	1	37	4	6	1	target	1	813	13.328	13.323	13.334
ProbeTrack7	17	ProbeTrack	1406	SCS215f	733718.392165	733718.396042	8	0.013328	60	0	60-180	60	126	NoGap	1	38	4	3	0	distractor	1	507	13.328	13.322	13.333
ProbeTrack7	17	ProbeTrack	1406	SCS215f	733718.392165	733718.396119	8	0.013328	60	0	60-180	60	79	NoGap	1	39	4	96	1	target	1	787	13.328	13.325	13.331
ProbeTrack7	17	ProbeTrack	1406	SCS215f	733718.392165	733718.396209	8	0.013328	60	0	60-180	60	142	NoGap	1	40	4	6	0	distractor	1	547	13.328	13.325	13.331
ProbeTrack7	17	ProbeTrack	1406	SCS215f	733718.392165	733718.396294	8	0.013328	60	0	60-180	60	65	NoGap	1	41	4	3	1	distractor	0	453	13.328	13.322	13.332
ProbeTrack7	17	ProbeTrack	1406	SCS215f	733718.392165	733718.396364	8	0.013328	60	0	60-180	60	82	NoGap	1	42	4	96	0	distractor	1	573	13.328	13.324	13.332
ProbeTrack7	17	ProbeTrack	1406	SCS215f	733718.392165	733718.396444	8	0.013328	60	0	60-180	60	142	NoGap	1	43	4	6	0	distractor	1	520	13.328	13.323	13.333
ProbeTrack7	17	ProbeTrack	1406	SCS215f	733718.392165	733718.396519	8	0.013328	60	0	60-180	60	109	NoGap	1	44	4	0	1	distractor	0	454	13.328	13.325	13.331
ProbeTrack7	17	ProbeTrack	1406	SCS215f	733718.392165	733718.396599	8	0.013328	60	0	60-180	60	103	NoGap	1	45	4	6	1	distractor	0	560	13.328	13.323	13.333
ProbeTrack7	17	ProbeTrack	1406	SCS215f	733718.392165	733718.396668	8	0.013328	60	0	60-180	60	85	NoGap	1	46	4	0	0	distractor	1	547	13.328	13.323	13.332
ProbeTrack7	17	ProbeTrack	1406	SCS215f	733718.392165	733718.396764	8	0.013328	60	0	60-180	60	83	NoGap	1	47	4	3	0	distractor	1	627	13.328	13.324	13.332
ProbeTrack7	17	ProbeTrack	1406	SCS215f	733718.392165	733718.396840	8	0.013328	60	0	60-180	60	86	NoGap	1	48	4	6	0	target	0	653	13.328	13.325	13.331
ProbeTrack7	17	ProbeTrack	1406	SCS215f	733718.392165	733718.396922	8	0.013328	60	0	60-180	60	174	NoGap	1	49	4	96	1	target	1	547	13.328	13.322	13.334
ProbeTrack7	17	ProbeTrack	1406	SCS215f	733718.392165	733718.397016	8	0.013328	60	0	60-180	60	154	NoGap	1	50	4	3	1	distractor	0	627	13.328	13.323	13.332
ProbeTrack7	17	ProbeTrack	1406	SCS215f	733718.397784	733718.397864	8	0.013328	60	10	60-180	60	89	GapPrac	1	1	3	0	0	target	0	800	13.328	13.315	13.340
ProbeTrack7	17	ProbeTrack	1406	SCS215f	733718.397784	733718.398011	8	0.013328	60	10	60-180	60	100	GapPrac	1	2	3	6	1	target	1	893	13.328	13.324	13.332
ProbeTrack7	17	ProbeTrack	1406	SCS215f	733718.397784	733718.398121	8	0.013328	60	10	60-180	60	103	GapPrac	1	3	3	96	1	target	1	507	13.328	13.323	13.333
ProbeTrack7	17	ProbeTrack	1406	SCS215f	733718.397784	733718.398213	8	0.013328	60	10	60-180	60	157	GapPrac	1	4	3	6	0	distractor	1	680	13.328	13.324	13.332
ProbeTrack7	17	ProbeTrack	1406	SCS215f	733718.397784	733718.398310	8	0.013328	60	10	60-180	60	158	GapPrac	1	5	3	3	0	distractor	1	640	13.328	13.323	13.331
ProbeTrack7	17	ProbeTrack	1406	SCS215f	733718.397784	733718.398404	8	0.013328	60	10	60-180	60	81	GapPrac	1	6	3	0	0	distractor	1	640	13.328	13.321	13.334
ProbeTrack7	17	ProbeTrack	1406	SCS215f	733718.397784	733718.398470	8	0.013328	60	10	60-180	60	95	GapPrac	1	7	3	3	0	distractor	1	680	13.328	13.327	13.330
ProbeTrack7	17	ProbeTrack	1406	SCS215f	733718.397784	733718.398558	8	0.013328	60	10	60-180	60	180	GapPrac	1	8	3	96	1	target	1	707	13.328	13.322	13.334
ProbeTrack7	17	ProbeTrack	1406	SCS215f	733718.397784	733718.398672	8	0.013328	60	10	60-180	60	126	GapPrac	1	9	3	0	1	distractor	0	747	13.328	13.323	13.330
ProbeTrack7	17	ProbeTrack	1406	SCS215f	733718.397784	733718.398753	8	0.013328	60	10	60-180	60	88	GapPrac	1	10	3	6	1	target	1	507	13.328	13.315	13.339
ProbeTrack7	17	ProbeTrack	1406	SCS215f	733718.397784	733718.398827	8	0.013328	60	10	60-180	60	166	GapPrac	1	11	3	96	0	distractor	1	600	13.328	13.314	13.341
ProbeTrack7	17	ProbeTrack	1406	SCS215f	733718.397784	733718.398936	8	0.013328	60	10	60-180	60	103	GapPrac	1	12	3	0	1	distractor	0	600	13.328	13.323	13.332
ProbeTrack7	17	ProbeTrack	1406	SCS215f	733718.397784	733718.399011	8	0.013328	60	10	60-180	60	93	GapPrac	1	13	3	3	1	target	1	613	13.328	13.324	13.331
ProbeTrack7	17	ProbeTrack	1406	SCS215f	733718.397784	733718.399099	8	0.013328	60	10	60-180	60	83	GapPrac	1	14	3	96	1	distractor	0	600	13.328	13.323	13.332
ProbeTrack7	17	ProbeTrack	1406	SCS215f	733718.397784	733718.399182	8	0.013328	60	10	60-180	60	176	GapPrac	1	15	3	6	1	target	1	947	13.328	13.320	13.336
ProbeTrack7	17	ProbeTrack	1406	SCS215f	733718.397784	733718.399270	8	0.013328	60	10	60-180	60	167	GapPrac	1	16	3	0	0	distractor	1	733	13.328	13.323	13.334
ProbeTrack7	17	ProbeTrack	1406	SCS215f	733718.397784	733718.399398	8	0.013328	60	10	60-180	60	158	GapPrac	1	17	3	3	1	target	1	533	13.328	13.322	13.333
ProbeTrack7	17	ProbeTrack	1406	SCS215f	733718.397784	733718.399479	8	0.013328	60	10	60-180	60	78	GapPrac	1	18	3	6	0	distractor	1	560	13.328	13.323	13.333
ProbeTrack7	17	ProbeTrack	1406	SCS215f	733718.397784	733718.399553	8	0.013328	60	10	60-180	60	124	GapPrac	1	19	3	6	0	distractor	1	560	13.328	13.323	13.333
ProbeTrack7	17	ProbeTrack	1406	SCS215f	733718.397784	733718.399633	8	0.013328	60	10	60-180	60	139	GapPrac	1	20	3	96	0	target	0	414	13.328	13.324	13.331
ProbeTrack7	17	ProbeTrack	1406	SCS215f	733718.400689	733718.400745	8	0.013328	60	10	60-180	60	160	GapExp	1	1	3	3	1	target	1	520	13.328	13.325	13.330
ProbeTrack7	17	ProbeTrack	1406	SCS215f	733718.400689	733718.400893	8	0.013328	60	10	60-180	60	103	GapExp	1	2	3	3	0	distractor	1	560	13.328	13.324	13.333
ProbeTrack7	17	ProbeTrack	1406	SCS215f	733718.400689	733718.401011	8	0.013328	60	10	60-180	60	132	GapExp	1	3	3	96	0	distractor	1	693	13.328	13.322	13.335
ProbeTrack7	17	ProbeTrack	1406	SCS215f	733718.400689	733718.401112	8	0.013328	60	10	60-180	60	132	GapExp	1	4	3	96	1	target	1	533	13.328	13.321	13.334
ProbeTrack7	17	ProbeTrack	1406	SCS215f	733718.400689	733718.401244	8	0.013328	60	10	60-180	60	68	GapExp	1	5	3	6	0	distractor	1	573	13.328	13.318	13.337
ProbeTrack7	17	ProbeTrack	1406	SCS215f	733718.400689	733718.401331	8	0.013328	60	10	60-180	60	176	GapExp	0	6	3	96	1	distractor	0	680	13.328	13.324	13.331
ProbeTrack7	17	ProbeTrack	1406	SCS215f	733718.400689	733718.401440	8	0.013328	60	10	60-180	60	150	GapExp	0	7	3	6	0	distractor	1	547	13.328	13.326	13.330
ProbeTrack7	17	ProbeTrack	1406	SCS215f	733718.400689	733718.401515	8	0.013328	60	10	60-180	60	74	GapExp	0	8	3	3	0	distractor	1	600	13.328	13.326	13.330
ProbeTrack7	17	ProbeTrack	1406	SCS215f	733718.400689	733718.401587	8	0.013328	60	10	60-180	60	73	GapExp	0	9	3	96	1	distractor	0	560	13.328	13.316	13.338
ProbeTrack7	17	ProbeTrack	1406	SCS215f	733718.400689	733718.401682	8	0.013328	60	10	60-180	60	73	GapExp	0	10	3	96	0	distractor	1	600	13.328	13.324	13.332
ProbeTrack7	17	ProbeTrack	1406	SCS215f	733718.400689	733718.401797	8	0.013328	60	10	60-180	60	116	GapExp	0	11	3	96	1	target	1	573	13.328	13.322	13.333
ProbeTrack7	17	ProbeTrack	1406	SCS215f	733718.400689	733718.401899	8	0.013328	60	10	60-180	60	132	GapExp	0	12	3	3	1	target	1	440	13.328	13.324	13.333
ProbeTrack7	17	ProbeTrack	1406	SCS215f	733718.400689	733718.402035	8	0.013328	60	10	60-180	60	180	GapExp	0	13	3	0	1	distractor	0	547	13.328	13.322	13.333
ProbeTrack7	17	ProbeTrack	1406	SCS215f	733718.400689	733718.402179	8	0.013328	60	10	60-180	60	147	GapExp	0	14	3	0	0	distractor	1	493	13.328	13.323	13.334
ProbeTrack7	17	ProbeTrack	1406	SCS215f	733718.400689	733718.402283	8	0.013328	60	10	60-180	60	102	GapExp	0	15	3	0	0	target	0	507	13.328	13.326	13.330
ProbeTrack7	17	ProbeTrack	1406	SCS215f	733718.400689	733718.402361	8	0.013328	60	10	60-180	60	152	GapExp	0	16	3	96	1	target	1	507	13.328	13.313	13.342
ProbeTrack7	17	ProbeTrack	1406	SCS215f	733718.400689	733718.402454	8	0.013328	60	10	60-180	60	97	GapExp	0	17	3	3	0	distractor	1	560	13.328	13.322	13.332
ProbeTrack7	17	ProbeTrack	1406	SCS215f	733718.400689	733718.402536	8	0.013328	60	10	60-180	60	91	GapExp	0	18	3	96	0	target	0	547	13.328	13.316	13.339
ProbeTrack7	17	ProbeTrack	1406	SCS215f	733718.400689	733718.402622	8	0.013328	60	10	60-180	60	163	GapExp	0	19	3	6	1	distractor	0	747	13.328	13.324	13.332
ProbeTrack7	17	ProbeTrack	1406	SCS215f	733718.400689	733718.402716	8	0.013328	60	10	60-180	60	68	GapExp	0	20	3	96	1	target	1	520	13.328	13.326	13.330
ProbeTrack7	17	ProbeTrack	1406	SCS215f	733718.400689	733718.402797	8	0.013328	60	10	60-180	60	125	GapExp	0	21	3	96	1	target	1	440	13.328	13.325	13.331
ProbeTrack7	17	ProbeTrack	1406	SCS215f	733718.400689	733718.402915	8	0.013328	60	10	60-180	60	104	GapExp	0	22	3	3	1	target	1	693	13.328	13.325	13.331
ProbeTrack7	17	ProbeTrack	1406	SCS215f	733718.400689	733718.402996	8	0.013328	60	10	60-180	60	164	GapExp	0	23	3	0	1	target	1	520	13.328	13.324	13.332
ProbeTrack7	17	ProbeTrack	1406	SCS215f	733718.400689	733718.403082	8	0.013328	60	10	60-180	60	86	GapExp	0	24	3	3	0	distractor	1	640	13.328	13.323	13.333
ProbeTrack7	17	ProbeTrack	1406	SCS215f	733718.400689	733718.403156	8	0.013328	60	10	60-180	60	95	GapExp	0	25	3	96	0	distractor	1	640	13.328	13.323	13.332
ProbeTrack7	17	ProbeTrack	1406	SCS215f	733718.400689	733718.403244	8	0.013328	60	10	60-180	60	161	GapExp	0	26	3	0	0	distractor	1	533	13.328	13.312	13.343
ProbeTrack7	17	ProbeTrack	1406	SCS215f	733718.400689	733718.403329	8	0.013328	60	10	60-180	60	103	GapExp	0	27	3	3	1	distractor	0	520	13.328	13.324	13.331
ProbeTrack7	17	ProbeTrack	1406	SCS215f	733718.400689	733718.403408	8	0.013328	60	10	60-180	60	147	GapExp	0	28	3	6	1	target	1	613	13.328	13.324	13.332
ProbeTrack7	17	ProbeTrack	1406	SCS215f	733718.400689	733718.403495	8	0.013328	60	10	60-180	60	126	GapExp	0	29	3	96	1	target	1	493	13.328	13.322	13.334
ProbeTrack7	17	ProbeTrack	1406	SCS215f	733718.400689	733718.403587	8	0.013328	60	10	60-180	60	173	GapExp	0	30	3	6	1	target	1	1066	13.328	13.322	13.334
ProbeTrack7	17	ProbeTrack	1406	SCS215f	733718.400689	733718.403687	8	0.013328	60	10	60-180	60	150	GapExp	0	31	3	0	0	distractor	1	534	13.328	13.324	13.331
ProbeTrack7	17	ProbeTrack	1406	SCS215f	733718.400689	733718.403818	8	0.013328	60	10	60-180	60	161	GapExp	0	32	3	3	0	target	0	533	13.328	13.322	13.334
ProbeTrack7	17	ProbeTrack	1406	SCS215f	733718.400689	733718.403924	8	0.013328	60	10	60-180	60	142	GapExp	0	33	3	96	0	distractor	1	587	13.328	13.323	13.332
ProbeTrack7	17	ProbeTrack	1406	SCS215f	733718.400689	733718.404024	8	0.013328	60	10	60-180	60	66	GapExp	0	34	3	3	1	target	1	507	13.328	13.322	13.333
ProbeTrack7	17	ProbeTrack	1406	SCS215f	733718.400689	733718.404106	8	0.013328	60	10	60-180	60	78	GapExp	0	35	3	3	1	distractor	0	587	13.328	13.324	13.332
ProbeTrack7	17	ProbeTrack	1406	SCS215f	733718.400689	733718.404193	8	0.013328	60	10	60-180	60	66	GapExp	0	36	3	6	0	distractor	1	427	13.328	13.323	13.332
ProbeTrack7	17	ProbeTrack	1406	SCS215f	733718.400689	733718.404264	8	0.013328	60	10	60-180	60	68	GapExp	0	37	3	6	1	target	1	627	13.328	13.323	13.332
ProbeTrack7	17	ProbeTrack	1406	SCS215f	733718.400689	733718.404347	8	0.013328	60	10	60-180	60	158	GapExp	0	38	3	3	1	target	1	573	13.328	13.324	13.332
ProbeTrack7	17	ProbeTrack	1406	SCS215f	733718.400689	733718.404442	8	0.013328	60	10	60-180	60	100	GapExp	0	39	3	6	0	distractor	1	507	13.328	13.305	13.350
ProbeTrack7	17	ProbeTrack	1406	SCS215f	733718.400689	733718.404514	8	0.013328	60	10	60-180	60	88	GapExp	0	40	3	3	0	distractor	1	547	13.328	13.324	13.332
ProbeTrack7	17	ProbeTrack	1406	SCS215f	733718.400689	733718.404589	8	0.013328	60	10	60-180	60	85	GapExp	0	41	3	96	1	target	1	453	13.328	13.324	13.332
ProbeTrack7	17	ProbeTrack	1406	SCS215f	733718.400689	733718.404678	8	0.013328	60	10	60-180	60	136	GapExp	0	42	3	0	1	target	1	534	13.328	13.319	13.336
ProbeTrack7	17	ProbeTrack	1406	SCS215f	733718.400689	733718.404771	8	0.013328	60	10	60-180	60	135	GapExp	0	43	3	96	0	distractor	1	507	13.328	13.315	13.340
ProbeTrack7	17	ProbeTrack	1406	SCS215f	733718.400689	733718.404884	8	0.013328	60	10	60-180	60	172	GapExp	0	44	3	6	0	distractor	1	467	13.328	13.320	13.336
ProbeTrack7	17	ProbeTrack	1406	SCS215f	733718.400689	733718.404970	8	0.013328	60	10	60-180	60	178	GapExp	0	45	3	6	0	distractor	1	614	13.328	13.314	13.341
ProbeTrack7	17	ProbeTrack	1406	SCS215f	733718.400689	733718.405077	8	0.013328	60	10	60-180	60	160	GapExp	0	46	3	6	0	distractor	1	440	13.328	13.324	13.331
ProbeTrack7	17	ProbeTrack	1406	SCS215f	733718.400689	733718.405168	8	0.013328	60	10	60-180	60	129	GapExp	0	47	3	6	0	distractor	1	493	13.328	13.323	13.332
ProbeTrack7	17	ProbeTrack	1406	SCS215f	733718.400689	733718.405248	8	0.013328	60	10	60-180	60	108	GapExp	0	48	3	6	0	distractor	1	427	13.328	13.325	13.331
ProbeTrack7	17	ProbeTrack	1406	SCS215f	733718.400689	733718.405323	8	0.013328	60	10	60-180	60	65	GapExp	0	49	3	96	1	distractor	0	427	13.328	13.325	13.331
ProbeTrack7	17	ProbeTrack	1406	SCS215f	733718.400689	733718.405408	8	0.013328	60	10	60-180	60	170	GapExp	0	50	3	96	1	target	1	614	13.328	13.323	13.332
ProbeTrack7	17	ProbeTrack	1406	SCS215f	733718.400689	733718.405508	8	0.013328	60	10	60-180	60	89	GapExp	0	51	3	3	0	distractor	1	520	13.328	13.324	13.331
ProbeTrack7	17	ProbeTrack	1406	SCS215f	733718.400689	733718.405589	8	0.013328	60	10	60-180	60	111	GapExp	0	52	3	96	0	target	0	520	13.328	13.320	13.336
ProbeTrack7	17	ProbeTrack	1406	SCS215f	733718.400689	733718.405682	8	0.013328	60	10	60-180	60	170	GapExp	0	53	3	96	0	distractor	1	493	13.328	13.323	13.332
ProbeTrack7	17	ProbeTrack	1406	SCS215f	733718.400689	733718.405774	8	0.013328	60	10	60-180	60	135	GapExp	0	54	3	96	1	target	1	533	13.328	13.320	13.335
ProbeTrack7	17	ProbeTrack	1406	SCS215f	733718.400689	733718.405865	8	0.013328	60	10	60-180	60	166	GapExp	0	55	3	96	0	target	0	560	13.328	13.322	13.334
ProbeTrack7	17	ProbeTrack	1406	SCS215f	733718.400689	733718.405957	8	0.013328	60	10	60-180	60	82	GapExp	0	56	3	0	1	target	1	520	13.328	13.324	13.333
ProbeTrack7	17	ProbeTrack	1406	SCS215f	733718.400689	733718.406024	8	0.013328	60	10	60-180	60	69	GapExp	0	57	3	3	0	distractor	1	787	13.328	13.323	13.333
ProbeTrack7	17	ProbeTrack	1406	SCS215f	733718.400689	733718.406100	8	0.013328	60	10	60-180	60	141	GapExp	0	58	3	0	1	target	1	453	13.328	13.321	13.335
ProbeTrack7	17	ProbeTrack	1406	SCS215f	733718.400689	733718.406193	8	0.013328	60	10	60-180	60	120	GapExp	0	59	3	0	1	target	1	467	13.328	13.325	13.331
ProbeTrack7	17	ProbeTrack	1406	SCS215f	733718.400689	733718.406267	8	0.013328	60	10	60-180	60	161	GapExp	0	60	3	96	0	target	0	427	13.328	13.324	13.331
ProbeTrack7	17	ProbeTrack	1406	SCS215f	733718.400689	733718.406361	8	0.013328	60	10	60-180	60	180	GapExp	0	61	3	6	1	target	1	533	13.328	13.322	13.333
ProbeTrack7	17	ProbeTrack	1406	SCS215f	733718.400689	733718.406450	8	0.013328	60	10	60-180	60	150	GapExp	0	62	3	0	0	distractor	1	653	13.328	13.305	13.350
ProbeTrack7	17	ProbeTrack	1406	SCS215f	733718.400689	733718.406530	8	0.013328	60	10	60-180	60	98	GapExp	0	63	3	0	1	distractor	0	627	13.328	13.322	13.333
ProbeTrack7	17	ProbeTrack	1406	SCS215f	733718.400689	733718.406606	8	0.013328	60	10	60-180	60	95	GapExp	0	64	3	6	1	target	1	453	13.328	13.323	13.334
ProbeTrack7	17	ProbeTrack	1406	SCS215f	733718.400689	733718.406703	8	0.013328	60	10	60-180	60	129	GapExp	0	65	3	96	0	target	0	440	13.328	13.323	13.333
ProbeTrack7	17	ProbeTrack	1406	SCS215f	733718.400689	733718.406792	8	0.013328	60	10	60-180	60	159	GapExp	0	66	3	6	0	distractor	1	533	13.328	13.323	13.332
ProbeTrack7	17	ProbeTrack	1406	SCS215f	733718.400689	733718.406871	8	0.013328	60	10	60-180	60	118	GapExp	0	67	3	0	1	target	1	533	13.328	13.316	13.339
ProbeTrack7	17	ProbeTrack	1406	SCS215f	733718.400689	733718.406947	8	0.013328	60	10	60-180	60	160	GapExp	0	68	3	0	0	distractor	1	627	13.328	13.324	13.332
ProbeTrack7	17	ProbeTrack	1406	SCS215f	733718.400689	733718.407031	8	0.013328	60	10	60-180	60	137	GapExp	0	69	3	0	1	target	1	493	13.328	13.323	13.332
ProbeTrack7	17	ProbeTrack	1406	SCS215f	733718.400689	733718.407124	8	0.013328	60	10	60-180	60	169	GapExp	0	70	3	3	1	target	1	400	13.328	13.324	13.331
ProbeTrack7	17	ProbeTrack	1406	SCS215f	733718.400689	733718.407210	8	0.013328	60	10	60-180	60	129	GapExp	0	71	3	96	0	distractor	1	533	13.328	13.323	13.334
ProbeTrack7	17	ProbeTrack	1406	SCS215f	733718.400689	733718.407303	8	0.013328	60	10	60-180	60	72	GapExp	0	72	3	6	0	distractor	1	547	13.328	13.323	13.331
ProbeTrack7	17	ProbeTrack	1406	SCS215f	733718.400689	733718.407371	8	0.013328	60	10	60-180	60	145	GapExp	0	73	3	96	0	distractor	1	520	13.328	13.319	13.337
ProbeTrack7	17	ProbeTrack	1406	SCS215f	733718.400689	733718.407467	8	0.013328	60	10	60-180	60	63	GapExp	0	74	3	6	1	target	1	667	13.328	13.325	13.330
ProbeTrack7	17	ProbeTrack	1406	SCS215f	733718.400689	733718.407542	8	0.013328	60	10	60-180	60	139	GapExp	0	75	3	6	1	target	1	374	13.328	13.323	13.332
ProbeTrack7	17	ProbeTrack	1406	SCS215f	733718.400689	733718.407617	8	0.013328	60	10	60-180	60	177	GapExp	0	76	3	0	1	target	1	507	13.328	13.323	13.332
ProbeTrack7	17	ProbeTrack	1406	SCS215f	733718.400689	733718.407701	8	0.013328	60	10	60-180	60	87	GapExp	0	77	3	3	0	target	0	414	13.328	13.325	13.331
ProbeTrack7	17	ProbeTrack	1406	SCS215f	733718.400689	733718.407764	8	0.013328	60	10	60-180	60	150	GapExp	0	78	3	3	1	target	1	427	13.328	13.321	13.334
ProbeTrack7	17	ProbeTrack	1406	SCS215f	733718.400689	733718.407848	8	0.013328	60	10	60-180	60	76	GapExp	0	79	3	0	0	distractor	1	667	13.328	13.323	13.334
ProbeTrack7	17	ProbeTrack	1406	SCS215f	733718.400689	733718.407920	8	0.013328	60	10	60-180	60	65	GapExp	0	80	3	6	1	target	1	440	13.328	13.322	13.333
ProbeTrack7	17	ProbeTrack	1406	SCS215f	733718.400689	733718.407984	8	0.013328	60	10	60-180	60	100	GapExp	0	81	3	96	1	target	1	414	13.328	13.322	13.334
ProbeTrack7	17	ProbeTrack	1406	SCS215f	733718.400689	733718.408071	8	0.013328	60	10	60-180	60	167	GapExp	0	82	3	6	1	target	1	440	13.328	13.320	13.336
ProbeTrack7	17	ProbeTrack	1406	SCS215f	733718.400689	733718.408150	8	0.013328	60	10	60-180	60	68	GapExp	0	83	3	0	1	target	1	560	13.328	13.326	13.330
ProbeTrack7	17	ProbeTrack	1406	SCS215f	733718.400689	733718.408215	8	0.013328	60	10	60-180	60	101	GapExp	0	84	3	0	0	distractor	1	653	13.328	13.324	13.331
ProbeTrack7	17	ProbeTrack	1406	SCS215f	733718.400689	733718.408289	8	0.013328	60	10	60-180	60	132	GapExp	0	85	3	6	0	distractor	1	480	13.328	13.324	13.331
ProbeTrack7	17	ProbeTrack	1406	SCS215f	733718.400689	733718.408364	8	0.013328	60	10	60-180	60	161	GapExp	0	86	3	3	1	distractor	0	640	13.328	13.321	13.333
ProbeTrack7	17	ProbeTrack	1406	SCS215f	733718.400689	733718.408450	8	0.013328	60	10	60-180	60	152	GapExp	0	87	3	3	1	target	1	533	13.328	13.324	13.332
ProbeTrack7	17	ProbeTrack	1406	SCS215f	733718.400689	733718.408528	8	0.013328	60	10	60-180	60	180	GapExp	0	88	3	3	0	distractor	1	480	13.328	13.324	13.332
ProbeTrack7	17	ProbeTrack	1406	SCS215f	733718.400689	733718.408607	8	0.013328	60	10	60-180	60	75	GapExp	0	89	3	0	0	target	0	533	13.328	13.324	13.331
ProbeTrack7	17	ProbeTrack	1406	SCS215f	733718.400689	733718.408674	8	0.013328	60	10	60-180	60	74	GapExp	0	90	3	6	1	distractor	0	640	13.328	13.323	13.333
ProbeTrack7	17	ProbeTrack	1406	SCS215f	733718.400689	733718.408744	8	0.013328	60	10	60-180	60	147	GapExp	0	91	3	3	1	target	1	400	13.328	13.325	13.331
ProbeTrack7	17	ProbeTrack	1406	SCS215f	733718.400689	733718.408820	8	0.013328	60	10	60-180	60	110	GapExp	0	92	3	0	0	target	0	573	13.328	13.322	13.333
ProbeTrack7	17	ProbeTrack	1406	SCS215f	733718.400689	733718.408896	8	0.013328	60	10	60-180	60	141	GapExp	0	93	3	6	1	target	1	387	13.328	13.323	13.333
ProbeTrack7	17	ProbeTrack	1406	SCS215f	733718.400689	733718.408978	8	0.013328	60	10	60-180	60	90	GapExp	0	94	3	6	0	distractor	1	440	13.328	13.326	13.330
ProbeTrack7	17	ProbeTrack	1406	SCS215f	733718.400689	733718.409044	8	0.013328	60	10	60-180	60	164	GapExp	0	95	3	3	0	distractor	1	573	13.328	13.323	13.332
ProbeTrack7	17	ProbeTrack	1406	SCS215f	733718.400689	733718.409127	8	0.013328	60	10	60-180	60	130	GapExp	0	96	3	96	1	target	1	493	13.328	13.322	13.333
ProbeTrack7	17	ProbeTrack	1406	SCS215f	733718.400689	733718.409221	8	0.013328	60	10	60-180	60	161	GapExp	0	97	3	6	1	target	1	480	13.328	13.324	13.332
ProbeTrack7	17	ProbeTrack	1406	SCS215f	733718.400689	733718.409300	8	0.013328	60	10	60-180	60	72	GapExp	0	98	3	6	1	target	1	414	13.328	13.325	13.331
ProbeTrack7	17	ProbeTrack	1406	SCS215f	733718.400689	733718.409369	8	0.013328	60	10	60-180	60	71	GapExp	0	99	3	0	0	target	0	480	13.328	13.321	13.335
ProbeTrack7	17	ProbeTrack	1406	SCS215f	733718.400689	733718.409431	8	0.013328	60	10	60-180	60	122	GapExp	0	100	3	0	0	distractor	1	613	13.328	13.324	13.332
ProbeTrack7	17	ProbeTrack	1406	SCS215f	733718.400689	733718.409507	8	0.013328	60	10	60-180	60	177	GapExp	0	101	3	96	1	target	1	467	13.328	13.323	13.332
ProbeTrack7	17	ProbeTrack	1406	SCS215f	733718.400689	733718.409616	8	0.013328	60	10	60-180	60	95	GapExp	0	102	3	3	0	distractor	1	520	13.328	13.323	13.332
ProbeTrack7	17	ProbeTrack	1406	SCS215f	733718.400689	733718.409686	8	0.013328	60	10	60-180	60	84	GapExp	0	103	3	0	0	distractor	1	627	13.328	13.323	13.333
ProbeTrack7	17	ProbeTrack	1406	SCS215f	733718.400689	733718.409757	8	0.013328	60	10	60-180	60	176	GapExp	0	104	3	0	1	distractor	0	693	13.328	13.318	13.337
ProbeTrack7	17	ProbeTrack	1406	SCS215f	733718.400689	733718.409840	8	0.013328	60	10	60-180	60	112	GapExp	0	105	3	96	1	target	1	467	13.328	13.324	13.332
ProbeTrack7	17	ProbeTrack	1406	SCS215f	733718.400689	733718.409923	8	0.013328	60	10	60-180	60	102	GapExp	0	106	3	6	0	target	0	480	13.328	13.322	13.334
ProbeTrack7	17	ProbeTrack	1406	SCS215f	733718.400689	733718.409991	8	0.013328	60	10	60-180	60	104	GapExp	0	107	3	6	0	distractor	1	560	13.328	13.326	13.330
ProbeTrack7	17	ProbeTrack	1406	SCS215f	733718.400689	733718.410060	8	0.013328	60	10	60-180	60	138	GapExp	0	108	3	0	1	target	1	427	13.328	13.326	13.330
ProbeTrack7	17	ProbeTrack	1406	SCS215f	733718.400689	733718.410136	8	0.013328	60	10	60-180	60	147	GapExp	0	109	3	0	1	target	1	520	13.328	13.323	13.333
ProbeTrack7	17	ProbeTrack	1406	SCS215f	733718.400689	733718.410213	8	0.013328	60	10	60-180	60	179	GapExp	0	110	3	96	0	distractor	1	453	13.328	13.323	13.332
ProbeTrack7	17	ProbeTrack	1406	SCS215f	733718.400689	733718.410308	8	0.013328	60	10	60-180	60	175	GapExp	0	111	3	3	0	distractor	1	360	13.328	13.321	13.335
ProbeTrack7	17	ProbeTrack	1406	SCS215f	733718.400689	733718.410390	8	0.013328	60	10	60-180	60	175	GapExp	0	112	3	0	0	distractor	1	440	13.328	13.322	13.333
ProbeTrack7	17	ProbeTrack	1406	SCS215f	733718.400689	733718.410470	8	0.013328	60	10	60-180	60	145	GapExp	0	113	3	3	1	distractor	0	440	13.328	13.324	13.332
ProbeTrack7	17	ProbeTrack	1406	SCS215f	733718.400689	733718.410548	8	0.013328	60	10	60-180	60	65	GapExp	0	114	3	96	0	distractor	1	520	13.328	13.323	13.332
ProbeTrack7	17	ProbeTrack	1406	SCS215f	733718.400689	733718.410624	8	0.013328	60	10	60-180	60	96	GapExp	0	115	3	3	1	target	1	427	13.328	13.316	13.340
ProbeTrack7	17	ProbeTrack	1406	SCS215f	733718.400689	733718.410693	8	0.013328	60	10	60-180	60	98	GapExp	0	116	3	3	0	distractor	1	480	13.328	13.318	13.338
ProbeTrack7	17	ProbeTrack	1406	SCS215f	733718.400689	733718.410762	8	0.013328	60	10	60-180	60	62	GapExp	0	117	3	6	0	distractor	1	467	13.328	13.309	13.347
ProbeTrack7	17	ProbeTrack	1406	SCS215f	733718.400689	733718.410846	8	0.013328	60	10	60-180	60	133	GapExp	0	118	3	3	0	distractor	1	453	13.328	13.321	13.334
ProbeTrack7	17	ProbeTrack	1406	SCS215f	733718.400689	733718.410924	8	0.013328	60	10	60-180	60	132	GapExp	0	119	3	3	1	target	1	374	13.328	13.323	13.333
ProbeTrack7	17	ProbeTrack	1406	SCS215f	733718.400689	733718.411006	8	0.013328	60	10	60-180	60	173	GapExp	0	120	3	3	1	target	1	533	13.328	13.322	13.333
ProbeTrack7	17	ProbeTrack	1406	SCS215f	733718.400689	733718.411089	8	0.013328	60	10	60-180	60	93	GapExp	0	121	3	3	0	distractor	1	480	13.328	13.322	13.333
ProbeTrack7	17	ProbeTrack	1406	SCS215f	733718.400689	733718.411157	8	0.013328	60	10	60-180	60	112	GapExp	0	122	3	6	1	distractor	0	467	13.328	13.313	13.342
ProbeTrack7	17	ProbeTrack	1406	SCS215f	733718.400689	733718.411229	8	0.013328	60	10	60-180	60	88	GapExp	0	123	3	0	0	distractor	1	507	13.328	13.322	13.333
ProbeTrack7	17	ProbeTrack	1406	SCS215f	733718.400689	733718.411306	8	0.013328	60	10	60-180	60	131	GapExp	0	124	3	96	0	distractor	1	440	13.328	13.325	13.332
ProbeTrack7	17	ProbeTrack	1406	SCS215f	733718.400689	733718.411395	8	0.013328	60	10	60-180	60	167	GapExp	0	125	3	0	1	distractor	0	573	13.328	13.323	13.332
ProbeTrack7	17	ProbeTrack	1406	SCS215f	733718.412138	733718.412194	8	0.013328	60	10	60-180	60	176	GapPrac	1	1	4	96	1	target	1	427	13.328	13.323	13.333
ProbeTrack7	17	ProbeTrack	1406	SCS215f	733718.412138	733718.412349	8	0.013328	60	10	60-180	60	69	GapPrac	1	2	4	6	0	distractor	1	453	13.328	13.323	13.332
ProbeTrack7	17	ProbeTrack	1406	SCS215f	733718.412138	733718.412416	8	0.013328	60	10	60-180	60	179	GapPrac	1	3	4	0	0	distractor	1	547	13.328	13.324	13.332
ProbeTrack7	17	ProbeTrack	1406	SCS215f	733718.412138	733718.412503	8	0.013328	60	10	60-180	60	140	GapPrac	1	4	4	96	0	target	0	600	13.328	13.323	13.333
ProbeTrack7	17	ProbeTrack	1406	SCS215f	733718.412138	733718.412596	8	0.013328	60	10	60-180	60	164	GapPrac	1	5	4	3	0	distractor	1	653	13.328	13.321	13.335
ProbeTrack7	17	ProbeTrack	1406	SCS215f	733718.412138	733718.412686	8	0.013328	60	10	60-180	60	175	GapPrac	1	6	4	0	0	distractor	1	720	13.328	13.324	13.332
ProbeTrack7	17	ProbeTrack	1406	SCS215f	733718.412138	733718.412774	8	0.013328	60	10	60-180	60	94	GapPrac	1	7	4	3	1	target	1	613	13.328	13.325	13.330
ProbeTrack7	17	ProbeTrack	1406	SCS215f	733718.412138	733718.412863	8	0.013328	60	10	60-180	60	171	GapPrac	1	8	4	6	0	target	0	414	13.328	13.319	13.337
ProbeTrack7	17	ProbeTrack	1406	SCS215f	733718.412138	733718.412946	8	0.013328	60	10	60-180	60	107	GapPrac	1	9	4	6	1	target	1	400	13.328	13.326	13.331
ProbeTrack7	17	ProbeTrack	1406	SCS215f	733718.412138	733718.413033	8	0.013328	60	10	60-180	60	119	GapPrac	1	10	4	96	1	target	1	480	13.328	13.326	13.330
ProbeTrack7	17	ProbeTrack	1406	SCS215f	733718.412138	733718.413123	8	0.013328	60	10	60-180	60	174	GapPrac	1	11	4	96	0	target	0	467	13.328	13.317	13.339
ProbeTrack7	17	ProbeTrack	1406	SCS215f	733718.412138	733718.413220	8	0.013328	60	10	60-180	60	134	GapPrac	1	12	4	3	0	target	0	467	13.328	13.323	13.333
ProbeTrack7	17	ProbeTrack	1406	SCS215f	733718.412138	733718.413298	8	0.013328	60	10	60-180	60	122	GapPrac	1	13	4	0	1	target	1	480	13.328	13.324	13.332
ProbeTrack7	17	ProbeTrack	1406	SCS215f	733718.412138	733718.413380	8	0.013328	60	10	60-180	60	116	GapPrac	1	14	4	3	1	target	1	467	13.328	13.320	13.335
ProbeTrack7	17	ProbeTrack	1406	SCS215f	733718.412138	733718.413453	8	0.013328	60	10	60-180	60	138	GapPrac	1	15	4	0	1	target	1	374	13.328	13.326	13.331
ProbeTrack7	17	ProbeTrack	1406	SCS215f	733718.412138	733718.413548	8	0.013328	60	10	60-180	60	118	GapPrac	1	16	4	6	0	target	0	467	13.328	13.326	13.331
ProbeTrack7	17	ProbeTrack	1406	SCS215f	733718.412138	733718.413621	8	0.013328	60	10	60-180	60	176	GapPrac	1	17	4	96	1	target	1	453	13.328	13.325	13.330
ProbeTrack7	17	ProbeTrack	1406	SCS215f	733718.412138	733718.413718	8	0.013328	60	10	60-180	60	164	GapPrac	1	18	4	96	0	distractor	1	520	13.328	13.322	13.334
ProbeTrack7	17	ProbeTrack	1406	SCS215f	733718.412138	733718.413813	8	0.013328	60	10	60-180	60	64	GapPrac	1	19	4	6	1	target	1	467	13.328	13.323	13.333
ProbeTrack7	17	ProbeTrack	1406	SCS215f	733718.412138	733718.413880	8	0.013328	60	10	60-180	60	152	GapPrac	1	20	4	0	0	distractor	1	653	13.328	13.323	13.333
ProbeTrack7	17	ProbeTrack	1406	SCS215f	733718.414650	733718.414680	8	0.013328	60	10	60-180	60	82	GapExp	1	1	4	3	1	target	1	520	13.328	13.323	13.332
ProbeTrack7	17	ProbeTrack	1406	SCS215f	733718.414650	733718.414823	8	0.013328	60	10	60-180	60	103	GapExp	1	2	4	3	0	distractor	1	440	13.328	13.322	13.334
ProbeTrack7	17	ProbeTrack	1406	SCS215f	733718.414650	733718.414897	8	0.013328	60	10	60-180	60	175	GapExp	1	3	4	96	0	distractor	1	573	13.328	13.321	13.335
ProbeTrack7	17	ProbeTrack	1406	SCS215f	733718.414650	733718.414996	8	0.013328	60	10	60-180	60	69	GapExp	1	4	4	0	1	target	1	533	13.328	13.325	13.331
ProbeTrack7	17	ProbeTrack	1406	SCS215f	733718.414650	733718.415061	8	0.013328	60	10	60-180	60	131	GapExp	1	5	4	0	0	distractor	1	600	13.328	13.326	13.330
ProbeTrack7	17	ProbeTrack	1406	SCS215f	733718.414650	733718.415140	8	0.013328	60	10	60-180	60	129	GapExp	0	6	4	6	1	target	1	427	13.328	13.326	13.330
ProbeTrack7	17	ProbeTrack	1406	SCS215f	733718.414650	733718.415212	8	0.013328	60	10	60-180	60	177	GapExp	0	7	4	3	1	target	1	360	13.328	13.319	13.337
ProbeTrack7	17	ProbeTrack	1406	SCS215f	733718.414650	733718.415293	8	0.013328	60	10	60-180	60	91	GapExp	0	8	4	96	1	target	1	453	13.328	13.325	13.331
ProbeTrack7	17	ProbeTrack	1406	SCS215f	733718.414650	733718.415375	8	0.013328	60	10	60-180	60	122	GapExp	0	9	4	96	1	target	1	520	13.328	13.324	13.332
ProbeTrack7	17	ProbeTrack	1406	SCS215f	733718.414650	733718.415461	8	0.013328	60	10	60-180	60	148	GapExp	0	10	4	0	0	distractor	1	613	13.328	13.322	13.333
ProbeTrack7	17	ProbeTrack	1406	SCS215f	733718.414650	733718.415537	8	0.013328	60	10	60-180	60	157	GapExp	0	11	4	3	1	target	1	520	13.328	13.323	13.333
ProbeTrack7	17	ProbeTrack	1406	SCS215f	733718.414650	733718.415616	8	0.013328	60	10	60-180	60	153	GapExp	0	12	4	0	1	target	1	573	13.328	13.322	13.334
ProbeTrack7	17	ProbeTrack	1406	SCS215f	733718.414650	733718.415694	8	0.013328	60	10	60-180	60	67	GapExp	0	13	4	0	0	distractor	1	653	13.328	13.324	13.333
ProbeTrack7	17	ProbeTrack	1406	SCS215f	733718.414650	733718.415757	8	0.013328	60	10	60-180	60	65	GapExp	0	14	4	6	0	distractor	1	520	13.328	13.326	13.330
ProbeTrack7	17	ProbeTrack	1406	SCS215f	733718.414650	733718.415822	8	0.013328	60	10	60-180	60	164	GapExp	0	15	4	6	1	target	1	493	13.328	13.307	13.347
ProbeTrack7	17	ProbeTrack	1406	SCS215f	733718.414650	733718.415918	8	0.013328	60	10	60-180	60	131	GapExp	0	16	4	0	0	target	0	414	13.328	13.317	13.340
ProbeTrack7	17	ProbeTrack	1406	SCS215f	733718.414650	733718.415990	8	0.013328	60	10	60-180	60	175	GapExp	0	17	4	3	0	distractor	1	520	13.328	13.322	13.333
ProbeTrack7	17	ProbeTrack	1406	SCS215f	733718.414650	733718.416069	8	0.013328	60	10	60-180	60	178	GapExp	0	18	4	3	1	target	1	414	13.328	13.321	13.335
ProbeTrack7	17	ProbeTrack	1406	SCS215f	733718.414650	733718.416151	8	0.013328	60	10	60-180	60	72	GapExp	0	19	4	96	1	target	1	414	13.328	13.322	13.333
ProbeTrack7	17	ProbeTrack	1406	SCS215f	733718.414650	733718.416242	8	0.013328	60	10	60-180	60	168	GapExp	0	20	4	0	1	target	1	413	13.328	13.324	13.330
ProbeTrack7	17	ProbeTrack	1406	SCS215f	733718.414650	733718.416330	8	0.013328	60	10	60-180	60	169	GapExp	0	21	4	3	0	distractor	1	573	13.328	13.323	13.333
ProbeTrack7	17	ProbeTrack	1406	SCS215f	733718.414650	733718.416410	8	0.013328	60	10	60-180	60	141	GapExp	0	22	4	6	1	target	1	400	13.328	13.324	13.331
ProbeTrack7	17	ProbeTrack	1406	SCS215f	733718.414650	733718.416485	8	0.013328	60	10	60-180	60	91	GapExp	0	23	4	3	1	target	1	467	13.328	13.325	13.330
ProbeTrack7	17	ProbeTrack	1406	SCS215f	733718.414650	733718.416567	8	0.013328	60	10	60-180	60	70	GapExp	0	24	4	3	0	distractor	1	573	13.328	13.326	13.330
ProbeTrack7	17	ProbeTrack	1406	SCS215f	733718.414650	733718.416633	8	0.013328	60	10	60-180	60	90	GapExp	0	25	4	0	0	distractor	1	560	13.328	13.326	13.330
ProbeTrack7	17	ProbeTrack	1406	SCS215f	733718.414650	733718.416699	8	0.013328	60	10	60-180	60	160	GapExp	0	26	4	0	1	target	1	520	13.328	13.324	13.332
ProbeTrack7	17	ProbeTrack	1406	SCS215f	733718.414650	733718.416791	8	0.013328	60	10	60-180	60	111	GapExp	0	27	4	96	0	distractor	1	573	13.328	13.323	13.333
ProbeTrack7	17	ProbeTrack	1406	SCS215f	733718.414650	733718.416878	8	0.013328	60	10	60-180	60	95	GapExp	0	28	4	3	1	target	1	547	13.328	13.323	13.333
ProbeTrack7	17	ProbeTrack	1406	SCS215f	733718.414650	733718.416952	8	0.013328	60	10	60-180	60	145	GapExp	0	29	4	6	0	target	0	533	13.328	13.319	13.337
ProbeTrack7	17	ProbeTrack	1406	SCS215f	733718.414650	733718.417029	8	0.013328	60	10	60-180	60	145	GapExp	0	30	4	0	1	distractor	0	627	13.328	13.324	13.332
ProbeTrack7	17	ProbeTrack	1406	SCS215f	733718.414650	733718.417117	8	0.013328	60	10	60-180	60	111	GapExp	0	31	4	96	0	distractor	1	587	13.328	13.314	13.342
ProbeTrack7	17	ProbeTrack	1406	SCS215f	733718.414650	733718.417209	8	0.013328	60	10	60-180	60	128	GapExp	0	32	4	0	1	target	1	547	13.328	13.322	13.334
ProbeTrack7	17	ProbeTrack	1406	SCS215f	733718.414650	733718.417289	8	0.013328	60	10	60-180	60	105	GapExp	0	33	4	6	0	target	0	573	13.328	13.317	13.338
ProbeTrack7	17	ProbeTrack	1406	SCS215f	733718.414650	733718.417362	8	0.013328	60	10	60-180	60	95	GapExp	0	34	4	96	1	target	1	467	13.328	13.322	13.334
ProbeTrack7	17	ProbeTrack	1406	SCS215f	733718.414650	733718.417446	8	0.013328	60	10	60-180	60	106	GapExp	0	35	4	3	0	distractor	1	573	13.328	13.322	13.333
ProbeTrack7	17	ProbeTrack	1406	SCS215f	733718.414650	733718.417516	8	0.013328	60	10	60-180	60	158	GapExp	0	36	4	0	1	target	1	520	13.328	13.322	13.333
ProbeTrack7	17	ProbeTrack	1406	SCS215f	733718.414650	733718.417602	8	0.013328	60	10	60-180	60	164	GapExp	0	37	4	6	1	target	1	387	13.328	13.324	13.332
ProbeTrack7	17	ProbeTrack	1406	SCS215f	733718.414650	733718.417688	8	0.013328	60	10	60-180	60	167	GapExp	0	38	4	0	0	distractor	1	534	13.328	13.322	13.333
ProbeTrack7	17	ProbeTrack	1406	SCS215f	733718.414650	733718.417776	8	0.013328	60	10	60-180	60	122	GapExp	0	39	4	6	1	distractor	0	387	13.328	13.322	13.333
ProbeTrack7	17	ProbeTrack	1406	SCS215f	733718.414650	733718.417856	8	0.013328	60	10	60-180	60	170	GapExp	0	40	4	3	1	target	1	453	13.328	13.312	13.342
ProbeTrack7	17	ProbeTrack	1406	SCS215f	733718.414650	733718.417943	8	0.013328	60	10	60-180	60	149	GapExp	0	41	4	6	1	target	1	453	13.328	13.323	13.332
ProbeTrack7	17	ProbeTrack	1406	SCS215f	733718.414650	733718.418021	8	0.013328	60	10	60-180	60	94	GapExp	0	42	4	96	0	distractor	1	613	13.328	13.323	13.333
ProbeTrack7	17	ProbeTrack	1406	SCS215f	733718.414650	733718.418108	8	0.013328	60	10	60-180	60	133	GapExp	0	43	4	3	0	distractor	1	507	13.328	13.324	13.333
ProbeTrack7	17	ProbeTrack	1406	SCS215f	733718.414650	733718.418182	8	0.013328	60	10	60-180	60	146	GapExp	0	44	4	0	1	distractor	0	547	13.328	13.324	13.330
ProbeTrack7	17	ProbeTrack	1406	SCS215f	733718.414650	733718.418262	8	0.013328	60	10	60-180	60	75	GapExp	0	45	4	96	0	distractor	1	547	13.328	13.321	13.334
ProbeTrack7	17	ProbeTrack	1406	SCS215f	733718.414650	733718.418343	8	0.013328	60	10	60-180	60	180	GapExp	0	46	4	3	0	distractor	1	533	13.328	13.316	13.339
ProbeTrack7	17	ProbeTrack	1406	SCS215f	733718.414650	733718.418441	8	0.013328	60	10	60-180	60	64	GapExp	0	47	4	3	0	distractor	1	547	13.328	13.324	13.332
ProbeTrack7	17	ProbeTrack	1406	SCS215f	733718.414650	733718.418512	8	0.013328	60	10	60-180	60	99	GapExp	0	48	4	96	1	target	1	533	13.328	13.323	13.332
ProbeTrack7	17	ProbeTrack	1406	SCS215f	733718.414650	733718.418597	8	0.013328	60	10	60-180	60	151	GapExp	0	49	4	6	0	distractor	1	480	13.328	13.324	13.332
ProbeTrack7	17	ProbeTrack	1406	SCS215f	733718.414650	733718.418676	8	0.013328	60	10	60-180	60	107	GapExp	0	50	4	3	1	distractor	0	520	13.328	13.324	13.332
ProbeTrack7	17	ProbeTrack	1406	SCS215f	733718.414650	733718.418750	8	0.013328	60	10	60-180	60	176	GapExp	0	51	4	6	1	target	1	493	13.328	13.321	13.334
ProbeTrack7	17	ProbeTrack	1406	SCS215f	733718.414650	733718.418840	8	0.013328	60	10	60-180	60	98	GapExp	0	52	4	0	1	target	1	520	13.328	13.321	13.334
ProbeTrack7	17	ProbeTrack	1406	SCS215f	733718.414650	733718.418918	8	0.013328	60	10	60-180	60	77	GapExp	0	53	4	3	0	target	0	627	13.328	13.324	13.332
ProbeTrack7	17	ProbeTrack	1406	SCS215f	733718.414650	733718.418984	8	0.013328	60	10	60-180	60	102	GapExp	0	54	4	0	1	target	1	627	13.328	13.323	13.334
ProbeTrack7	17	ProbeTrack	1406	SCS215f	733718.414650	733718.419055	8	0.013328	60	10	60-180	60	151	GapExp	0	55	4	0	1	distractor	0	667	13.328	13.323	13.333
ProbeTrack7	17	ProbeTrack	1406	SCS215f	733718.414650	733718.419134	8	0.013328	60	10	60-180	60	92	GapExp	0	56	4	96	0	distractor	1	613	13.328	13.322	13.334
ProbeTrack7	17	ProbeTrack	1406	SCS215f	733718.414650	733718.419227	8	0.013328	60	10	60-180	60	74	GapExp	0	57	4	3	1	target	1	440	13.328	13.322	13.333
ProbeTrack7	17	ProbeTrack	1406	SCS215f	733718.414650	733718.419295	8	0.013328	60	10	60-180	60	64	GapExp	0	58	4	96	1	32	-3	467	13.328	13.313	13.342
ProbeTrack7	17	ProbeTrack	1406	SCS215f	733718.414650	733718.419377	8	0.013328	60	10	60-180	60	72	GapExp	0	59	4	96	1	target	1	387	13.328	13.321	13.334
ProbeTrack7	17	ProbeTrack	1406	SCS215f	733718.414650	733718.419469	8	0.013328	60	10	60-180	60	105	GapExp	0	60	4	6	1	target	1	347	13.328	13.326	13.330
ProbeTrack7	17	ProbeTrack	1406	SCS215f	733718.414650	733718.419541	8	0.013328	60	10	60-180	60	91	GapExp	0	61	4	6	0	distractor	1	493	13.328	13.325	13.332
ProbeTrack7	17	ProbeTrack	1406	SCS215f	733718.414650	733718.419614	8	0.013328	60	10	60-180	60	129	GapExp	0	62	4	96	0	distractor	1	493	13.328	13.319	13.335
ProbeTrack7	17	ProbeTrack	1406	SCS215f	733718.414650	733718.419714	8	0.013328	60	10	60-180	60	174	GapExp	0	63	4	3	0	distractor	1	507	13.328	13.323	13.334
ProbeTrack7	17	ProbeTrack	1406	SCS215f	733718.414650	733718.419798	8	0.013328	60	10	60-180	60	163	GapExp	0	64	4	3	1	distractor	0	627	13.328	13.323	13.333
ProbeTrack7	17	ProbeTrack	1406	SCS215f	733718.414650	733718.419881	8	0.013328	60	10	60-180	60	113	GapExp	0	65	4	96	0	distractor	1	453	13.328	13.324	13.332
ProbeTrack7	17	ProbeTrack	1406	SCS215f	733718.414650	733718.419968	8	0.013328	60	10	60-180	60	134	GapExp	0	66	4	6	1	target	1	400	13.328	13.325	13.331
ProbeTrack7	17	ProbeTrack	1406	SCS215f	733718.414650	733718.420043	8	0.013328	60	10	60-180	60	124	GapExp	0	67	4	3	0	distractor	1	573	13.328	13.322	13.333
ProbeTrack7	17	ProbeTrack	1406	SCS215f	733718.414650	733718.420126	8	0.013328	60	10	60-180	60	144	GapExp	0	68	4	96	1	distractor	0	467	13.328	13.323	13.332
ProbeTrack7	17	ProbeTrack	1406	SCS215f	733718.414650	733718.420220	8	0.013328	60	10	60-180	60	68	GapExp	0	69	4	3	1	target	1	440	13.328	13.322	13.333
ProbeTrack7	17	ProbeTrack	1406	SCS215f	733718.414650	733718.420282	8	0.013328	60	10	60-180	60	105	GapExp	0	70	4	6	1	target	1	387	13.328	13.317	13.338
ProbeTrack7	17	ProbeTrack	1406	SCS215f	733718.414650	733718.420351	8	0.013328	60	10	60-180	60	85	GapExp	0	71	4	3	1	distractor	0	493	13.328	13.319	13.338
ProbeTrack7	17	ProbeTrack	1406	SCS215f	733718.414650	733718.420417	8	0.013328	60	10	60-180	60	165	GapExp	0	72	4	6	0	target	0	374	13.328	13.323	13.332
ProbeTrack7	17	ProbeTrack	1406	SCS215f	733718.414650	733718.420497	8	0.013328	60	10	60-180	60	131	GapExp	0	73	4	0	1	target	1	533	13.328	13.322	13.334
ProbeTrack7	17	ProbeTrack	1406	SCS215f	733718.414650	733718.420573	8	0.013328	60	10	60-180	60	172	GapExp	0	74	4	3	1	target	1	374	13.328	13.323	13.333
ProbeTrack7	17	ProbeTrack	1406	SCS215f	733718.414650	733718.420697	8	0.013328	60	10	60-180	60	113	GapExp	0	75	4	6	1	target	1	387	13.328	13.324	13.331
ProbeTrack7	17	ProbeTrack	1406	SCS215f	733718.414650	733718.420767	8	0.013328	60	10	60-180	60	80	GapExp	0	76	4	3	0	target	0	667	13.328	13.326	13.330
ProbeTrack7	17	ProbeTrack	1406	SCS215f	733718.414650	733718.420838	8	0.013328	60	10	60-180	60	85	GapExp	0	77	4	6	0	target	0	507	13.328	13.325	13.332
ProbeTrack7	17	ProbeTrack	1406	SCS215f	733718.414650	733718.420907	8	0.013328	60	10	60-180	60	172	GapExp	0	78	4	0	1	distractor	0	573	13.328	13.325	13.333
ProbeTrack7	17	ProbeTrack	1406	SCS215f	733718.414650	733718.420994	8	0.013328	60	10	60-180	60	149	GapExp	0	79	4	6	0	target	0	374	13.328	13.322	13.333
ProbeTrack7	17	ProbeTrack	1406	SCS215f	733718.414650	733718.421074	8	0.013328	60	10	60-180	60	144	GapExp	0	80	4	96	0	distractor	1	560	13.328	13.317	13.338
ProbeTrack7	17	ProbeTrack	1406	SCS215f	733718.414650	733718.421173	8	0.013328	60	10	60-180	60	165	GapExp	0	81	4	96	0	target	0	507	13.328	13.320	13.336
ProbeTrack7	17	ProbeTrack	1406	SCS215f	733718.414650	733718.421277	8	0.013328	60	10	60-180	60	89	GapExp	0	82	4	6	0	distractor	1	667	13.328	13.324	13.332
ProbeTrack7	17	ProbeTrack	1406	SCS215f	733718.414650	733718.421386	8	0.013328	60	10	60-180	60	102	GapExp	0	83	4	3	1	target	1	560	13.328	13.322	13.333
ProbeTrack7	17	ProbeTrack	1406	SCS215f	733718.414650	733718.421461	8	0.013328	60	10	60-180	60	166	GapExp	0	84	4	6	0	distractor	1	600	13.328	13.325	13.330
ProbeTrack7	17	ProbeTrack	1406	SCS215f	733718.414650	733718.421544	8	0.013328	60	10	60-180	60	157	GapExp	0	85	4	0	0	distractor	1	560	13.328	13.324	13.334
ProbeTrack7	17	ProbeTrack	1406	SCS215f	733718.414650	733718.421622	8	0.013328	60	10	60-180	60	112	GapExp	0	86	4	0	0	distractor	1	587	13.328	13.316	13.339
ProbeTrack7	17	ProbeTrack	1406	SCS215f	733718.414650	733718.421694	8	0.013328	60	10	60-180	60	177	GapExp	0	87	4	3	1	target	1	440	13.328	13.324	13.332
ProbeTrack7	17	ProbeTrack	1406	SCS215f	733718.414650	733718.421777	8	0.013328	60	10	60-180	60	64	GapExp	0	88	4	96	0	distractor	1	627	13.328	13.325	13.331
ProbeTrack7	17	ProbeTrack	1406	SCS215f	733718.414650	733718.421853	8	0.013328	60	10	60-180	60	136	GapExp	0	89	4	96	0	distractor	1	587	13.328	13.323	13.332
ProbeTrack7	17	ProbeTrack	1406	SCS215f	733718.414650	733718.422092	8	0.013328	60	10	60-180	60	79	GapExp	0	90	4	96	0	distractor	1	520	13.328	13.323	13.333
ProbeTrack7	17	ProbeTrack	1406	SCS215f	733718.414650	733718.422174	8	0.013328	60	10	60-180	60	64	GapExp	0	91	4	3	0	distractor	1	653	13.328	13.323	13.333
ProbeTrack7	17	ProbeTrack	1406	SCS215f	733718.414650	733718.422293	8	0.013328	60	10	60-180	60	137	GapExp	0	92	4	96	1	target	1	653	13.328	13.324	13.331
ProbeTrack7	17	ProbeTrack	1406	SCS215f	733718.414650	733718.422389	8	0.013328	60	10	60-180	60	128	GapExp	0	93	4	6	1	distractor	0	520	13.328	13.324	13.332
ProbeTrack7	17	ProbeTrack	1406	SCS215f	733718.414650	733718.422464	8	0.013328	60	10	60-180	60	114	GapExp	0	94	4	6	0	distractor	1	427	13.328	13.311	13.344
ProbeTrack7	17	ProbeTrack	1406	SCS215f	733718.414650	733718.422537	8	0.013328	60	10	60-180	60	66	GapExp	0	95	4	3	1	target	1	667	13.328	13.326	13.330
ProbeTrack7	17	ProbeTrack	1406	SCS215f	733718.414650	733718.422632	8	0.013328	60	10	60-180	60	146	GapExp	0	96	4	96	0	target	0	387	13.328	13.323	13.332
ProbeTrack7	17	ProbeTrack	1406	SCS215f	733718.414650	733718.422722	8	0.013328	60	10	60-180	60	174	GapExp	0	97	4	0	0	distractor	1	587	13.328	13.325	13.332
ProbeTrack7	17	ProbeTrack	1406	SCS215f	733718.414650	733718.422803	8	0.013328	60	10	60-180	60	159	GapExp	0	98	4	96	0	distractor	1	573	13.328	13.322	13.333
ProbeTrack7	17	ProbeTrack	1406	SCS215f	733718.414650	733718.422899	8	0.013328	60	10	60-180	60	100	GapExp	0	99	4	0	0	distractor	1	507	13.328	13.322	13.333
ProbeTrack7	17	ProbeTrack	1406	SCS215f	733718.414650	733718.422966	8	0.013328	60	10	60-180	60	116	GapExp	0	100	4	96	1	distractor	0	560	13.328	13.322	13.333
ProbeTrack7	17	ProbeTrack	1406	SCS215f	733718.414650	733718.423054	8	0.013328	60	10	60-180	60	81	GapExp	0	101	4	6	0	distractor	1	480	13.328	13.320	13.336
ProbeTrack7	17	ProbeTrack	1406	SCS215f	733718.414650	733718.423118	8	0.013328	60	10	60-180	60	115	GapExp	0	102	4	0	0	distractor	1	467	13.328	13.323	13.333
ProbeTrack7	17	ProbeTrack	1406	SCS215f	733718.414650	733718.423188	8	0.013328	60	10	60-180	60	87	GapExp	0	103	4	0	0	distractor	1	533	13.328	13.324	13.333
ProbeTrack7	17	ProbeTrack	1406	SCS215f	733718.414650	733718.423255	8	0.013328	60	10	60-180	60	177	GapExp	0	104	4	96	1	target	1	573	13.328	13.323	13.333
ProbeTrack7	17	ProbeTrack	1406	SCS215f	733718.414650	733718.423355	8	0.013328	60	10	60-180	60	108	GapExp	0	105	4	6	0	distractor	1	547	13.328	13.324	13.332
ProbeTrack7	17	ProbeTrack	1406	SCS215f	733718.414650	733718.423425	8	0.013328	60	10	60-180	60	162	GapExp	0	106	4	3	0	distractor	1	480	13.328	13.323	13.332
ProbeTrack7	17	ProbeTrack	1406	SCS215f	733718.414650	733718.423506	8	0.013328	60	10	60-180	60	125	GapExp	0	107	4	6	1	target	1	440	13.328	13.323	13.332
ProbeTrack7	17	ProbeTrack	1406	SCS215f	733718.414650	733718.423578	8	0.013328	60	10	60-180	60	63	GapExp	0	108	4	0	1	target	1	520	13.328	13.304	13.351
ProbeTrack7	17	ProbeTrack	1406	SCS215f	733718.414650	733718.423643	8	0.013328	60	10	60-180	60	77	GapExp	0	109	4	3	0	distractor	1	627	13.328	13.322	13.333
ProbeTrack7	17	ProbeTrack	1406	SCS215f	733718.414650	733718.423711	8	0.013328	60	10	60-180	60	128	GapExp	0	110	4	3	0	distractor	1	613	13.328	13.314	13.340
ProbeTrack7	17	ProbeTrack	1406	SCS215f	733718.414650	733718.423787	8	0.013328	60	10	60-180	60	143	GapExp	0	111	4	0	1	distractor	0	613	13.328	13.321	13.335
ProbeTrack7	17	ProbeTrack	1406	SCS215f	733718.414650	733718.423871	8	0.013328	60	10	60-180	60	69	GapExp	0	112	4	96	1	target	1	414	13.328	13.323	13.332
ProbeTrack7	17	ProbeTrack	1406	SCS215f	733718.414650	733718.423946	8	0.013328	60	10	60-180	60	100	GapExp	0	113	4	96	0	distractor	1	600	13.328	13.318	13.337
ProbeTrack7	17	ProbeTrack	1406	SCS215f	733718.414650	733718.424035	8	0.013328	60	10	60-180	60	87	GapExp	0	114	4	0	1	distractor	0	507	13.328	13.326	13.330
ProbeTrack7	17	ProbeTrack	1406	SCS215f	733718.414650	733718.424102	8	0.013328	60	10	60-180	60	119	GapExp	0	115	4	0	0	distractor	1	480	13.328	13.312	13.344
ProbeTrack7	17	ProbeTrack	1406	SCS215f	733718.414650	733718.424171	8	0.013328	60	10	60-180	60	116	GapExp	0	116	4	96	1	target	1	600	13.328	13.323	13.333
ProbeTrack7	17	ProbeTrack	1406	SCS215f	733718.414650	733718.424259	8	0.013328	60	10	60-180	60	66	GapExp	0	117	4	0	0	distractor	1	560	13.328	13.319	13.336
ProbeTrack7	17	ProbeTrack	1406	SCS215f	733718.414650	733718.424321	8	0.013328	60	10	60-180	60	126	GapExp	0	118	4	6	1	target	1	493	13.328	13.323	13.333
ProbeTrack7	17	ProbeTrack	1406	SCS215f	733718.414650	733718.424396	8	0.013328	60	10	60-180	60	141	GapExp	0	119	4	96	1	target	1	374	13.328	13.322	13.334
ProbeTrack7	17	ProbeTrack	1406	SCS215f	733718.414650	733718.424486	8	0.013328	60	10	60-180	60	79	GapExp	0	120	4	0	0	distractor	1	587	13.328	13.313	13.343
ProbeTrack7	17	ProbeTrack	1406	SCS215f	733718.414650	733718.424553	8	0.013328	60	10	60-180	60	177	GapExp	0	121	4	6	1	target	1	427	13.328	13.323	13.333
ProbeTrack7	17	ProbeTrack	1406	SCS215f	733718.414650	733718.424634	8	0.013328	60	10	60-180	60	71	GapExp	0	122	4	6	0	distractor	1	627	13.328	13.325	13.331
ProbeTrack7	17	ProbeTrack	1406	SCS215f	733718.414650	733718.424699	8	0.013328	60	10	60-180	60	128	GapExp	0	123	4	6	0	target	0	480	13.328	13.315	13.340
ProbeTrack7	17	ProbeTrack	1406	SCS215f	733718.414650	733718.424774	8	0.013328	60	10	60-180	60	157	GapExp	0	124	4	96	1	target	1	680	13.328	13.323	13.332
ProbeTrack7	17	ProbeTrack	1406	SCS215f	733718.414650	733718.424869	8	0.013328	60	10	60-180	60	84	GapExp	0	125	4	0	0	distractor	1	587	13.328	13.324	13.330
