exp	sub	code	rev	comp	runtime	trialtime	nstim	refreshdur	cuedur	gapdur	gapOnsetRange	durPostProbe	gapOnsetTime	blocktype	prac	trial	ntargets	soa	probeTarget	resp	acc	rt	meanFrameDur	minFrameDur	maxFrameDur
ProbeTrack7	32	ProbeTrack	1406	SCS215g	733725.446121	733725.447065	8	0.013328	60	0	60-180	60	87	NoGap	1	1	4	3	0	target	0	1573	13.328	13.324	13.334
ProbeTrack7	32	ProbeTrack	1406	SCS215g	733725.446121	733725.447527	8	0.013328	60	0	60-180	60	164	NoGap	1	2	4	6	0	distractor	1	1253	13.328	13.324	13.333
ProbeTrack7	32	ProbeTrack	1406	SCS215g	733725.446121	733725.447689	8	0.013328	60	0	60-180	60	83	NoGap	1	3	4	0	0	distractor	1	1306	13.328	13.323	13.333
ProbeTrack7	32	ProbeTrack	1406	SCS215g	733725.446121	733725.447931	8	0.013328	60	0	60-180	60	119	NoGap	1	4	4	96	0	target	0	1440	13.328	13.316	13.341
ProbeTrack7	32	ProbeTrack	1406	SCS215g	733725.446121	733725.448038	8	0.013328	60	0	60-180	60	104	NoGap	1	5	4	0	0	83	-3	1080	13.328	13.325	13.333
ProbeTrack7	32	ProbeTrack	1406	SCS215g	733725.446121	733725.448118	8	0.013328	60	0	60-180	60	158	NoGap	1	6	4	96	0	distractor	1	867	13.328	13.322	13.335
ProbeTrack7	32	ProbeTrack	1406	SCS215g	733725.446121	733725.448215	8	0.013328	60	0	60-180	60	108	NoGap	1	7	4	96	1	target	1	1173	13.328	13.324	13.334
ProbeTrack7	32	ProbeTrack	1406	SCS215g	733725.446121	733725.448309	8	0.013328	60	0	60-180	60	131	NoGap	1	8	4	0	1	target	1	1266	13.328	13.323	13.334
ProbeTrack7	32	ProbeTrack	1406	SCS215g	733725.446121	733725.448389	8	0.013328	60	0	60-180	60	137	NoGap	1	9	4	6	1	multi	-2	1240	13.328	13.322	13.335
ProbeTrack7	32	ProbeTrack	1406	SCS215g	733725.446121	733725.448469	8	0.013328	60	0	60-180	60	126	NoGap	1	10	4	6	1	target	1	893	13.328	13.324	13.334
ProbeTrack7	32	ProbeTrack	1406	SCS215g	733725.446121	733725.448558	8	0.013328	60	0	60-180	60	169	NoGap	1	11	4	0	1	target	1	1306	13.328	13.318	13.340
ProbeTrack7	32	ProbeTrack	1406	SCS215g	733725.446121	733725.448644	8	0.013328	60	0	60-180	60	103	NoGap	1	12	4	96	1	distractor	0	893	13.328	13.321	13.336
ProbeTrack7	32	ProbeTrack	1406	SCS215g	733725.446121	733725.448737	8	0.013328	60	0	60-180	60	138	NoGap	1	13	4	96	0	distractor	1	1413	13.328	13.322	13.334
ProbeTrack7	32	ProbeTrack	1406	SCS215g	733725.446121	733725.448840	8	0.013328	60	0	60-180	60	147	NoGap	1	14	4	3	0	distractor	1	1146	13.328	13.323	13.333
ProbeTrack7	32	ProbeTrack	1406	SCS215g	733725.446121	733725.448935	8	0.013328	60	0	60-180	60	112	NoGap	1	15	4	0	0	distractor	1	1200	13.328	13.324	13.334
ProbeTrack7	32	ProbeTrack	1406	SCS215g	733725.446121	733725.449019	8	0.013328	60	0	60-180	60	116	NoGap	1	16	4	96	0	distractor	1	1253	13.328	13.324	13.332
ProbeTrack7	32	ProbeTrack	1406	SCS215g	733725.446121	733725.449107	8	0.013328	60	0	60-180	60	83	NoGap	1	17	4	96	1	multi	-2	947	13.328	13.324	13.334
ProbeTrack7	32	ProbeTrack	1406	SCS215g	733725.446121	733725.449188	8	0.013328	60	0	60-180	60	108	NoGap	1	18	4	6	1	83	-3	1053	13.328	13.323	13.334
ProbeTrack7	32	ProbeTrack	1406	SCS215g	733725.446121	733725.449262	8	0.013328	60	0	60-180	60	158	NoGap	1	19	4	3	0	distractor	1	1240	13.328	13.322	13.333
ProbeTrack7	32	ProbeTrack	1406	SCS215g	733725.446121	733725.449346	8	0.013328	60	0	60-180	60	176	NoGap	1	20	4	0	0	distractor	1	1466	13.328	13.317	13.341
ProbeTrack7	32	ProbeTrack	1406	SCS215g	733725.446121	733725.449440	8	0.013328	60	0	60-180	60	70	NoGap	1	21	4	3	1	target	1	1360	13.328	13.322	13.334
ProbeTrack7	32	ProbeTrack	1406	SCS215g	733725.446121	733725.449513	8	0.013328	60	0	60-180	60	144	NoGap	1	22	4	0	1	target	1	1493	13.328	13.317	13.340
ProbeTrack7	32	ProbeTrack	1406	SCS215g	733725.446121	733725.449596	8	0.013328	60	0	60-180	60	90	NoGap	1	23	4	0	0	distractor	1	1253	13.328	13.319	13.338
ProbeTrack7	32	ProbeTrack	1406	SCS215g	733725.446121	733725.449675	8	0.013328	60	0	60-180	60	175	NoGap	1	24	4	96	0	distractor	1	987	13.328	13.324	13.334
ProbeTrack7	32	ProbeTrack	1406	SCS215g	733725.446121	733725.449770	8	0.013328	60	0	60-180	60	113	NoGap	1	25	4	0	1	target	1	1373	13.328	13.324	13.333
ProbeTrack7	32	ProbeTrack	1406	SCS215g	733725.446121	733725.449846	8	0.013328	60	0	60-180	60	102	NoGap	1	26	4	3	0	distractor	1	1146	13.328	13.323	13.334
ProbeTrack7	32	ProbeTrack	1406	SCS215g	733725.446121	733725.449929	8	0.013328	60	0	60-180	60	105	NoGap	1	27	4	96	1	distractor	0	987	13.328	13.324	13.334
ProbeTrack7	32	ProbeTrack	1406	SCS215g	733725.446121	733725.450026	8	0.013328	60	0	60-180	60	130	NoGap	1	28	4	6	0	distractor	1	1080	13.328	13.324	13.333
ProbeTrack7	32	ProbeTrack	1406	SCS215g	733725.446121	733725.450104	8	0.013328	60	0	60-180	60	178	NoGap	1	29	4	96	1	target	1	1320	13.328	13.323	13.334
ProbeTrack7	32	ProbeTrack	1406	SCS215g	733725.446121	733725.450204	8	0.013328	60	0	60-180	60	90	NoGap	1	30	4	0	1	target	1	1333	13.328	13.323	13.333
ProbeTrack7	32	ProbeTrack	1406	SCS215g	733725.446121	733725.450284	8	0.013328	60	0	60-180	60	167	NoGap	1	31	4	6	0	distractor	1	1466	13.328	13.323	13.334
ProbeTrack7	32	ProbeTrack	1406	SCS215g	733725.446121	733725.450370	8	0.013328	60	0	60-180	60	125	NoGap	1	32	4	3	1	target	1	1360	13.328	13.324	13.334
ProbeTrack7	32	ProbeTrack	1406	SCS215g	733725.446121	733725.450449	8	0.013328	60	0	60-180	60	158	NoGap	1	33	4	6	1	target	1	1186	13.328	13.324	13.333
ProbeTrack7	32	ProbeTrack	1406	SCS215g	733725.446121	733725.450530	8	0.013328	60	0	60-180	60	77	NoGap	1	34	4	96	1	target	1	1027	13.328	13.324	13.334
ProbeTrack7	32	ProbeTrack	1406	SCS215g	733725.446121	733725.450615	8	0.013328	60	0	60-180	60	90	NoGap	1	35	4	0	0	distractor	1	1080	13.328	13.323	13.333
ProbeTrack7	32	ProbeTrack	1406	SCS215g	733725.446121	733725.450683	8	0.013328	60	0	60-180	60	124	NoGap	1	36	4	6	1	target	1	2413	13.328	13.324	13.334
ProbeTrack7	32	ProbeTrack	1406	SCS215g	733725.446121	733725.450774	8	0.013328	60	0	60-180	60	97	NoGap	1	37	4	96	0	distractor	1	960	13.328	13.324	13.333
ProbeTrack7	32	ProbeTrack	1406	SCS215g	733725.446121	733725.450861	8	0.013328	60	0	60-180	60	107	NoGap	1	38	4	6	0	distractor	1	1186	13.328	13.324	13.333
ProbeTrack7	32	ProbeTrack	1406	SCS215g	733725.446121	733725.450934	8	0.013328	60	0	60-180	60	92	NoGap	1	39	4	96	0	distractor	1	1120	13.328	13.323	13.334
ProbeTrack7	32	ProbeTrack	1406	SCS215g	733725.446121	733725.451019	8	0.013328	60	0	60-180	60	103	NoGap	1	40	4	3	0	distractor	1	1760	13.328	13.325	13.332
ProbeTrack7	32	ProbeTrack	1406	SCS215g	733725.446121	733725.451107	8	0.013328	60	0	60-180	60	71	NoGap	1	41	4	3	1	target	1	1200	13.328	13.324	13.332
ProbeTrack7	32	ProbeTrack	1406	SCS215g	733725.446121	733725.451175	8	0.013328	60	0	60-180	60	135	NoGap	1	42	4	6	0	distractor	1	1133	13.328	13.323	13.332
ProbeTrack7	32	ProbeTrack	1406	SCS215g	733725.446121	733725.451261	8	0.013328	60	0	60-180	60	154	NoGap	1	43	4	0	1	distractor	0	880	13.328	13.324	13.334
ProbeTrack7	32	ProbeTrack	1406	SCS215g	733725.446121	733725.451346	8	0.013328	60	0	60-180	60	141	NoGap	1	44	4	6	1	distractor	0	1040	13.328	13.322	13.336
ProbeTrack7	32	ProbeTrack	1406	SCS215g	733725.446121	733725.451434	8	0.013328	60	0	60-180	60	152	NoGap	1	45	4	6	0	distractor	1	1040	13.328	13.323	13.332
ProbeTrack7	32	ProbeTrack	1406	SCS215g	733725.446121	733725.451515	8	0.013328	60	0	60-180	60	178	NoGap	1	46	4	3	1	target	1	1000	13.328	13.323	13.334
ProbeTrack7	32	ProbeTrack	1406	SCS215g	733725.446121	733725.451597	8	0.013328	60	0	60-180	60	177	NoGap	1	47	4	6	1	target	1	1186	13.328	13.322	13.336
ProbeTrack7	32	ProbeTrack	1406	SCS215g	733725.446121	733725.451694	8	0.013328	60	0	60-180	60	63	NoGap	1	48	4	3	0	distractor	1	1186	13.328	13.326	13.331
ProbeTrack7	32	ProbeTrack	1406	SCS215g	733725.446121	733725.451762	8	0.013328	60	0	60-180	60	110	NoGap	1	49	4	0	0	distractor	1	1027	13.328	13.324	13.334
ProbeTrack7	32	ProbeTrack	1406	SCS215g	733725.446121	733725.451846	8	0.013328	60	0	60-180	60	138	NoGap	1	50	4	3	1	target	1	1240	13.328	13.323	13.334
ProbeTrack7	32	ProbeTrack	1406	SCS215g	733725.452858	733725.453244	8	0.013328	60	10	60-180	60	78	GapPrac	1	1	4	0	1	target	1	1160	13.328	13.327	13.330
ProbeTrack7	32	ProbeTrack	1406	SCS215g	733725.452858	733725.453355	8	0.013328	60	10	60-180	60	145	GapPrac	1	2	4	6	1	target	1	1053	13.328	13.324	13.331
ProbeTrack7	32	ProbeTrack	1406	SCS215g	733725.452858	733725.453455	8	0.013328	60	10	60-180	60	151	GapPrac	1	3	4	6	0	distractor	1	987	13.328	13.323	13.333
ProbeTrack7	32	ProbeTrack	1406	SCS215g	733725.452858	733725.453548	8	0.013328	60	10	60-180	60	150	GapPrac	1	4	4	3	0	distractor	1	1027	13.328	13.323	13.334
ProbeTrack7	32	ProbeTrack	1406	SCS215g	733725.452858	733725.453637	8	0.013328	60	10	60-180	60	169	GapPrac	1	5	4	3	0	distractor	1	1000	13.328	13.324	13.333
ProbeTrack7	32	ProbeTrack	1406	SCS215g	733725.452858	733725.453725	8	0.013328	60	10	60-180	60	114	GapPrac	1	6	4	96	0	distractor	1	1120	13.328	13.321	13.335
ProbeTrack7	32	ProbeTrack	1406	SCS215g	733725.452858	733725.453826	8	0.013328	60	10	60-180	60	167	GapPrac	1	7	4	6	0	distractor	1	1293	13.328	13.325	13.332
ProbeTrack7	32	ProbeTrack	1406	SCS215g	733725.452858	733725.453912	8	0.013328	60	10	60-180	60	160	GapPrac	1	8	4	0	1	target	1	1266	13.328	13.324	13.333
ProbeTrack7	32	ProbeTrack	1406	SCS215g	733725.452858	733725.453997	8	0.013328	60	10	60-180	60	65	GapPrac	1	9	4	3	1	target	1	1226	13.328	13.324	13.332
ProbeTrack7	32	ProbeTrack	1406	SCS215g	733725.452858	733725.454074	8	0.013328	60	10	60-180	60	61	GapPrac	1	10	4	96	0	distractor	1	1080	13.328	13.324	13.332
ProbeTrack7	32	ProbeTrack	1406	SCS215g	733725.452858	733725.454163	8	0.013328	60	10	60-180	60	88	GapPrac	1	11	4	6	1	target	1	1226	13.328	13.324	13.332
ProbeTrack7	32	ProbeTrack	1406	SCS215g	733725.452858	733725.454234	8	0.013328	60	10	60-180	60	66	GapPrac	1	12	4	3	0	target	0	1133	13.328	13.322	13.334
ProbeTrack7	32	ProbeTrack	1406	SCS215g	733725.452858	733725.454301	8	0.013328	60	10	60-180	60	172	GapPrac	1	13	4	0	0	distractor	1	1000	13.328	13.324	13.333
ProbeTrack7	32	ProbeTrack	1406	SCS215g	733725.452858	733725.454387	8	0.013328	60	10	60-180	60	163	GapPrac	1	14	4	3	1	distractor	0	1013	13.328	13.325	13.332
ProbeTrack7	32	ProbeTrack	1406	SCS215g	733725.452858	733725.454469	8	0.013328	60	10	60-180	60	142	GapPrac	1	15	4	96	1	target	1	1280	13.328	13.323	13.332
ProbeTrack7	32	ProbeTrack	1406	SCS215g	733725.452858	733725.454567	8	0.013328	60	10	60-180	60	152	GapPrac	1	16	4	96	1	target	1	1093	13.328	13.323	13.332
ProbeTrack7	32	ProbeTrack	1406	SCS215g	733725.452858	733725.454661	8	0.013328	60	10	60-180	60	71	GapPrac	1	17	4	0	1	target	1	1120	13.328	13.324	13.333
ProbeTrack7	32	ProbeTrack	1406	SCS215g	733725.452858	733725.454728	8	0.013328	60	10	60-180	60	174	GapPrac	1	18	4	0	0	distractor	1	973	13.328	13.324	13.334
ProbeTrack7	32	ProbeTrack	1406	SCS215g	733725.452858	733725.454809	8	0.013328	60	10	60-180	60	79	GapPrac	1	19	4	6	1	target	1	1226	13.328	13.324	13.332
ProbeTrack7	32	ProbeTrack	1406	SCS215g	733725.452858	733725.454882	8	0.013328	60	10	60-180	60	126	GapPrac	1	20	4	6	0	distractor	1	973	13.328	13.324	13.334
ProbeTrack7	32	ProbeTrack	1406	SCS215g	733725.457236	733725.457379	8	0.013328	60	10	60-180	60	132	GapExp	1	1	4	96	0	distractor	1	1067	13.328	13.324	13.333
ProbeTrack7	32	ProbeTrack	1406	SCS215g	733725.457236	733725.457485	8	0.013328	60	10	60-180	60	61	GapExp	1	2	4	0	1	target	1	1453	13.328	13.324	13.332
ProbeTrack7	32	ProbeTrack	1406	SCS215g	733725.457236	733725.457556	8	0.013328	60	10	60-180	60	101	GapExp	1	3	4	6	0	distractor	1	1213	13.328	13.324	13.334
ProbeTrack7	32	ProbeTrack	1406	SCS215g	733725.457236	733725.457645	8	0.013328	60	10	60-180	60	76	GapExp	1	4	4	3	1	multi	-2	1626	13.328	13.324	13.332
ProbeTrack7	32	ProbeTrack	1406	SCS215g	733725.457236	733725.457729	8	0.013328	60	10	60-180	60	85	GapExp	1	5	4	0	0	distractor	1	1080	13.328	13.324	13.333
ProbeTrack7	32	ProbeTrack	1406	SCS215g	733725.457236	733725.457798	8	0.013328	60	10	60-180	60	105	GapExp	0	6	4	3	1	target	1	947	13.328	13.325	13.332
ProbeTrack7	32	ProbeTrack	1406	SCS215g	733725.457236	733725.457870	8	0.013328	60	10	60-180	60	179	GapExp	0	7	4	6	0	distractor	1	1386	13.328	13.317	13.339
ProbeTrack7	32	ProbeTrack	1406	SCS215g	733725.457236	733725.457965	8	0.013328	60	10	60-180	60	137	GapExp	0	8	4	3	0	distractor	1	2159	13.328	13.323	13.333
ProbeTrack7	32	ProbeTrack	1406	SCS215g	733725.457236	733725.458056	8	0.013328	60	10	60-180	60	82	GapExp	0	9	4	96	0	distractor	1	1133	13.328	13.323	13.333
ProbeTrack7	32	ProbeTrack	1406	SCS215g	733725.457236	733725.458139	8	0.013328	60	10	60-180	60	92	GapExp	0	10	4	96	0	distractor	1	1186	13.328	13.323	13.333
ProbeTrack7	32	ProbeTrack	1406	SCS215g	733725.457236	733725.458235	8	0.013328	60	10	60-180	60	76	GapExp	0	11	4	6	0	distractor	1	1053	13.328	13.324	13.333
ProbeTrack7	32	ProbeTrack	1406	SCS215g	733725.457236	733725.458306	8	0.013328	60	10	60-180	60	170	GapExp	0	12	4	6	1	target	1	1120	13.328	13.323	13.333
ProbeTrack7	32	ProbeTrack	1406	SCS215g	733725.457236	733725.458389	8	0.013328	60	10	60-180	60	122	GapExp	0	13	4	3	1	target	1	1106	13.328	13.322	13.332
ProbeTrack7	32	ProbeTrack	1406	SCS215g	733725.457236	733725.458468	8	0.013328	60	10	60-180	60	164	GapExp	0	14	4	96	0	target	0	1133	13.328	13.323	13.335
ProbeTrack7	32	ProbeTrack	1406	SCS215g	733725.457236	733725.458566	8	0.013328	60	10	60-180	60	171	GapExp	0	15	4	96	1	target	1	973	13.328	13.313	13.342
ProbeTrack7	32	ProbeTrack	1406	SCS215g	733725.457236	733725.458662	8	0.013328	60	10	60-180	60	95	GapExp	0	16	4	6	0	distractor	1	1067	13.328	13.325	13.332
ProbeTrack7	32	ProbeTrack	1406	SCS215g	733725.457236	733725.458733	8	0.013328	60	10	60-180	60	89	GapExp	0	17	4	96	1	distractor	0	1333	13.328	13.324	13.334
ProbeTrack7	32	ProbeTrack	1406	SCS215g	733725.457236	733725.458819	8	0.013328	60	10	60-180	60	142	GapExp	0	18	4	96	1	target	1	1067	13.328	13.314	13.342
ProbeTrack7	32	ProbeTrack	1406	SCS215g	733725.457236	733725.458919	8	0.013328	60	10	60-180	60	61	GapExp	0	19	4	96	1	target	1	1067	13.328	13.315	13.334
ProbeTrack7	32	ProbeTrack	1406	SCS215g	733725.457236	733725.458998	8	0.013328	60	10	60-180	60	172	GapExp	0	20	4	6	1	target	1	1653	13.328	13.324	13.332
ProbeTrack7	32	ProbeTrack	1406	SCS215g	733725.457236	733725.459102	8	0.013328	60	10	60-180	60	91	GapExp	0	21	4	96	0	distractor	1	1093	13.328	13.325	13.333
ProbeTrack7	32	ProbeTrack	1406	SCS215g	733725.457236	733725.459188	8	0.013328	60	10	60-180	60	118	GapExp	0	22	4	96	0	distractor	1	1226	13.328	13.324	13.332
ProbeTrack7	32	ProbeTrack	1406	SCS215g	733725.457236	733725.459279	8	0.013328	60	10	60-180	60	126	GapExp	0	23	4	6	1	target	1	1200	13.328	13.323	13.335
ProbeTrack7	32	ProbeTrack	1406	SCS215g	733725.457236	733725.459380	8	0.013328	60	10	60-180	60	160	GapExp	0	24	4	96	0	distractor	1	1146	13.328	13.324	13.333
ProbeTrack7	32	ProbeTrack	1406	SCS215g	733725.457236	733725.459478	8	0.013328	60	10	60-180	60	90	GapExp	0	25	4	0	0	distractor	1	1213	13.328	13.325	13.332
ProbeTrack7	32	ProbeTrack	1406	SCS215g	733725.457236	733725.459549	8	0.013328	60	10	60-180	60	177	GapExp	0	26	4	3	0	distractor	1	1093	13.328	13.324	13.333
ProbeTrack7	32	ProbeTrack	1406	SCS215g	733725.457236	733725.459633	8	0.013328	60	10	60-180	60	164	GapExp	0	27	4	6	0	distractor	1	1133	13.328	13.324	13.333
ProbeTrack7	32	ProbeTrack	1406	SCS215g	733725.457236	733725.459733	8	0.013328	60	10	60-180	60	68	GapExp	0	28	4	6	0	distractor	1	2079	13.328	13.324	13.334
ProbeTrack7	32	ProbeTrack	1406	SCS215g	733725.457236	733725.459811	8	0.013328	60	10	60-180	60	126	GapExp	0	29	4	0	0	distractor	1	1160	13.328	13.325	13.332
ProbeTrack7	32	ProbeTrack	1406	SCS215g	733725.457236	733725.459887	8	0.013328	60	10	60-180	60	175	GapExp	0	30	4	3	1	target	1	1426	13.328	13.325	13.333
ProbeTrack7	32	ProbeTrack	1406	SCS215g	733725.457236	733725.459983	8	0.013328	60	10	60-180	60	166	GapExp	0	31	4	96	0	distractor	1	1000	13.328	13.323	13.334
ProbeTrack7	32	ProbeTrack	1406	SCS215g	733725.457236	733725.460079	8	0.013328	60	10	60-180	60	176	GapExp	0	32	4	96	1	target	1	1266	13.328	13.323	13.333
ProbeTrack7	32	ProbeTrack	1406	SCS215g	733725.457236	733725.460196	8	0.013328	60	10	60-180	60	161	GapExp	0	33	4	3	1	target	1	1133	13.328	13.307	13.349
ProbeTrack7	32	ProbeTrack	1406	SCS215g	733725.457236	733725.460283	8	0.013328	60	10	60-180	60	134	GapExp	0	34	4	96	0	distractor	1	1173	13.328	13.320	13.336
ProbeTrack7	32	ProbeTrack	1406	SCS215g	733725.457236	733725.460379	8	0.013328	60	10	60-180	60	157	GapExp	0	35	4	3	1	target	1	1053	13.328	13.323	13.334
ProbeTrack7	32	ProbeTrack	1406	SCS215g	733725.457236	733725.460463	8	0.013328	60	10	60-180	60	88	GapExp	0	36	4	0	0	distractor	1	1040	13.328	13.322	13.333
ProbeTrack7	32	ProbeTrack	1406	SCS215g	733725.457236	733725.460535	8	0.013328	60	10	60-180	60	148	GapExp	0	37	4	0	0	distractor	1	1027	13.328	13.324	13.333
ProbeTrack7	32	ProbeTrack	1406	SCS215g	733725.457236	733725.460615	8	0.013328	60	10	60-180	60	141	GapExp	0	38	4	6	0	distractor	1	1133	13.328	13.325	13.332
ProbeTrack7	32	ProbeTrack	1406	SCS215g	733725.457236	733725.460696	8	0.013328	60	10	60-180	60	107	GapExp	0	39	4	6	0	distractor	1	1053	13.328	13.323	13.333
ProbeTrack7	32	ProbeTrack	1406	SCS215g	733725.457236	733725.460768	8	0.013328	60	10	60-180	60	78	GapExp	0	40	4	3	0	distractor	1	1053	13.328	13.323	13.334
ProbeTrack7	32	ProbeTrack	1406	SCS215g	733725.457236	733725.460838	8	0.013328	60	10	60-180	60	152	GapExp	0	41	4	96	1	distractor	0	1080	13.328	13.324	13.332
ProbeTrack7	32	ProbeTrack	1406	SCS215g	733725.457236	733725.460944	8	0.013328	60	10	60-180	60	114	GapExp	0	42	4	3	0	distractor	1	1226	13.328	13.323	13.333
ProbeTrack7	32	ProbeTrack	1406	SCS215g	733725.457236	733725.461020	8	0.013328	60	10	60-180	60	156	GapExp	0	43	4	0	1	target	1	1826	13.328	13.325	13.332
ProbeTrack7	32	ProbeTrack	1406	SCS215g	733725.457236	733725.461108	8	0.013328	60	10	60-180	60	160	GapExp	0	44	4	0	0	distractor	1	907	13.328	13.325	13.333
ProbeTrack7	32	ProbeTrack	1406	SCS215g	733725.457236	733725.461188	8	0.013328	60	10	60-180	60	66	GapExp	0	45	4	6	0	distractor	1	1173	13.328	13.324	13.334
ProbeTrack7	32	ProbeTrack	1406	SCS215g	733725.457236	733725.461257	8	0.013328	60	10	60-180	60	95	GapExp	0	46	4	3	0	distractor	1	1080	13.328	13.323	13.334
ProbeTrack7	32	ProbeTrack	1406	SCS215g	733725.457236	733725.461338	8	0.013328	60	10	60-180	60	156	GapExp	0	47	4	3	0	target	0	987	13.328	13.323	13.333
ProbeTrack7	32	ProbeTrack	1406	SCS215g	733725.457236	733725.461419	8	0.013328	60	10	60-180	60	132	GapExp	0	48	4	6	0	distractor	1	1186	13.328	13.323	13.333
ProbeTrack7	32	ProbeTrack	1406	SCS215g	733725.457236	733725.461497	8	0.013328	60	10	60-180	60	153	GapExp	0	49	4	3	0	distractor	1	1080	13.328	13.324	13.333
ProbeTrack7	32	ProbeTrack	1406	SCS215g	733725.457236	733725.461582	8	0.013328	60	10	60-180	60	74	GapExp	0	50	4	6	1	target	1	800	13.328	13.324	13.332
ProbeTrack7	32	ProbeTrack	1406	SCS215g	733725.457236	733725.461647	8	0.013328	60	10	60-180	60	68	GapExp	0	51	4	96	1	distractor	0	1013	13.328	13.323	13.333
ProbeTrack7	32	ProbeTrack	1406	SCS215g	733725.457236	733725.461728	8	0.013328	60	10	60-180	60	119	GapExp	0	52	4	3	1	distractor	0	1067	13.328	13.324	13.332
ProbeTrack7	32	ProbeTrack	1406	SCS215g	733725.457236	733725.461811	8	0.013328	60	10	60-180	60	148	GapExp	0	53	4	0	0	target	0	1013	13.328	13.320	13.336
ProbeTrack7	32	ProbeTrack	1406	SCS215g	733725.457236	733725.461896	8	0.013328	60	10	60-180	60	91	GapExp	0	54	4	0	1	target	1	1240	13.328	13.324	13.334
ProbeTrack7	32	ProbeTrack	1406	SCS215g	733725.457236	733725.461977	8	0.013328	60	10	60-180	60	141	GapExp	0	55	4	96	1	target	1	1013	13.328	13.324	13.332
ProbeTrack7	32	ProbeTrack	1406	SCS215g	733725.457236	733725.462071	8	0.013328	60	10	60-180	60	144	GapExp	0	56	4	3	1	target	1	1053	13.328	13.324	13.333
ProbeTrack7	32	ProbeTrack	1406	SCS215g	733725.457236	733725.462149	8	0.013328	60	10	60-180	60	136	GapExp	0	57	4	6	1	target	1	987	13.328	13.322	13.334
ProbeTrack7	32	ProbeTrack	1406	SCS215g	733725.457236	733725.462236	8	0.013328	60	10	60-180	60	157	GapExp	0	58	4	6	0	distractor	1	1053	13.328	13.325	13.332
ProbeTrack7	32	ProbeTrack	1406	SCS215g	733725.457236	733725.462319	8	0.013328	60	10	60-180	60	61	GapExp	0	59	4	6	0	target	0	1386	13.328	13.322	13.335
ProbeTrack7	32	ProbeTrack	1406	SCS215g	733725.457236	733725.462388	8	0.013328	60	10	60-180	60	63	GapExp	0	60	4	6	1	target	1	1253	13.328	13.324	13.333
ProbeTrack7	32	ProbeTrack	1406	SCS215g	733725.457236	733725.462456	8	0.013328	60	10	60-180	60	106	GapExp	0	61	4	3	1	target	1	973	13.328	13.326	13.331
ProbeTrack7	32	ProbeTrack	1406	SCS215g	733725.457236	733725.462528	8	0.013328	60	10	60-180	60	103	GapExp	0	62	4	96	0	distractor	1	1120	13.328	13.319	13.338
ProbeTrack7	32	ProbeTrack	1406	SCS215g	733725.457236	733725.462617	8	0.013328	60	10	60-180	60	142	GapExp	0	63	4	0	0	distractor	1	1067	13.328	13.324	13.332
ProbeTrack7	32	ProbeTrack	1406	SCS215g	733725.457236	733725.462697	8	0.013328	60	10	60-180	60	131	GapExp	0	64	4	0	0	target	0	1027	13.328	13.313	13.343
ProbeTrack7	32	ProbeTrack	1406	SCS215g	733725.457236	733725.462782	8	0.013328	60	10	60-180	60	66	GapExp	0	65	4	0	1	target	1	1160	13.328	13.311	13.346
ProbeTrack7	32	ProbeTrack	1406	SCS215g	733725.457236	733725.462850	8	0.013328	60	10	60-180	60	112	GapExp	0	66	4	3	1	target	1	960	13.328	13.314	13.344
ProbeTrack7	32	ProbeTrack	1406	SCS215g	733725.457236	733725.462923	8	0.013328	60	10	60-180	60	77	GapExp	0	67	4	6	1	target	1	1013	13.328	13.324	13.331
ProbeTrack7	32	ProbeTrack	1406	SCS215g	733725.457236	733725.462993	8	0.013328	60	10	60-180	60	179	GapExp	0	68	4	6	1	target	1	933	13.328	13.324	13.334
ProbeTrack7	32	ProbeTrack	1406	SCS215g	733725.457236	733725.463079	8	0.013328	60	10	60-180	60	111	GapExp	0	69	4	0	1	target	1	960	13.328	13.323	13.334
ProbeTrack7	32	ProbeTrack	1406	SCS215g	733725.457236	733725.463150	8	0.013328	60	10	60-180	60	121	GapExp	0	70	4	0	0	target	0	987	13.328	13.323	13.333
ProbeTrack7	32	ProbeTrack	1406	SCS215g	733725.457236	733725.463225	8	0.013328	60	10	60-180	60	69	GapExp	0	71	4	6	1	target	1	2799	13.328	13.325	13.333
ProbeTrack7	32	ProbeTrack	1406	SCS215g	733725.457236	733725.463319	8	0.013328	60	10	60-180	60	130	GapExp	0	72	4	3	0	distractor	1	960	13.328	13.320	13.337
ProbeTrack7	32	ProbeTrack	1406	SCS215g	733725.457236	733725.463394	8	0.013328	60	10	60-180	60	120	GapExp	0	73	4	3	1	target	1	1027	13.328	13.319	13.337
ProbeTrack7	32	ProbeTrack	1406	SCS215g	733725.457236	733725.463468	8	0.013328	60	10	60-180	60	87	GapExp	0	74	4	3	0	distractor	1	1346	13.328	13.325	13.333
ProbeTrack7	32	ProbeTrack	1406	SCS215g	733725.457236	733725.463545	8	0.013328	60	10	60-180	60	169	GapExp	0	75	4	6	0	distractor	1	1186	13.328	13.320	13.337
ProbeTrack7	32	ProbeTrack	1406	SCS215g	733725.457236	733725.463630	8	0.013328	60	10	60-180	60	97	GapExp	0	76	4	0	1	target	1	960	13.328	13.324	13.334
ProbeTrack7	32	ProbeTrack	1406	SCS215g	733725.457236	733725.463701	8	0.013328	60	10	60-180	60	162	GapExp	0	77	4	0	0	distractor	1	1013	13.328	13.322	13.336
ProbeTrack7	32	ProbeTrack	1406	SCS215g	733725.457236	733725.463785	8	0.013328	60	10	60-180	60	153	GapExp	0	78	4	0	1	target	1	1133	13.328	13.323	13.334
ProbeTrack7	32	ProbeTrack	1406	SCS215g	733725.457236	733725.463866	8	0.013328	60	10	60-180	60	169	GapExp	0	79	4	0	1	target	1	1120	13.328	13.324	13.333
ProbeTrack7	32	ProbeTrack	1406	SCS215g	733725.457236	733725.463951	8	0.013328	60	10	60-180	60	131	GapExp	0	80	4	0	0	distractor	1	1120	13.328	13.316	13.341
ProbeTrack7	32	ProbeTrack	1406	SCS215g	733725.457236	733725.464028	8	0.013328	60	10	60-180	60	89	GapExp	0	81	4	3	1	target	1	1013	13.328	13.323	13.334
ProbeTrack7	32	ProbeTrack	1406	SCS215g	733725.457236	733725.464100	8	0.013328	60	10	60-180	60	131	GapExp	0	82	4	6	1	target	1	1386	13.328	13.320	13.337
ProbeTrack7	32	ProbeTrack	1406	SCS215g	733725.457236	733725.464184	8	0.013328	60	10	60-180	60	89	GapExp	0	83	4	3	0	distractor	1	1120	13.328	13.324	13.332
ProbeTrack7	32	ProbeTrack	1406	SCS215g	733725.457236	733725.464256	8	0.013328	60	10	60-180	60	123	GapExp	0	84	4	6	0	distractor	1	987	13.328	13.323	13.333
ProbeTrack7	32	ProbeTrack	1406	SCS215g	733725.457236	733725.464332	8	0.013328	60	10	60-180	60	157	GapExp	0	85	4	96	1	target	1	2253	13.328	13.308	13.348
ProbeTrack7	32	ProbeTrack	1406	SCS215g	733725.457236	733725.464442	8	0.013328	60	10	60-180	60	92	GapExp	0	86	4	3	1	target	1	973	13.328	13.323	13.334
ProbeTrack7	32	ProbeTrack	1406	SCS215g	733725.457236	733725.464513	8	0.013328	60	10	60-180	60	173	GapExp	0	87	4	96	0	distractor	1	1253	13.328	13.322	13.333
ProbeTrack7	32	ProbeTrack	1406	SCS215g	733725.457236	733725.464618	8	0.013328	60	10	60-180	60	157	GapExp	0	88	4	6	1	target	1	1027	13.328	13.324	13.334
ProbeTrack7	32	ProbeTrack	1406	SCS215g	733725.457236	733725.464710	8	0.013328	60	10	60-180	60	78	GapExp	0	89	4	96	0	distractor	1	1173	13.328	13.322	13.334
ProbeTrack7	32	ProbeTrack	1406	SCS215g	733725.457236	733725.464798	8	0.013328	60	10	60-180	60	62	GapExp	0	90	4	96	1	target	1	987	13.328	13.323	13.333
ProbeTrack7	32	ProbeTrack	1406	SCS215g	733725.457236	733725.464878	8	0.013328	60	10	60-180	60	98	GapExp	0	91	4	0	1	target	1	907	13.328	13.324	13.333
ProbeTrack7	32	ProbeTrack	1406	SCS215g	733725.457236	733725.464948	8	0.013328	60	10	60-180	60	168	GapExp	0	92	4	0	0	distractor	1	1280	13.328	13.319	13.338
ProbeTrack7	32	ProbeTrack	1406	SCS215g	733725.457236	733725.465047	8	0.013328	60	10	60-180	60	103	GapExp	0	93	4	96	1	target	1	1027	13.328	13.321	13.334
ProbeTrack7	32	ProbeTrack	1406	SCS215g	733725.457236	733725.465134	8	0.013328	60	10	60-180	60	97	GapExp	0	94	4	96	0	distractor	1	1093	13.328	13.303	13.354
ProbeTrack7	32	ProbeTrack	1406	SCS215g	733725.457236	733725.465224	8	0.013328	60	10	60-180	60	104	GapExp	0	95	4	6	1	target	1	920	13.328	13.323	13.333
ProbeTrack7	32	ProbeTrack	1406	SCS215g	733725.457236	733725.465297	8	0.013328	60	10	60-180	60	99	GapExp	0	96	4	96	1	target	1	880	13.328	13.321	13.336
ProbeTrack7	32	ProbeTrack	1406	SCS215g	733725.457236	733725.465384	8	0.013328	60	10	60-180	60	115	GapExp	0	97	4	0	1	target	1	907	13.328	13.324	13.333
ProbeTrack7	32	ProbeTrack	1406	SCS215g	733725.457236	733725.465455	8	0.013328	60	10	60-180	60	94	GapExp	0	98	4	0	1	target	1	1000	13.328	13.314	13.343
ProbeTrack7	32	ProbeTrack	1406	SCS215g	733725.457236	733725.465530	8	0.013328	60	10	60-180	60	153	GapExp	0	99	4	3	1	distractor	0	840	13.328	13.324	13.332
ProbeTrack7	32	ProbeTrack	1406	SCS215g	733725.457236	733725.465608	8	0.013328	60	10	60-180	60	69	GapExp	0	100	4	6	0	target	0	907	13.328	13.323	13.334
ProbeTrack7	32	ProbeTrack	1406	SCS215g	733725.457236	733725.465673	8	0.013328	60	10	60-180	60	84	GapExp	0	101	4	0	0	distractor	1	1186	13.328	13.323	13.334
ProbeTrack7	32	ProbeTrack	1406	SCS215g	733725.457236	733725.465743	8	0.013328	60	10	60-180	60	102	GapExp	0	102	4	0	1	target	1	1173	13.328	13.323	13.334
ProbeTrack7	32	ProbeTrack	1406	SCS215g	733725.457236	733725.465815	8	0.013328	60	10	60-180	60	175	GapExp	0	103	4	3	0	target	0	1040	13.328	13.324	13.333
ProbeTrack7	32	ProbeTrack	1406	SCS215g	733725.457236	733725.465901	8	0.013328	60	10	60-180	60	179	GapExp	0	104	4	0	0	distractor	1	1093	13.328	13.323	13.332
ProbeTrack7	32	ProbeTrack	1406	SCS215g	733725.457236	733725.465985	8	0.013328	60	10	60-180	60	155	GapExp	0	105	4	0	1	target	1	893	13.328	13.324	13.333
ProbeTrack7	32	ProbeTrack	1406	SCS215g	733725.457236	733725.466064	8	0.013328	60	10	60-180	60	134	GapExp	0	106	4	3	0	distractor	1	1040	13.328	13.323	13.334
ProbeTrack7	32	ProbeTrack	1406	SCS215g	733725.457236	733725.466142	8	0.013328	60	10	60-180	60	114	GapExp	0	107	4	6	0	distractor	1	1027	13.328	13.324	13.334
ProbeTrack7	32	ProbeTrack	1406	SCS215g	733725.457236	733725.466216	8	0.013328	60	10	60-180	60	167	GapExp	0	108	4	6	1	distractor	0	960	13.328	13.315	13.341
ProbeTrack7	32	ProbeTrack	1406	SCS215g	733725.457236	733725.466309	8	0.013328	60	10	60-180	60	144	GapExp	0	109	4	6	1	target	1	960	13.328	13.321	13.335
ProbeTrack7	32	ProbeTrack	1406	SCS215g	733725.457236	733725.466386	8	0.013328	60	10	60-180	60	169	GapExp	0	110	4	0	0	distractor	1	973	13.328	13.324	13.334
ProbeTrack7	32	ProbeTrack	1406	SCS215g	733725.457236	733725.466471	8	0.013328	60	10	60-180	60	79	GapExp	0	111	4	3	1	target	1	1053	13.328	13.324	13.334
ProbeTrack7	32	ProbeTrack	1406	SCS215g	733725.457236	733725.466540	8	0.013328	60	10	60-180	60	71	GapExp	0	112	4	96	1	target	1	1360	13.328	13.322	13.333
ProbeTrack7	32	ProbeTrack	1406	SCS215g	733725.457236	733725.466626	8	0.013328	60	10	60-180	60	144	GapExp	0	113	4	96	0	distractor	1	1280	13.328	13.323	13.334
ProbeTrack7	32	ProbeTrack	1406	SCS215g	733725.457236	733725.466723	8	0.013328	60	10	60-180	60	107	GapExp	0	114	4	0	1	target	1	1053	13.328	13.324	13.332
ProbeTrack7	32	ProbeTrack	1406	SCS215g	733725.457236	733725.466807	8	0.013328	60	10	60-180	60	85	GapExp	0	115	4	0	1	multi	-2	1013	13.328	13.315	13.340
ProbeTrack7	32	ProbeTrack	1406	SCS215g	733725.457236	733725.466875	8	0.013328	60	10	60-180	60	97	GapExp	0	116	4	96	0	distractor	1	1160	13.328	13.319	13.337
ProbeTrack7	32	ProbeTrack	1406	SCS215g	733725.457236	733725.466962	8	0.013328	60	10	60-180	60	179	GapExp	0	117	4	96	1	target	1	1000	13.328	13.324	13.333
ProbeTrack7	32	ProbeTrack	1406	SCS215g	733725.457236	733725.467058	8	0.013328	60	10	60-180	60	155	GapExp	0	118	4	3	1	target	1	853	13.328	13.324	13.333
ProbeTrack7	32	ProbeTrack	1406	SCS215g	733725.457236	733725.467138	8	0.013328	60	10	60-180	60	130	GapExp	0	119	4	96	0	distractor	1	1067	13.328	13.320	13.336
ProbeTrack7	32	ProbeTrack	1406	SCS215g	733725.457236	733725.467230	8	0.013328	60	10	60-180	60	103	GapExp	0	120	4	6	1	target	1	1013	13.328	13.322	13.335
ProbeTrack7	32	ProbeTrack	1406	SCS215g	733725.457236	733725.467302	8	0.013328	60	10	60-180	60	128	GapExp	0	121	4	0	1	target	1	1013	13.328	13.323	13.335
ProbeTrack7	32	ProbeTrack	1406	SCS215g	733725.457236	733725.467377	8	0.013328	60	10	60-180	60	168	GapExp	0	122	4	96	1	target	1	1067	13.328	13.325	13.333
ProbeTrack7	32	ProbeTrack	1406	SCS215g	733725.457236	733725.467484	8	0.013328	60	10	60-180	60	121	GapExp	0	123	4	3	0	distractor	1	1133	13.328	13.323	13.332
ProbeTrack7	32	ProbeTrack	1406	SCS215g	733725.457236	733725.467565	8	0.013328	60	10	60-180	60	157	GapExp	0	124	4	3	0	distractor	1	1040	13.328	13.323	13.333
ProbeTrack7	32	ProbeTrack	1406	SCS215g	733725.457236	733725.467647	8	0.013328	60	10	60-180	60	130	GapExp	0	125	4	3	0	target	0	1093	13.328	13.324	13.333
ProbeTrack7	32	ProbeTrack	1406	SCS215g	733725.468696	733725.468876	8	0.013328	60	10	60-180	60	72	GapPrac	1	1	3	96	0	distractor	1	1200	13.328	13.322	13.333
ProbeTrack7	32	ProbeTrack	1406	SCS215g	733725.468696	733725.468973	8	0.013328	60	10	60-180	60	101	GapPrac	1	2	3	3	1	target	1	933	13.328	13.322	13.333
ProbeTrack7	32	ProbeTrack	1406	SCS215g	733725.468696	733725.469044	8	0.013328	60	10	60-180	60	145	GapPrac	1	3	3	0	0	distractor	1	880	13.328	13.323	13.333
ProbeTrack7	32	ProbeTrack	1406	SCS215g	733725.468696	733725.469120	8	0.013328	60	10	60-180	60	139	GapPrac	1	4	3	6	0	distractor	1	1320	13.328	13.325	13.333
ProbeTrack7	32	ProbeTrack	1406	SCS215g	733725.468696	733725.469211	8	0.013328	60	10	60-180	60	129	GapPrac	1	5	3	96	0	distractor	1	1000	13.328	13.324	13.332
ProbeTrack7	32	ProbeTrack	1406	SCS215g	733725.468696	733725.469311	8	0.013328	60	10	60-180	60	173	GapPrac	1	6	3	96	1	target	1	973	13.328	13.324	13.333
ProbeTrack7	32	ProbeTrack	1406	SCS215g	733725.468696	733725.469408	8	0.013328	60	10	60-180	60	157	GapPrac	1	7	3	6	0	distractor	1	1000	13.328	13.325	13.331
ProbeTrack7	32	ProbeTrack	1406	SCS215g	733725.468696	733725.469489	8	0.013328	60	10	60-180	60	132	GapPrac	1	8	3	0	1	target	1	960	13.328	13.319	13.337
ProbeTrack7	32	ProbeTrack	1406	SCS215g	733725.468696	733725.469563	8	0.013328	60	10	60-180	60	161	GapPrac	1	9	3	6	1	target	1	1013	13.328	13.323	13.335
ProbeTrack7	32	ProbeTrack	1406	SCS215g	733725.468696	733725.469655	8	0.013328	60	10	60-180	60	103	GapPrac	1	10	3	3	1	target	1	907	13.328	13.323	13.333
ProbeTrack7	32	ProbeTrack	1406	SCS215g	733725.468696	733725.469727	8	0.013328	60	10	60-180	60	134	GapPrac	1	11	3	0	0	distractor	1	920	13.328	13.322	13.333
ProbeTrack7	32	ProbeTrack	1406	SCS215g	733725.468696	733725.469802	8	0.013328	60	10	60-180	60	178	GapPrac	1	12	3	0	1	target	1	840	13.328	13.322	13.334
ProbeTrack7	32	ProbeTrack	1406	SCS215g	733725.468696	733725.469882	8	0.013328	60	10	60-180	60	163	GapPrac	1	13	3	3	0	distractor	1	933	13.328	13.324	13.332
ProbeTrack7	32	ProbeTrack	1406	SCS215g	733725.468696	733725.469964	8	0.013328	60	10	60-180	60	156	GapPrac	1	14	3	96	1	target	1	920	13.328	13.324	13.332
ProbeTrack7	32	ProbeTrack	1406	SCS215g	733725.468696	733725.470057	8	0.013328	60	10	60-180	60	155	GapPrac	1	15	3	3	0	distractor	1	1093	13.328	13.321	13.335
ProbeTrack7	32	ProbeTrack	1406	SCS215g	733725.468696	733725.470137	8	0.013328	60	10	60-180	60	120	GapPrac	1	16	3	6	1	target	1	973	13.328	13.324	13.333
ProbeTrack7	32	ProbeTrack	1406	SCS215g	733725.468696	733725.470211	8	0.013328	60	10	60-180	60	123	GapPrac	1	17	3	3	1	target	1	1040	13.328	13.325	13.332
ProbeTrack7	32	ProbeTrack	1406	SCS215g	733725.468696	733725.470297	8	0.013328	60	10	60-180	60	130	GapPrac	1	18	3	6	0	distractor	1	1040	13.328	13.323	13.333
ProbeTrack7	32	ProbeTrack	1406	SCS215g	733725.468696	733725.470377	8	0.013328	60	10	60-180	60	141	GapPrac	1	19	3	0	0	distractor	1	1106	13.328	13.323	13.333
ProbeTrack7	32	ProbeTrack	1406	SCS215g	733725.468696	733725.470456	8	0.013328	60	10	60-180	60	90	GapPrac	1	20	3	96	0	target	0	933	13.328	13.323	13.334
ProbeTrack7	32	ProbeTrack	1406	SCS215g	733725.471045	733725.471281	8	0.013328	60	10	60-180	60	94	GapExp	1	1	3	0	0	distractor	1	1893	13.328	13.316	13.340
ProbeTrack7	32	ProbeTrack	1406	SCS215g	733725.471045	733725.471375	8	0.013328	60	10	60-180	60	138	GapExp	1	2	3	96	1	target	1	827	13.328	13.318	13.339
ProbeTrack7	32	ProbeTrack	1406	SCS215g	733725.471045	733725.471465	8	0.013328	60	10	60-180	60	129	GapExp	1	3	3	0	1	target	1	1146	13.328	13.319	13.338
ProbeTrack7	32	ProbeTrack	1406	SCS215g	733725.471045	733725.471543	8	0.013328	60	10	60-180	60	93	GapExp	1	4	3	6	0	distractor	1	1000	13.328	13.320	13.337
ProbeTrack7	32	ProbeTrack	1406	SCS215g	733725.471045	733725.471613	8	0.013328	60	10	60-180	60	156	GapExp	1	5	3	96	0	target	0	1027	13.328	13.317	13.340
ProbeTrack7	32	ProbeTrack	1406	SCS215g	733725.471045	733725.471709	8	0.013328	60	10	60-180	60	146	GapExp	0	6	3	0	0	distractor	1	1027	13.328	13.324	13.333
ProbeTrack7	32	ProbeTrack	1406	SCS215g	733725.471045	733725.471801	8	0.013328	60	10	60-180	60	104	GapExp	0	7	3	96	0	distractor	1	1106	13.328	13.324	13.332
ProbeTrack7	32	ProbeTrack	1406	SCS215g	733725.471045	733725.471888	8	0.013328	60	10	60-180	60	173	GapExp	0	8	3	3	0	distractor	1	1053	13.328	13.323	13.334
ProbeTrack7	32	ProbeTrack	1406	SCS215g	733725.471045	733725.471971	8	0.013328	60	10	60-180	60	142	GapExp	0	9	3	6	0	distractor	1	1067	13.328	13.314	13.343
ProbeTrack7	32	ProbeTrack	1406	SCS215g	733725.471045	733725.472061	8	0.013328	60	10	60-180	60	113	GapExp	0	10	3	6	1	target	1	1053	13.328	13.321	13.336
ProbeTrack7	32	ProbeTrack	1406	SCS215g	733725.471045	733725.472143	8	0.013328	60	10	60-180	60	135	GapExp	0	11	3	6	0	distractor	1	1067	13.328	13.321	13.336
ProbeTrack7	32	ProbeTrack	1406	SCS215g	733725.471045	733725.472221	8	0.013328	60	10	60-180	60	102	GapExp	0	12	3	3	0	distractor	1	1080	13.328	13.324	13.333
ProbeTrack7	32	ProbeTrack	1406	SCS215g	733725.471045	733725.472292	8	0.013328	60	10	60-180	60	66	GapExp	0	13	3	3	1	target	1	960	13.328	13.323	13.334
ProbeTrack7	32	ProbeTrack	1406	SCS215g	733725.471045	733725.472357	8	0.013328	60	10	60-180	60	177	GapExp	0	14	3	6	1	target	1	787	13.328	13.323	13.334
ProbeTrack7	32	ProbeTrack	1406	SCS215g	733725.471045	733725.472456	8	0.013328	60	10	60-180	60	172	GapExp	0	15	3	3	1	target	1	787	13.328	13.320	13.337
ProbeTrack7	32	ProbeTrack	1406	SCS215g	733725.471045	733725.472538	8	0.013328	60	10	60-180	60	157	GapExp	0	16	3	0	1	target	1	907	13.328	13.316	13.341
ProbeTrack7	32	ProbeTrack	1406	SCS215g	733725.471045	733725.472617	8	0.013328	60	10	60-180	60	180	GapExp	0	17	3	3	0	distractor	1	987	13.328	13.323	13.333
ProbeTrack7	32	ProbeTrack	1406	SCS215g	733725.471045	733725.472701	8	0.013328	60	10	60-180	60	167	GapExp	0	18	3	0	0	target	0	1360	13.328	13.327	13.331
ProbeTrack7	32	ProbeTrack	1406	SCS215g	733725.471045	733725.472786	8	0.013328	60	10	60-180	60	73	GapExp	0	19	3	0	1	target	1	1027	13.328	13.322	13.334
ProbeTrack7	32	ProbeTrack	1406	SCS215g	733725.471045	733725.472853	8	0.013328	60	10	60-180	60	78	GapExp	0	20	3	96	1	distractor	0	1133	13.328	13.317	13.341
ProbeTrack7	32	ProbeTrack	1406	SCS215g	733725.471045	733725.472937	8	0.013328	60	10	60-180	60	71	GapExp	0	21	3	96	1	target	1	973	13.328	13.322	13.334
ProbeTrack7	32	ProbeTrack	1406	SCS215g	733725.471045	733725.473019	8	0.013328	60	10	60-180	60	143	GapExp	0	22	3	3	0	distractor	1	1080	13.328	13.320	13.337
ProbeTrack7	32	ProbeTrack	1406	SCS215g	733725.471045	733725.473099	8	0.013328	60	10	60-180	60	126	GapExp	0	23	3	96	0	distractor	1	1160	13.328	13.323	13.333
ProbeTrack7	32	ProbeTrack	1406	SCS215g	733725.471045	733725.473190	8	0.013328	60	10	60-180	60	157	GapExp	0	24	3	0	0	target	0	1080	13.328	13.326	13.332
ProbeTrack7	32	ProbeTrack	1406	SCS215g	733725.471045	733725.473272	8	0.013328	60	10	60-180	60	71	GapExp	0	25	3	0	1	target	1	1133	13.328	13.322	13.334
ProbeTrack7	32	ProbeTrack	1406	SCS215g	733725.471045	733725.473341	8	0.013328	60	10	60-180	60	170	GapExp	0	26	3	0	1	target	1	960	13.328	13.325	13.332
ProbeTrack7	32	ProbeTrack	1406	SCS215g	733725.471045	733725.473424	8	0.013328	60	10	60-180	60	66	GapExp	0	27	3	96	1	target	1	1080	13.328	13.324	13.333
ProbeTrack7	32	ProbeTrack	1406	SCS215g	733725.471045	733725.473510	8	0.013328	60	10	60-180	60	180	GapExp	0	28	3	6	0	distractor	1	1000	13.328	13.324	13.333
ProbeTrack7	32	ProbeTrack	1406	SCS215g	733725.471045	733725.473594	8	0.013328	60	10	60-180	60	107	GapExp	0	29	3	6	0	distractor	1	1200	13.328	13.324	13.334
ProbeTrack7	32	ProbeTrack	1406	SCS215g	733725.471045	733725.473669	8	0.013328	60	10	60-180	60	110	GapExp	0	30	3	3	1	target	1	1027	13.328	13.323	13.333
ProbeTrack7	32	ProbeTrack	1406	SCS215g	733725.471045	733725.473743	8	0.013328	60	10	60-180	60	100	GapExp	0	31	3	3	0	target	0	1027	13.328	13.316	13.341
ProbeTrack7	32	ProbeTrack	1406	SCS215g	733725.471045	733725.473814	8	0.013328	60	10	60-180	60	166	GapExp	0	32	3	3	1	target	1	960	13.328	13.318	13.340
ProbeTrack7	32	ProbeTrack	1406	SCS215g	733725.471045	733725.473896	8	0.013328	60	10	60-180	60	178	GapExp	0	33	3	96	1	target	1	1106	13.328	13.308	13.349
ProbeTrack7	32	ProbeTrack	1406	SCS215g	733725.471045	733725.473993	8	0.013328	60	10	60-180	60	85	GapExp	0	34	3	6	0	distractor	1	1146	13.328	13.322	13.335
ProbeTrack7	32	ProbeTrack	1406	SCS215g	733725.471045	733725.474066	8	0.013328	60	10	60-180	60	95	GapExp	0	35	3	0	1	target	1	1053	13.328	13.323	13.334
ProbeTrack7	32	ProbeTrack	1406	SCS215g	733725.471045	733725.474139	8	0.013328	60	10	60-180	60	132	GapExp	0	36	3	96	0	distractor	1	1093	13.328	13.323	13.334
ProbeTrack7	32	ProbeTrack	1406	SCS215g	733725.471045	733725.474233	8	0.013328	60	10	60-180	60	180	GapExp	0	37	3	96	0	distractor	1	1106	13.328	13.325	13.333
ProbeTrack7	32	ProbeTrack	1406	SCS215g	733725.471045	733725.474333	8	0.013328	60	10	60-180	60	89	GapExp	0	38	3	96	1	target	1	1120	13.328	13.323	13.333
ProbeTrack7	32	ProbeTrack	1406	SCS215g	733725.471045	733725.474420	8	0.013328	60	10	60-180	60	118	GapExp	0	39	3	0	0	target	0	1213	13.328	13.323	13.334
ProbeTrack7	32	ProbeTrack	1406	SCS215g	733725.471045	733725.474500	8	0.013328	60	10	60-180	60	62	GapExp	0	40	3	0	0	distractor	1	1533	13.328	13.323	13.334
ProbeTrack7	32	ProbeTrack	1406	SCS215g	733725.471045	733725.474571	8	0.013328	60	10	60-180	60	82	GapExp	0	41	3	0	1	target	1	1133	13.328	13.324	13.333
ProbeTrack7	32	ProbeTrack	1406	SCS215g	733725.471045	733725.474649	8	0.013328	60	10	60-180	60	78	GapExp	0	42	3	0	0	distractor	1	1106	13.328	13.319	13.337
ProbeTrack7	32	ProbeTrack	1406	SCS215g	733725.471045	733725.474718	8	0.013328	60	10	60-180	60	140	GapExp	0	43	3	3	1	target	1	907	13.328	13.323	13.335
ProbeTrack7	32	ProbeTrack	1406	SCS215g	733725.471045	733725.474803	8	0.013328	60	10	60-180	60	87	GapExp	0	44	3	96	1	target	1	947	13.328	13.324	13.333
ProbeTrack7	32	ProbeTrack	1406	SCS215g	733725.471045	733725.474889	8	0.013328	60	10	60-180	60	119	GapExp	0	45	3	3	0	distractor	1	1093	13.328	13.323	13.333
ProbeTrack7	32	ProbeTrack	1406	SCS215g	733725.471045	733725.474964	8	0.013328	60	10	60-180	60	94	GapExp	0	46	3	0	1	target	1	947	13.328	13.324	13.333
ProbeTrack7	32	ProbeTrack	1406	SCS215g	733725.471045	733725.475034	8	0.013328	60	10	60-180	60	85	GapExp	0	47	3	96	1	target	1	933	13.328	13.320	13.337
ProbeTrack7	32	ProbeTrack	1406	SCS215g	733725.471045	733725.475129	8	0.013328	60	10	60-180	60	135	GapExp	0	48	3	6	0	distractor	1	840	13.328	13.323	13.333
ProbeTrack7	32	ProbeTrack	1406	SCS215g	733725.471045	733725.475207	8	0.013328	60	10	60-180	60	172	GapExp	0	49	3	96	1	target	1	1027	13.328	13.321	13.335
ProbeTrack7	32	ProbeTrack	1406	SCS215g	733725.471045	733725.475305	8	0.013328	60	10	60-180	60	156	GapExp	0	50	3	96	0	distractor	1	1093	13.328	13.323	13.334
ProbeTrack7	32	ProbeTrack	1406	SCS215g	733725.471045	733725.475400	8	0.013328	60	10	60-180	60	140	GapExp	0	51	3	3	1	target	1	1106	13.328	13.324	13.334
ProbeTrack7	32	ProbeTrack	1406	SCS215g	733725.471045	733725.475480	8	0.013328	60	10	60-180	60	158	GapExp	0	52	3	0	1	target	1	973	13.328	13.319	13.338
ProbeTrack7	32	ProbeTrack	1406	SCS215g	733725.471045	733725.475570	8	0.013328	60	10	60-180	60	146	GapExp	0	53	3	0	1	target	1	1013	13.328	13.323	13.334
ProbeTrack7	32	ProbeTrack	1406	SCS215g	733725.471045	733725.475650	8	0.013328	60	10	60-180	60	142	GapExp	0	54	3	6	0	distractor	1	1106	13.328	13.308	13.349
ProbeTrack7	32	ProbeTrack	1406	SCS215g	733725.471045	733725.475739	8	0.013328	60	10	60-180	60	173	GapExp	0	55	3	0	1	target	1	1040	13.328	13.324	13.333
ProbeTrack7	32	ProbeTrack	1406	SCS215g	733725.471045	733725.475825	8	0.013328	60	10	60-180	60	130	GapExp	0	56	3	96	1	target	1	1027	13.328	13.322	13.335
ProbeTrack7	32	ProbeTrack	1406	SCS215g	733725.471045	733725.475917	8	0.013328	60	10	60-180	60	103	GapExp	0	57	3	0	1	target	1	1013	13.328	13.325	13.333
ProbeTrack7	32	ProbeTrack	1406	SCS215g	733725.471045	733725.475989	8	0.013328	60	10	60-180	60	91	GapExp	0	58	3	6	0	distractor	1	1106	13.328	13.324	13.331
ProbeTrack7	32	ProbeTrack	1406	SCS215g	733725.471045	733725.476069	8	0.013328	60	10	60-180	60	159	GapExp	0	59	3	0	0	distractor	1	1186	13.328	13.324	13.333
ProbeTrack7	32	ProbeTrack	1406	SCS215g	733725.471045	733725.476153	8	0.013328	60	10	60-180	60	169	GapExp	0	60	3	0	0	target	0	1080	13.328	13.324	13.332
ProbeTrack7	32	ProbeTrack	1406	SCS215g	733725.471045	733725.476237	8	0.013328	60	10	60-180	60	155	GapExp	0	61	3	96	0	distractor	1	1200	13.328	13.323	13.334
ProbeTrack7	32	ProbeTrack	1406	SCS215g	733725.471045	733725.476335	8	0.013328	60	10	60-180	60	113	GapExp	0	62	3	3	1	target	1	1146	13.328	13.323	13.333
ProbeTrack7	32	ProbeTrack	1406	SCS215g	733725.471045	733725.476411	8	0.013328	60	10	60-180	60	165	GapExp	0	63	3	0	0	distractor	1	1147	13.328	13.323	13.333
ProbeTrack7	32	ProbeTrack	1406	SCS215g	733725.471045	733725.476494	8	0.013328	60	10	60-180	60	180	GapExp	0	64	3	96	1	target	1	1106	13.328	13.322	13.334
ProbeTrack7	32	ProbeTrack	1406	SCS215g	733725.471045	733725.476594	8	0.013328	60	10	60-180	60	105	GapExp	0	65	3	96	1	distractor	0	1293	13.328	13.321	13.342
ProbeTrack7	32	ProbeTrack	1406	SCS215g	733725.471045	733725.476685	8	0.013328	60	10	60-180	60	120	GapExp	0	66	3	0	1	target	1	1147	13.328	13.322	13.335
ProbeTrack7	32	ProbeTrack	1406	SCS215g	733725.471045	733725.476764	8	0.013328	60	10	60-180	60	179	GapExp	0	67	3	3	1	target	1	1000	13.328	13.324	13.332
ProbeTrack7	32	ProbeTrack	1406	SCS215g	733725.471045	733725.476851	8	0.013328	60	10	60-180	60	95	GapExp	0	68	3	6	1	target	1	1106	13.328	13.323	13.332
ProbeTrack7	32	ProbeTrack	1406	SCS215g	733725.471045	733725.476925	8	0.013328	60	10	60-180	60	180	GapExp	0	69	3	3	0	distractor	1	973	13.328	13.324	13.334
ProbeTrack7	32	ProbeTrack	1406	SCS215g	733725.471045	733725.477012	8	0.013328	60	10	60-180	60	165	GapExp	0	70	3	96	1	target	1	1200	13.328	13.324	13.333
ProbeTrack7	32	ProbeTrack	1406	SCS215g	733725.471045	733725.477111	8	0.013328	60	10	60-180	60	71	GapExp	0	71	3	6	1	target	1	1120	13.328	13.325	13.332
ProbeTrack7	32	ProbeTrack	1406	SCS215g	733725.471045	733725.477182	8	0.013328	60	10	60-180	60	99	GapExp	0	72	3	6	1	target	1	920	13.328	13.320	13.337
ProbeTrack7	32	ProbeTrack	1406	SCS215g	733725.471045	733725.477253	8	0.013328	60	10	60-180	60	93	GapExp	0	73	3	3	0	distractor	1	1080	13.328	13.325	13.333
ProbeTrack7	32	ProbeTrack	1406	SCS215g	733725.471045	733725.477326	8	0.013328	60	10	60-180	60	179	GapExp	0	74	3	3	0	distractor	1	947	13.328	13.323	13.333
ProbeTrack7	32	ProbeTrack	1406	SCS215g	733725.471045	733725.477412	8	0.013328	60	10	60-180	60	117	GapExp	0	75	3	96	0	distractor	1	1147	13.328	13.323	13.334
ProbeTrack7	32	ProbeTrack	1406	SCS215g	733725.471045	733725.477502	8	0.013328	60	10	60-180	60	67	GapExp	0	76	3	6	0	distractor	1	1093	13.328	13.323	13.333
ProbeTrack7	32	ProbeTrack	1406	SCS215g	733725.471045	733725.477571	8	0.013328	60	10	60-180	60	114	GapExp	0	77	3	96	0	distractor	1	1160	13.328	13.325	13.333
ProbeTrack7	32	ProbeTrack	1406	SCS215g	733725.471045	733725.477660	8	0.013328	60	10	60-180	60	66	GapExp	0	78	3	96	0	distractor	1	1133	13.328	13.322	13.334
ProbeTrack7	32	ProbeTrack	1406	SCS215g	733725.471045	733725.477742	8	0.013328	60	10	60-180	60	105	GapExp	0	79	3	3	1	target	1	1240	13.328	13.325	13.333
ProbeTrack7	32	ProbeTrack	1406	SCS215g	733725.471045	733725.477817	8	0.013328	60	10	60-180	60	133	GapExp	0	80	3	96	0	distractor	1	1160	13.328	13.309	13.347
ProbeTrack7	32	ProbeTrack	1406	SCS215g	733725.471045	733725.477912	8	0.013328	60	10	60-180	60	132	GapExp	0	81	3	0	1	target	1	1013	13.328	13.321	13.336
ProbeTrack7	32	ProbeTrack	1406	SCS215g	733725.471045	733725.477990	8	0.013328	60	10	60-180	60	121	GapExp	0	82	3	6	0	distractor	1	1280	13.328	13.324	13.333
ProbeTrack7	32	ProbeTrack	1406	SCS215g	733725.471045	733725.478072	8	0.013328	60	10	60-180	60	72	GapExp	0	83	3	6	0	distractor	1	1053	13.328	13.326	13.332
ProbeTrack7	32	ProbeTrack	1406	SCS215g	733725.471045	733725.478140	8	0.013328	60	10	60-180	60	133	GapExp	0	84	3	6	1	target	1	1213	13.328	13.319	13.338
ProbeTrack7	32	ProbeTrack	1406	SCS215g	733725.471045	733725.478218	8	0.013328	60	10	60-180	60	93	GapExp	0	85	3	0	1	target	1	1200	13.328	13.322	13.335
ProbeTrack7	32	ProbeTrack	1406	SCS215g	733725.471045	733725.478290	8	0.013328	60	10	60-180	60	71	GapExp	0	86	3	96	0	distractor	1	1186	13.328	13.323	13.333
ProbeTrack7	32	ProbeTrack	1406	SCS215g	733725.471045	733725.478374	8	0.013328	60	10	60-180	60	89	GapExp	0	87	3	3	0	distractor	1	1053	13.328	13.325	13.333
ProbeTrack7	32	ProbeTrack	1406	SCS215g	733725.471045	733725.478447	8	0.013328	60	10	60-180	60	152	GapExp	0	88	3	96	0	distractor	1	1360	13.328	13.323	13.334
ProbeTrack7	32	ProbeTrack	1406	SCS215g	733725.471045	733725.478544	8	0.013328	60	10	60-180	60	150	GapExp	0	89	3	96	0	distractor	1	1040	13.328	13.323	13.334
ProbeTrack7	32	ProbeTrack	1406	SCS215g	733725.471045	733725.478639	8	0.013328	60	10	60-180	60	156	GapExp	0	90	3	6	1	target	1	1213	13.328	13.319	13.338
ProbeTrack7	32	ProbeTrack	1406	SCS215g	733725.471045	733725.478734	8	0.013328	60	10	60-180	60	65	GapExp	0	91	3	6	1	target	1	1106	13.328	13.325	13.333
ProbeTrack7	32	ProbeTrack	1406	SCS215g	733725.471045	733725.478802	8	0.013328	60	10	60-180	60	106	GapExp	0	92	3	3	0	target	0	1173	13.328	13.324	13.333
ProbeTrack7	32	ProbeTrack	1406	SCS215g	733725.471045	733725.478879	8	0.013328	60	10	60-180	60	123	GapExp	0	93	3	6	1	target	1	1200	13.328	13.325	13.332
ProbeTrack7	32	ProbeTrack	1406	SCS215g	733725.471045	733725.478958	8	0.013328	60	10	60-180	60	133	GapExp	0	94	3	0	0	distractor	1	1226	13.328	13.325	13.332
ProbeTrack7	32	ProbeTrack	1406	SCS215g	733725.471045	733725.479038	8	0.013328	60	10	60-180	60	172	GapExp	0	95	3	0	1	target	1	1027	13.328	13.322	13.335
ProbeTrack7	32	ProbeTrack	1406	SCS215g	733725.471045	733725.479121	8	0.013328	60	10	60-180	60	176	GapExp	0	96	3	3	0	distractor	1	1093	13.328	13.322	13.334
ProbeTrack7	32	ProbeTrack	1406	SCS215g	733725.471045	733725.479206	8	0.013328	60	10	60-180	60	137	GapExp	0	97	3	6	1	target	1	1120	13.328	13.320	13.337
ProbeTrack7	32	ProbeTrack	1406	SCS215g	733725.471045	733725.479286	8	0.013328	60	10	60-180	60	82	GapExp	0	98	3	6	0	distractor	1	1186	13.328	13.324	13.332
ProbeTrack7	32	ProbeTrack	1406	SCS215g	733725.471045	733725.479358	8	0.013328	60	10	60-180	60	162	GapExp	0	99	3	0	0	distractor	1	1040	13.328	13.317	13.341
ProbeTrack7	32	ProbeTrack	1406	SCS215g	733725.471045	733725.479440	8	0.013328	60	10	60-180	60	103	GapExp	0	100	3	3	0	distractor	1	1053	13.328	13.325	13.331
ProbeTrack7	32	ProbeTrack	1406	SCS215g	733725.471045	733725.479511	8	0.013328	60	10	60-180	60	74	GapExp	0	101	3	6	0	distractor	1	1160	13.328	13.324	13.334
ProbeTrack7	32	ProbeTrack	1406	SCS215g	733725.471045	733725.479580	8	0.013328	60	10	60-180	60	97	GapExp	0	102	3	6	0	distractor	1	1146	13.328	13.323	13.333
ProbeTrack7	32	ProbeTrack	1406	SCS215g	733725.471045	733725.479656	8	0.013328	60	10	60-180	60	145	GapExp	0	103	3	6	1	target	1	1027	13.328	13.323	13.334
ProbeTrack7	32	ProbeTrack	1406	SCS215g	733725.471045	733725.479748	8	0.013328	60	10	60-180	60	172	GapExp	0	104	3	6	0	distractor	1	933	13.328	13.320	13.337
ProbeTrack7	32	ProbeTrack	1406	SCS215g	733725.471045	733725.479830	8	0.013328	60	10	60-180	60	136	GapExp	0	105	3	3	0	distractor	1	1093	13.328	13.324	13.334
ProbeTrack7	32	ProbeTrack	1406	SCS215g	733725.471045	733725.479909	8	0.013328	60	10	60-180	60	110	GapExp	0	106	3	0	0	distractor	1	1146	13.328	13.325	13.332
ProbeTrack7	32	ProbeTrack	1406	SCS215g	733725.471045	733725.479983	8	0.013328	60	10	60-180	60	149	GapExp	0	107	3	96	0	distractor	1	1133	13.328	13.323	13.334
ProbeTrack7	32	ProbeTrack	1406	SCS215g	733725.471045	733725.480079	8	0.013328	60	10	60-180	60	88	GapExp	0	108	3	3	1	target	1	1360	13.328	13.323	13.334
ProbeTrack7	32	ProbeTrack	1406	SCS215g	733725.471045	733725.480155	8	0.013328	60	10	60-180	60	135	GapExp	0	109	3	0	0	distractor	1	1187	13.328	13.323	13.333
ProbeTrack7	32	ProbeTrack	1406	SCS215g	733725.471045	733725.480235	8	0.013328	60	10	60-180	60	110	GapExp	0	110	3	96	1	target	1	1146	13.328	13.323	13.334
ProbeTrack7	32	ProbeTrack	1406	SCS215g	733725.471045	733725.480324	8	0.013328	60	10	60-180	60	169	GapExp	0	111	3	6	1	target	1	1027	13.328	13.324	13.332
ProbeTrack7	32	ProbeTrack	1406	SCS215g	733725.471045	733725.480411	8	0.013328	60	10	60-180	60	122	GapExp	0	112	3	3	0	distractor	1	2173	13.328	13.323	13.334
ProbeTrack7	32	ProbeTrack	1406	SCS215g	733725.471045	733725.480501	8	0.013328	60	10	60-180	60	67	GapExp	0	113	3	3	1	target	1	1160	13.328	13.323	13.334
ProbeTrack7	32	ProbeTrack	1406	SCS215g	733725.471045	733725.480569	8	0.013328	60	10	60-180	60	106	GapExp	0	114	3	3	1	target	1	1853	13.328	13.304	13.353
ProbeTrack7	32	ProbeTrack	1406	SCS215g	733725.471045	733725.480656	8	0.013328	60	10	60-180	60	138	GapExp	0	115	3	0	0	distractor	1	1027	13.328	13.323	13.333
ProbeTrack7	32	ProbeTrack	1406	SCS215g	733725.471045	733725.480735	8	0.013328	60	10	60-180	60	159	GapExp	0	116	3	96	0	distractor	1	1013	13.328	13.323	13.332
ProbeTrack7	32	ProbeTrack	1406	SCS215g	733725.471045	733725.480830	8	0.013328	60	10	60-180	60	146	GapExp	0	117	3	6	1	target	1	1360	13.328	13.322	13.335
ProbeTrack7	32	ProbeTrack	1406	SCS215g	733725.471045	733725.480913	8	0.013328	60	10	60-180	60	178	GapExp	0	118	3	96	1	target	1	1067	13.328	13.323	13.333
ProbeTrack7	32	ProbeTrack	1406	SCS215g	733725.471045	733725.481015	8	0.013328	60	10	60-180	60	147	GapExp	0	119	3	3	1	target	1	3466	13.328	13.323	13.334
ProbeTrack7	32	ProbeTrack	1406	SCS215g	733725.471045	733725.481122	8	0.013328	60	10	60-180	60	130	GapExp	0	120	3	6	1	target	1	2119	13.328	13.326	13.332
ProbeTrack7	32	ProbeTrack	1406	SCS215g	733725.471045	733725.481214	8	0.013328	60	10	60-180	60	159	GapExp	0	121	3	3	1	target	1	1000	13.328	13.324	13.334
ProbeTrack7	32	ProbeTrack	1406	SCS215g	733725.471045	733725.481299	8	0.013328	60	10	60-180	60	78	GapExp	0	122	3	0	0	distractor	1	1173	13.328	13.322	13.335
ProbeTrack7	32	ProbeTrack	1406	SCS215g	733725.471045	733725.481369	8	0.013328	60	10	60-180	60	176	GapExp	0	123	3	3	1	target	1	1040	13.328	13.310	13.347
ProbeTrack7	32	ProbeTrack	1406	SCS215g	733725.471045	733725.481452	8	0.013328	60	10	60-180	60	74	GapExp	0	124	3	6	1	target	1	987	13.328	13.324	13.333
ProbeTrack7	32	ProbeTrack	1406	SCS215g	733725.471045	733725.481521	8	0.013328	60	10	60-180	60	113	GapExp	0	125	3	96	1	target	1	1093	13.328	13.300	13.357
