exp	sub	code	rev	comp	runtime	trialtime	nstim	refreshdur	cuedur	gapdur	gapOnsetRange	durPostProbe	gapOnsetTime	blocktype	prac	trial	ntargets	soa	probeTarget	resp	acc	rt	meanFrameDur	minFrameDur	maxFrameDur
ProbeTrack7	9	ProbeTrack	1406	SCS215g	733716.346387	733716.346651	8	0.013328	60	0	60-180	60	84	NoGap	1	1	4	96	0	distractor	1	1173	13.333	8.864	18.921
ProbeTrack7	9	ProbeTrack	1406	SCS215g	733716.346387	733716.347042	8	0.013328	60	0	60-180	60	176	NoGap	1	2	4	0	0	83	-3	1160	13.321	11.113	13.457
ProbeTrack7	9	ProbeTrack	1406	SCS215g	733716.346387	733716.347206	8	0.013328	60	0	60-180	60	117	NoGap	1	3	4	6	1	distractor	0	1040	13.328	13.201	13.455
ProbeTrack7	9	ProbeTrack	1406	SCS215g	733716.346387	733716.347325	8	0.013328	60	0	60-180	60	138	NoGap	1	4	4	96	1	target	1	733	13.328	13.140	13.516
ProbeTrack7	9	ProbeTrack	1406	SCS215g	733716.346387	733716.347448	8	0.013328	60	0	60-180	60	113	NoGap	1	5	4	6	1	target	1	427	13.328	13.207	13.448
ProbeTrack7	9	ProbeTrack	1406	SCS215g	733716.346387	733716.347582	8	0.013328	60	0	60-180	60	145	NoGap	1	6	4	3	0	distractor	1	973	13.328	13.226	13.430
ProbeTrack7	9	ProbeTrack	1406	SCS215g	733716.346387	733716.347670	8	0.013328	60	0	60-180	60	132	NoGap	1	7	4	96	0	distractor	1	1013	13.328	13.196	13.461
ProbeTrack7	9	ProbeTrack	1406	SCS215g	733716.346387	733716.347773	8	0.013328	60	0	60-180	60	83	NoGap	1	8	4	0	0	distractor	1	867	13.328	13.201	13.454
ProbeTrack7	9	ProbeTrack	1406	SCS215g	733716.346387	733716.347846	8	0.013328	60	0	60-180	60	134	NoGap	1	9	4	0	1	distractor	0	880	13.328	13.216	13.441
ProbeTrack7	9	ProbeTrack	1406	SCS215g	733716.346387	733716.347925	8	0.013328	60	0	60-180	60	93	NoGap	1	10	4	3	0	distractor	1	787	13.328	13.206	13.451
ProbeTrack7	9	ProbeTrack	1406	SCS215g	733716.346387	733716.347998	8	0.013328	60	0	60-180	60	135	NoGap	1	11	4	0	0	distractor	1	653	13.328	13.211	13.446
ProbeTrack7	9	ProbeTrack	1406	SCS215g	733716.346387	733716.348073	8	0.013328	60	0	60-180	60	141	NoGap	1	12	4	96	0	distractor	1	733	13.328	13.145	13.512
ProbeTrack7	9	ProbeTrack	1406	SCS215g	733716.346387	733716.348163	8	0.013328	60	0	60-180	60	116	NoGap	1	13	4	0	1	target	1	667	13.328	13.271	13.385
ProbeTrack7	9	ProbeTrack	1406	SCS215g	733716.346387	733716.348237	8	0.013328	60	0	60-180	60	173	NoGap	1	14	4	3	1	target	1	400	13.328	13.177	13.480
ProbeTrack7	9	ProbeTrack	1406	SCS215g	733716.346387	733716.348312	8	0.013328	60	0	60-180	60	113	NoGap	1	15	4	96	1	target	1	494	13.328	13.240	13.415
ProbeTrack7	9	ProbeTrack	1406	SCS215g	733716.346387	733716.348391	8	0.013328	60	0	60-180	60	111	NoGap	1	16	4	96	0	distractor	1	613	13.328	13.178	13.479
ProbeTrack7	9	ProbeTrack	1406	SCS215g	733716.346387	733716.348473	8	0.013328	60	0	60-180	60	146	NoGap	1	17	4	0	0	distractor	1	613	13.328	13.111	13.546
ProbeTrack7	9	ProbeTrack	1406	SCS215g	733716.346387	733716.348545	8	0.013328	60	0	60-180	60	95	NoGap	1	18	4	96	1	target	1	533	13.328	13.209	13.448
ProbeTrack7	9	ProbeTrack	1406	SCS215g	733716.346387	733716.348623	8	0.013328	60	0	60-180	60	152	NoGap	1	19	4	3	0	distractor	1	787	13.329	13.161	13.497
ProbeTrack7	9	ProbeTrack	1406	SCS215g	733716.346387	733716.348717	8	0.013328	60	0	60-180	60	123	NoGap	1	20	4	6	0	distractor	1	587	13.328	13.112	13.544
ProbeTrack7	9	ProbeTrack	1406	SCS215g	733716.346387	733716.348791	8	0.013328	60	0	60-180	60	100	NoGap	1	21	4	96	0	distractor	1	707	13.328	13.211	13.448
ProbeTrack7	9	ProbeTrack	1406	SCS215g	733716.346387	733716.348874	8	0.013328	60	0	60-180	60	134	NoGap	1	22	4	6	0	distractor	1	587	13.328	13.255	13.402
ProbeTrack7	9	ProbeTrack	1406	SCS215g	733716.346387	733716.348946	8	0.013328	60	0	60-180	60	138	NoGap	1	23	4	3	0	distractor	1	693	13.328	13.303	13.353
ProbeTrack7	9	ProbeTrack	1406	SCS215g	733716.346387	733716.349023	8	0.013328	60	0	60-180	60	131	NoGap	1	24	4	6	1	target	1	773	13.328	13.200	13.456
ProbeTrack7	9	ProbeTrack	1406	SCS215g	733716.346387	733716.349096	8	0.013328	60	0	60-180	60	82	NoGap	1	25	4	0	1	target	1	560	13.328	13.159	13.497
ProbeTrack7	9	ProbeTrack	1406	SCS215g	733716.346387	733716.349160	8	0.013328	60	0	60-180	60	64	NoGap	1	26	4	0	0	distractor	1	653	13.328	13.181	13.475
ProbeTrack7	9	ProbeTrack	1406	SCS215g	733716.346387	733716.349222	8	0.013328	60	0	60-180	60	66	NoGap	1	27	4	96	0	distractor	1	560	13.328	13.225	13.432
ProbeTrack7	9	ProbeTrack	1406	SCS215g	733716.346387	733716.349297	8	0.013328	60	0	60-180	60	115	NoGap	1	28	4	96	0	distractor	1	693	13.328	13.209	13.446
ProbeTrack7	9	ProbeTrack	1406	SCS215g	733716.346387	733716.349382	8	0.013328	60	0	60-180	60	167	NoGap	1	29	4	6	1	target	1	693	13.328	13.229	13.403
ProbeTrack7	9	ProbeTrack	1406	SCS215g	733716.346387	733716.349463	8	0.013328	60	0	60-180	60	77	NoGap	1	30	4	0	1	target	1	587	13.328	13.307	13.349
ProbeTrack7	9	ProbeTrack	1406	SCS215g	733716.346387	733716.349525	8	0.013328	60	0	60-180	60	141	NoGap	1	31	4	3	0	distractor	1	720	13.328	13.320	13.338
ProbeTrack7	9	ProbeTrack	1406	SCS215g	733716.346387	733716.349601	8	0.013328	60	0	60-180	60	127	NoGap	1	32	4	96	1	target	1	720	13.328	13.157	13.499
ProbeTrack7	9	ProbeTrack	1406	SCS215g	733716.346387	733716.349688	8	0.013328	60	0	60-180	60	125	NoGap	1	33	4	3	1	target	1	773	13.328	13.243	13.414
ProbeTrack7	9	ProbeTrack	1406	SCS215g	733716.346387	733716.349762	8	0.013328	60	0	60-180	60	90	NoGap	1	34	4	0	0	distractor	1	827	13.328	13.227	13.428
ProbeTrack7	9	ProbeTrack	1406	SCS215g	733716.346387	733716.349828	8	0.013328	60	0	60-180	60	85	NoGap	1	35	4	0	1	target	1	587	13.328	13.206	13.451
ProbeTrack7	9	ProbeTrack	1406	SCS215g	733716.346387	733716.349896	8	0.013328	60	0	60-180	60	142	NoGap	1	36	4	96	1	target	1	547	13.328	13.292	13.365
ProbeTrack7	9	ProbeTrack	1406	SCS215g	733716.346387	733716.349986	8	0.013328	60	0	60-180	60	97	NoGap	1	37	4	96	1	32	-3	507	13.328	13.176	13.481
ProbeTrack7	9	ProbeTrack	1406	SCS215g	733716.346387	733716.350068	8	0.013328	60	0	60-180	60	82	NoGap	1	38	4	3	1	target	1	560	13.328	13.222	13.435
ProbeTrack7	9	ProbeTrack	1406	SCS215g	733716.346387	733716.350132	8	0.013328	60	0	60-180	60	82	NoGap	1	39	4	3	1	target	1	534	13.328	13.101	13.554
ProbeTrack7	9	ProbeTrack	1406	SCS215g	733716.346387	733716.350195	8	0.013328	60	0	60-180	60	103	NoGap	1	40	4	6	0	target	0	560	13.328	13.154	13.502
ProbeTrack7	9	ProbeTrack	1406	SCS215g	733716.346387	733716.350261	8	0.013328	60	0	60-180	60	94	NoGap	1	41	4	0	1	target	1	560	13.328	13.200	13.455
ProbeTrack7	9	ProbeTrack	1406	SCS215g	733716.346387	733716.350329	8	0.013328	60	0	60-180	60	155	NoGap	1	42	4	6	0	distractor	1	827	13.328	13.205	13.450
ProbeTrack7	9	ProbeTrack	1406	SCS215g	733716.346387	733716.350406	8	0.013328	60	0	60-180	60	163	NoGap	1	43	4	6	0	distractor	1	693	13.328	13.268	13.388
ProbeTrack7	9	ProbeTrack	1406	SCS215g	733716.346387	733716.350486	8	0.013328	60	0	60-180	60	103	NoGap	1	44	4	6	1	target	1	573	13.328	13.324	13.334
ProbeTrack7	9	ProbeTrack	1406	SCS215g	733716.346387	733716.350555	8	0.013328	60	0	60-180	60	162	NoGap	1	45	4	6	1	target	1	600	13.328	13.323	13.333
ProbeTrack7	9	ProbeTrack	1406	SCS215g	733716.346387	733716.350634	8	0.013328	60	0	60-180	60	94	NoGap	1	46	4	0	0	distractor	1	707	13.328	13.222	13.433
ProbeTrack7	9	ProbeTrack	1406	SCS215g	733716.346387	733716.350702	8	0.013328	60	0	60-180	60	174	NoGap	1	47	4	3	1	target	1	573	13.328	13.152	13.504
ProbeTrack7	9	ProbeTrack	1406	SCS215g	733716.346387	733716.350782	8	0.013328	60	0	60-180	60	148	NoGap	1	48	4	3	0	distractor	1	787	13.328	13.205	13.452
ProbeTrack7	9	ProbeTrack	1406	SCS215g	733716.346387	733716.350861	8	0.013328	60	0	60-180	60	92	NoGap	1	49	4	3	0	distractor	1	760	13.328	13.222	13.433
ProbeTrack7	9	ProbeTrack	1406	SCS215g	733716.346387	733716.350931	8	0.013328	60	0	60-180	60	130	NoGap	1	50	4	6	1	target	1	600	13.328	13.157	13.498
ProbeTrack7	9	ProbeTrack	1406	SCS215g	733716.351385	733716.351663	8	0.013328	60	10	60-180	60	79	GapPrac	1	1	3	6	1	target	1	973	13.328	13.323	13.333
ProbeTrack7	9	ProbeTrack	1406	SCS215g	733716.351385	733716.351739	8	0.013328	60	10	60-180	60	141	GapPrac	1	2	3	3	1	target	1	587	13.328	13.323	13.332
ProbeTrack7	9	ProbeTrack	1406	SCS215g	733716.351385	733716.351830	8	0.013328	60	10	60-180	60	106	GapPrac	1	3	3	96	0	target	0	733	13.328	13.324	13.332
ProbeTrack7	9	ProbeTrack	1406	SCS215g	733716.351385	733716.351919	8	0.013328	60	10	60-180	60	121	GapPrac	1	4	3	3	0	distractor	1	733	13.328	13.323	13.334
ProbeTrack7	9	ProbeTrack	1406	SCS215g	733716.351385	733716.351997	8	0.013328	60	10	60-180	60	134	GapPrac	1	5	3	0	1	target	1	827	13.328	13.324	13.332
ProbeTrack7	9	ProbeTrack	1406	SCS215g	733716.351385	733716.352071	8	0.013328	60	10	60-180	60	148	GapPrac	1	6	3	3	0	distractor	1	1093	13.328	13.323	13.334
ProbeTrack7	9	ProbeTrack	1406	SCS215g	733716.351385	733716.352155	8	0.013328	60	10	60-180	60	69	GapPrac	1	7	3	3	1	target	1	573	13.328	13.324	13.334
ProbeTrack7	9	ProbeTrack	1406	SCS215g	733716.351385	733716.352222	8	0.013328	60	10	60-180	60	140	GapPrac	1	8	3	3	1	target	1	627	13.328	13.319	13.338
ProbeTrack7	9	ProbeTrack	1406	SCS215g	733716.351385	733716.352300	8	0.013328	60	10	60-180	60	120	GapPrac	1	9	3	96	1	target	1	827	13.328	13.324	13.333
ProbeTrack7	9	ProbeTrack	1406	SCS215g	733716.351385	733716.352386	8	0.013328	60	10	60-180	60	93	GapPrac	1	10	3	6	0	distractor	1	933	13.328	13.322	13.333
ProbeTrack7	9	ProbeTrack	1406	SCS215g	733716.351385	733716.352457	8	0.013328	60	10	60-180	60	68	GapPrac	1	11	3	96	0	distractor	1	880	13.328	13.320	13.337
ProbeTrack7	9	ProbeTrack	1406	SCS215g	733716.351385	733716.352536	8	0.013328	60	10	60-180	60	140	GapPrac	1	12	3	0	1	target	1	760	13.328	13.323	13.334
ProbeTrack7	9	ProbeTrack	1406	SCS215g	733716.351385	733716.352612	8	0.013328	60	10	60-180	60	125	GapPrac	1	13	3	0	0	distractor	1	760	13.328	13.323	13.332
ProbeTrack7	9	ProbeTrack	1406	SCS215g	733716.351385	733716.352685	8	0.013328	60	10	60-180	60	156	GapPrac	1	14	3	96	1	target	1	773	13.328	13.325	13.331
ProbeTrack7	9	ProbeTrack	1406	SCS215g	733716.351385	733716.352779	8	0.013328	60	10	60-180	60	178	GapPrac	1	15	3	3	0	distractor	1	853	13.328	13.324	13.333
ProbeTrack7	9	ProbeTrack	1406	SCS215g	733716.351385	733716.352860	8	0.013328	60	10	60-180	60	96	GapPrac	1	16	3	6	0	distractor	1	880	13.328	13.324	13.334
ProbeTrack7	9	ProbeTrack	1406	SCS215g	733716.351385	733716.352933	8	0.013328	60	10	60-180	60	117	GapPrac	1	17	3	96	0	distractor	1	720	13.328	13.323	13.332
ProbeTrack7	9	ProbeTrack	1406	SCS215g	733716.351385	733716.353020	8	0.013328	60	10	60-180	60	168	GapPrac	1	18	3	6	1	target	1	707	13.328	13.323	13.332
ProbeTrack7	9	ProbeTrack	1406	SCS215g	733716.351385	733716.353101	8	0.013328	60	10	60-180	60	132	GapPrac	1	19	3	6	1	target	1	507	13.328	13.323	13.334
ProbeTrack7	9	ProbeTrack	1406	SCS215g	733716.351385	733716.353175	8	0.013328	60	10	60-180	60	99	GapPrac	1	20	3	0	0	distractor	1	773	13.328	13.323	13.332
ProbeTrack7	9	ProbeTrack	1406	SCS215g	733716.353956	733716.354059	8	0.013328	60	10	60-180	60	174	GapExp	1	1	3	3	1	target	1	760	13.328	13.324	13.332
ProbeTrack7	9	ProbeTrack	1406	SCS215g	733716.353956	733716.354146	8	0.013328	60	10	60-180	60	75	GapExp	1	2	3	3	0	distractor	1	813	13.328	13.324	13.333
ProbeTrack7	9	ProbeTrack	1406	SCS215g	733716.353956	733716.354218	8	0.013328	60	10	60-180	60	160	GapExp	1	3	3	6	0	distractor	1	813	13.328	13.321	13.336
ProbeTrack7	9	ProbeTrack	1406	SCS215g	733716.353956	733716.354299	8	0.013328	60	10	60-180	60	153	GapExp	1	4	3	96	0	distractor	1	693	13.328	13.308	13.349
ProbeTrack7	9	ProbeTrack	1406	SCS215g	733716.353956	733716.354389	8	0.013328	60	10	60-180	60	163	GapExp	1	5	3	0	1	target	1	653	13.328	13.323	13.332
ProbeTrack7	9	ProbeTrack	1406	SCS215g	733716.353956	733716.354463	8	0.013328	60	10	60-180	60	117	GapExp	0	6	3	96	0	distractor	1	680	13.328	13.311	13.345
ProbeTrack7	9	ProbeTrack	1406	SCS215g	733716.353956	733716.354552	8	0.013328	60	10	60-180	60	124	GapExp	0	7	3	3	1	target	1	520	13.328	13.324	13.333
ProbeTrack7	9	ProbeTrack	1406	SCS215g	733716.353956	733716.354625	8	0.013328	60	10	60-180	60	101	GapExp	0	8	3	0	0	distractor	1	800	13.328	13.324	13.333
ProbeTrack7	9	ProbeTrack	1406	SCS215g	733716.353956	733716.354696	8	0.013328	60	10	60-180	60	180	GapExp	0	9	3	0	1	target	1	667	13.328	13.324	13.332
ProbeTrack7	9	ProbeTrack	1406	SCS215g	733716.353956	733716.354777	8	0.013328	60	10	60-180	60	131	GapExp	0	10	3	0	1	target	1	693	13.328	13.324	13.332
ProbeTrack7	9	ProbeTrack	1406	SCS215g	733716.353956	733716.354852	8	0.013328	60	10	60-180	60	96	GapExp	0	11	3	6	1	target	1	547	13.328	13.316	13.342
ProbeTrack7	9	ProbeTrack	1406	SCS215g	733716.353956	733716.354920	8	0.013328	60	10	60-180	60	151	GapExp	0	12	3	96	1	target	1	533	13.328	13.325	13.333
ProbeTrack7	9	ProbeTrack	1406	SCS215g	733716.353956	733716.355012	8	0.013328	60	10	60-180	60	168	GapExp	0	13	3	96	0	distractor	1	733	13.328	13.323	13.332
ProbeTrack7	9	ProbeTrack	1406	SCS215g	733716.353956	733716.355109	8	0.013328	60	10	60-180	60	62	GapExp	0	14	3	6	0	distractor	1	947	13.328	13.323	13.333
ProbeTrack7	9	ProbeTrack	1406	SCS215g	733716.353956	733716.355175	8	0.013328	60	10	60-180	60	89	GapExp	0	15	3	3	1	target	1	813	13.328	13.324	13.332
ProbeTrack7	9	ProbeTrack	1406	SCS215g	733716.353956	733716.355245	8	0.013328	60	10	60-180	60	105	GapExp	0	16	3	96	1	target	1	800	13.328	13.319	13.337
ProbeTrack7	9	ProbeTrack	1406	SCS215g	733716.353956	733716.355331	8	0.013328	60	10	60-180	60	176	GapExp	0	17	3	96	1	target	1	427	13.328	13.322	13.335
ProbeTrack7	9	ProbeTrack	1406	SCS215g	733716.353956	733716.355424	8	0.013328	60	10	60-180	60	99	GapExp	0	18	3	6	0	distractor	1	707	13.328	13.322	13.333
ProbeTrack7	9	ProbeTrack	1406	SCS215g	733716.353956	733716.355496	8	0.013328	60	10	60-180	60	99	GapExp	0	19	3	96	0	distractor	1	827	13.328	13.313	13.343
ProbeTrack7	9	ProbeTrack	1406	SCS215g	733716.353956	733716.355581	8	0.013328	60	10	60-180	60	130	GapExp	0	20	3	3	0	distractor	1	667	13.328	13.324	13.332
ProbeTrack7	9	ProbeTrack	1406	SCS215g	733716.353956	733716.355656	8	0.013328	60	10	60-180	60	76	GapExp	0	21	3	3	0	distractor	1	773	13.328	13.323	13.334
ProbeTrack7	9	ProbeTrack	1406	SCS215g	733716.353956	733716.355722	8	0.013328	60	10	60-180	60	72	GapExp	0	22	3	6	1	target	1	547	13.328	13.311	13.346
ProbeTrack7	9	ProbeTrack	1406	SCS215g	733716.353956	733716.355788	8	0.013328	60	10	60-180	60	78	GapExp	0	23	3	96	0	distractor	1	680	13.328	13.323	13.334
ProbeTrack7	9	ProbeTrack	1406	SCS215g	733716.353956	733716.355867	8	0.013328	60	10	60-180	60	173	GapExp	0	24	3	0	0	distractor	1	773	13.328	13.324	13.332
ProbeTrack7	9	ProbeTrack	1406	SCS215g	733716.353956	733716.355961	8	0.013328	60	10	60-180	60	89	GapExp	0	25	3	96	0	distractor	1	960	13.328	13.323	13.333
ProbeTrack7	9	ProbeTrack	1406	SCS215g	733716.353956	733716.356047	8	0.013328	60	10	60-180	60	110	GapExp	0	26	3	3	0	distractor	1	787	13.328	13.320	13.335
ProbeTrack7	9	ProbeTrack	1406	SCS215g	733716.353956	733716.356118	8	0.013328	60	10	60-180	60	86	GapExp	0	27	3	96	1	target	1	600	13.328	13.323	13.332
ProbeTrack7	9	ProbeTrack	1406	SCS215g	733716.353956	733716.356198	8	0.013328	60	10	60-180	60	121	GapExp	0	28	3	0	0	distractor	1	773	13.328	13.320	13.336
ProbeTrack7	9	ProbeTrack	1406	SCS215g	733716.353956	733716.356271	8	0.013328	60	10	60-180	60	158	GapExp	0	29	3	0	0	distractor	1	720	13.328	13.315	13.341
ProbeTrack7	9	ProbeTrack	1406	SCS215g	733716.353956	733716.356351	8	0.013328	60	10	60-180	60	94	GapExp	0	30	3	6	1	target	1	1093	13.328	13.324	13.331
ProbeTrack7	9	ProbeTrack	1406	SCS215g	733716.353956	733716.356424	8	0.013328	60	10	60-180	60	117	GapExp	0	31	3	0	0	distractor	1	760	13.328	13.324	13.332
ProbeTrack7	9	ProbeTrack	1406	SCS215g	733716.353956	733716.356500	8	0.013328	60	10	60-180	60	99	GapExp	0	32	3	6	1	target	1	493	13.328	13.324	13.333
ProbeTrack7	9	ProbeTrack	1406	SCS215g	733716.353956	733716.356567	8	0.013328	60	10	60-180	60	66	GapExp	0	33	3	96	1	target	1	520	13.328	13.324	13.333
ProbeTrack7	9	ProbeTrack	1406	SCS215g	733716.353956	733716.356645	8	0.013328	60	10	60-180	60	104	GapExp	0	34	3	96	1	target	1	507	13.328	13.322	13.333
ProbeTrack7	9	ProbeTrack	1406	SCS215g	733716.353956	733716.356733	8	0.013328	60	10	60-180	60	92	GapExp	0	35	3	0	0	distractor	1	773	13.328	13.321	13.336
ProbeTrack7	9	ProbeTrack	1406	SCS215g	733716.353956	733716.356801	8	0.013328	60	10	60-180	60	176	GapExp	0	36	3	96	0	distractor	1	733	13.328	13.321	13.335
ProbeTrack7	9	ProbeTrack	1406	SCS215g	733716.353956	733716.356895	8	0.013328	60	10	60-180	60	175	GapExp	0	37	3	3	0	distractor	1	747	13.328	13.324	13.332
ProbeTrack7	9	ProbeTrack	1406	SCS215g	733716.353956	733716.356975	8	0.013328	60	10	60-180	60	164	GapExp	0	38	3	96	0	distractor	1	600	13.328	13.323	13.333
ProbeTrack7	9	ProbeTrack	1406	SCS215g	733716.353956	733716.357070	8	0.013328	60	10	60-180	60	170	GapExp	0	39	3	0	1	distractor	0	867	13.328	13.312	13.343
ProbeTrack7	9	ProbeTrack	1406	SCS215g	733716.353956	733716.357151	8	0.013328	60	10	60-180	60	171	GapExp	0	40	3	6	1	target	1	400	13.328	13.323	13.334
ProbeTrack7	9	ProbeTrack	1406	SCS215g	733716.353956	733716.357228	8	0.013328	60	10	60-180	60	122	GapExp	0	41	3	0	0	distractor	1	1280	13.328	13.320	13.336
ProbeTrack7	9	ProbeTrack	1406	SCS215g	733716.353956	733716.357306	8	0.013328	60	10	60-180	60	152	GapExp	0	42	3	6	1	target	1	867	13.328	13.316	13.333
ProbeTrack7	9	ProbeTrack	1406	SCS215g	733716.353956	733716.357384	8	0.013328	60	10	60-180	60	69	GapExp	0	43	3	96	1	target	1	667	13.328	13.324	13.332
ProbeTrack7	9	ProbeTrack	1406	SCS215g	733716.353956	733716.357461	8	0.013328	60	10	60-180	60	173	GapExp	0	44	3	3	0	distractor	1	773	13.328	13.319	13.338
ProbeTrack7	9	ProbeTrack	1406	SCS215g	733716.353956	733716.357541	8	0.013328	60	10	60-180	60	77	GapExp	0	45	3	96	0	multi	-2	787	13.328	13.304	13.354
ProbeTrack7	9	ProbeTrack	1406	SCS215g	733716.353956	733716.357621	8	0.013328	60	10	60-180	60	149	GapExp	0	46	3	96	1	target	1	547	13.328	13.324	13.334
ProbeTrack7	9	ProbeTrack	1406	SCS215g	733716.353956	733716.357716	8	0.013328	60	10	60-180	60	135	GapExp	0	47	3	3	0	distractor	1	907	13.328	13.323	13.332
ProbeTrack7	9	ProbeTrack	1406	SCS215g	733716.353956	733716.357792	8	0.013328	60	10	60-180	60	166	GapExp	0	48	3	3	1	target	1	600	13.328	13.314	13.341
ProbeTrack7	9	ProbeTrack	1406	SCS215g	733716.353956	733716.357871	8	0.013328	60	10	60-180	60	92	GapExp	0	49	3	3	0	distractor	1	787	13.328	13.319	13.338
ProbeTrack7	9	ProbeTrack	1406	SCS215g	733716.353956	733716.357940	8	0.013328	60	10	60-180	60	74	GapExp	0	50	3	96	1	target	1	533	13.328	13.324	13.332
ProbeTrack7	9	ProbeTrack	1406	SCS215g	733716.353956	733716.358030	8	0.013328	60	10	60-180	60	113	GapExp	0	51	3	6	0	distractor	1	760	13.328	13.324	13.332
ProbeTrack7	9	ProbeTrack	1406	SCS215g	733716.353956	733716.358101	8	0.013328	60	10	60-180	60	171	GapExp	0	52	3	3	1	target	1	520	13.328	13.324	13.332
ProbeTrack7	9	ProbeTrack	1406	SCS215g	733716.353956	733716.358177	8	0.013328	60	10	60-180	60	137	GapExp	0	53	3	6	1	target	1	440	13.328	13.324	13.333
ProbeTrack7	9	ProbeTrack	1406	SCS215g	733716.353956	733716.358247	8	0.013328	60	10	60-180	60	85	GapExp	0	54	3	3	0	distractor	1	840	13.328	13.324	13.332
ProbeTrack7	9	ProbeTrack	1406	SCS215g	733716.353956	733716.358316	8	0.013328	60	10	60-180	60	66	GapExp	0	55	3	6	1	target	1	560	13.328	13.323	13.334
ProbeTrack7	9	ProbeTrack	1406	SCS215g	733716.353956	733716.358376	8	0.013328	60	10	60-180	60	105	GapExp	0	56	3	3	1	target	1	587	13.328	13.322	13.333
ProbeTrack7	9	ProbeTrack	1406	SCS215g	733716.353956	733716.358445	8	0.013328	60	10	60-180	60	142	GapExp	0	57	3	3	0	distractor	1	707	13.328	13.324	13.334
ProbeTrack7	9	ProbeTrack	1406	SCS215g	733716.353956	733716.358523	8	0.013328	60	10	60-180	60	134	GapExp	0	58	3	0	1	target	1	520	13.328	13.324	13.334
ProbeTrack7	9	ProbeTrack	1406	SCS215g	733716.353956	733716.358593	8	0.013328	60	10	60-180	60	77	GapExp	0	59	3	6	1	target	1	387	13.328	13.326	13.330
ProbeTrack7	9	ProbeTrack	1406	SCS215g	733716.353956	733716.358654	8	0.013328	60	10	60-180	60	79	GapExp	0	60	3	96	0	distractor	1	760	13.328	13.323	13.333
ProbeTrack7	9	ProbeTrack	1406	SCS215g	733716.353956	733716.358739	8	0.013328	60	10	60-180	60	70	GapExp	0	61	3	0	1	target	1	573	13.328	13.324	13.332
ProbeTrack7	9	ProbeTrack	1406	SCS215g	733716.353956	733716.358799	8	0.013328	60	10	60-180	60	104	GapExp	0	62	3	6	0	distractor	1	573	13.328	13.323	13.332
ProbeTrack7	9	ProbeTrack	1406	SCS215g	733716.353956	733716.358867	8	0.013328	60	10	60-180	60	81	GapExp	0	63	3	96	0	distractor	1	680	13.328	13.322	13.333
ProbeTrack7	9	ProbeTrack	1406	SCS215g	733716.353956	733716.358948	8	0.013328	60	10	60-180	60	167	GapExp	0	64	3	0	1	distractor	0	680	13.328	13.324	13.333
ProbeTrack7	9	ProbeTrack	1406	SCS215g	733716.353956	733716.359024	8	0.013328	60	10	60-180	60	113	GapExp	0	65	3	0	1	target	1	520	13.328	13.311	13.346
ProbeTrack7	9	ProbeTrack	1406	SCS215g	733716.353956	733716.359091	8	0.013328	60	10	60-180	60	137	GapExp	0	66	3	0	0	distractor	1	720	13.328	13.315	13.340
ProbeTrack7	9	ProbeTrack	1406	SCS215g	733716.353956	733716.359167	8	0.013328	60	10	60-180	60	95	GapExp	0	67	3	6	0	distractor	1	680	13.328	13.325	13.331
ProbeTrack7	9	ProbeTrack	1406	SCS215g	733716.353956	733716.359235	8	0.013328	60	10	60-180	60	108	GapExp	0	68	3	3	0	distractor	1	560	13.328	13.324	13.332
ProbeTrack7	9	ProbeTrack	1406	SCS215g	733716.353956	733716.359305	8	0.013328	60	10	60-180	60	110	GapExp	0	69	3	3	1	target	1	494	13.328	13.323	13.332
ProbeTrack7	9	ProbeTrack	1406	SCS215g	733716.353956	733716.359375	8	0.013328	60	10	60-180	60	132	GapExp	0	70	3	3	0	distractor	1	573	13.328	13.324	13.333
ProbeTrack7	9	ProbeTrack	1406	SCS215g	733716.353956	733716.359448	8	0.013328	60	10	60-180	60	80	GapExp	0	71	3	96	0	distractor	1	707	13.328	13.323	13.333
ProbeTrack7	9	ProbeTrack	1406	SCS215g	733716.353956	733716.359527	8	0.013328	60	10	60-180	60	144	GapExp	0	72	3	0	1	target	1	587	13.328	13.312	13.345
ProbeTrack7	9	ProbeTrack	1406	SCS215g	733716.353956	733716.359602	8	0.013328	60	10	60-180	60	114	GapExp	0	73	3	3	0	distractor	1	667	13.328	13.322	13.334
ProbeTrack7	9	ProbeTrack	1406	SCS215g	733716.353956	733716.359673	8	0.013328	60	10	60-180	60	81	GapExp	0	74	3	96	0	distractor	1	573	13.328	13.323	13.333
ProbeTrack7	9	ProbeTrack	1406	SCS215g	733716.353956	733716.359752	8	0.013328	60	10	60-180	60	163	GapExp	0	75	3	0	0	distractor	1	560	13.328	13.323	13.334
ProbeTrack7	9	ProbeTrack	1406	SCS215g	733716.353956	733716.359828	8	0.013328	60	10	60-180	60	170	GapExp	0	76	3	6	1	target	1	520	13.328	13.324	13.334
ProbeTrack7	9	ProbeTrack	1406	SCS215g	733716.353956	733716.359908	8	0.013328	60	10	60-180	60	77	GapExp	0	77	3	3	1	target	1	507	13.328	13.317	13.339
ProbeTrack7	9	ProbeTrack	1406	SCS215g	733716.353956	733716.359971	8	0.013328	60	10	60-180	60	154	GapExp	0	78	3	0	1	target	1	467	13.328	13.323	13.333
ProbeTrack7	9	ProbeTrack	1406	SCS215g	733716.353956	733716.360045	8	0.013328	60	10	60-180	60	144	GapExp	0	79	3	3	1	distractor	0	427	13.328	13.317	13.339
ProbeTrack7	9	ProbeTrack	1406	SCS215g	733716.353956	733716.360116	8	0.013328	60	10	60-180	60	119	GapExp	0	80	3	0	0	target	0	760	13.328	13.323	13.333
ProbeTrack7	9	ProbeTrack	1406	SCS215g	733716.353956	733716.360188	8	0.013328	60	10	60-180	60	84	GapExp	0	81	3	6	1	target	1	587	13.328	13.325	13.330
ProbeTrack7	9	ProbeTrack	1406	SCS215g	733716.353956	733716.360256	8	0.013328	60	10	60-180	60	88	GapExp	0	82	3	0	0	distractor	1	840	13.328	13.324	13.332
ProbeTrack7	9	ProbeTrack	1406	SCS215g	733716.353956	733716.360324	8	0.013328	60	10	60-180	60	62	GapExp	0	83	3	0	1	target	1	520	13.328	13.324	13.332
ProbeTrack7	9	ProbeTrack	1406	SCS215g	733716.353956	733716.360382	8	0.013328	60	10	60-180	60	93	GapExp	0	84	3	0	1	target	1	587	13.328	13.324	13.332
ProbeTrack7	9	ProbeTrack	1406	SCS215g	733716.353956	733716.360447	8	0.013328	60	10	60-180	60	176	GapExp	0	85	3	6	0	distractor	1	707	13.328	13.323	13.334
ProbeTrack7	9	ProbeTrack	1406	SCS215g	733716.353956	733716.360526	8	0.013328	60	10	60-180	60	155	GapExp	0	86	3	6	0	distractor	1	653	13.328	13.324	13.332
ProbeTrack7	9	ProbeTrack	1406	SCS215g	733716.353956	733716.360602	8	0.013328	60	10	60-180	60	169	GapExp	0	87	3	96	1	target	1	707	13.328	13.323	13.334
ProbeTrack7	9	ProbeTrack	1406	SCS215g	733716.353956	733716.360700	8	0.013328	60	10	60-180	60	106	GapExp	0	88	3	96	1	target	1	533	13.328	13.324	13.334
ProbeTrack7	9	ProbeTrack	1406	SCS215g	733716.353956	733716.360784	8	0.013328	60	10	60-180	60	61	GapExp	0	89	3	3	0	distractor	1	920	13.328	13.318	13.337
ProbeTrack7	9	ProbeTrack	1406	SCS215g	733716.353956	733716.360849	8	0.013328	60	10	60-180	60	137	GapExp	0	90	3	0	0	target	0	693	13.328	13.324	13.333
ProbeTrack7	9	ProbeTrack	1406	SCS215g	733716.353956	733716.360923	8	0.013328	60	10	60-180	60	121	GapExp	0	91	3	0	1	target	1	467	13.328	13.324	13.333
ProbeTrack7	9	ProbeTrack	1406	SCS215g	733716.353956	733716.360993	8	0.013328	60	10	60-180	60	76	GapExp	0	92	3	6	0	distractor	1	653	13.328	13.322	13.334
ProbeTrack7	9	ProbeTrack	1406	SCS215g	733716.353956	733716.361059	8	0.013328	60	10	60-180	60	124	GapExp	0	93	3	96	1	target	1	507	13.328	13.317	13.340
ProbeTrack7	9	ProbeTrack	1406	SCS215g	733716.353956	733716.361141	8	0.013328	60	10	60-180	60	100	GapExp	0	94	3	3	0	distractor	1	613	13.328	13.324	13.333
ProbeTrack7	9	ProbeTrack	1406	SCS215g	733716.353956	733716.361208	8	0.013328	60	10	60-180	60	146	GapExp	0	95	3	3	0	target	0	573	13.328	13.324	13.332
ProbeTrack7	9	ProbeTrack	1406	SCS215g	733716.353956	733716.361282	8	0.013328	60	10	60-180	60	146	GapExp	0	96	3	3	1	target	1	387	13.328	13.324	13.333
ProbeTrack7	9	ProbeTrack	1406	SCS215g	733716.353956	733716.361353	8	0.013328	60	10	60-180	60	172	GapExp	0	97	3	0	1	distractor	0	720	13.328	13.323	13.334
ProbeTrack7	9	ProbeTrack	1406	SCS215g	733716.353956	733716.361431	8	0.013328	60	10	60-180	60	62	GapExp	0	98	3	96	0	distractor	1	640	13.328	13.324	13.333
ProbeTrack7	9	ProbeTrack	1406	SCS215g	733716.353956	733716.361506	8	0.013328	60	10	60-180	60	155	GapExp	0	99	3	3	1	target	1	427	13.328	13.324	13.334
ProbeTrack7	9	ProbeTrack	1406	SCS215g	733716.353956	733716.361582	8	0.013328	60	10	60-180	60	143	GapExp	0	100	3	6	0	target	0	1133	13.328	13.324	13.334
ProbeTrack7	9	ProbeTrack	1406	SCS215g	733716.353956	733716.361663	8	0.013328	60	10	60-180	60	98	GapExp	0	101	3	3	1	target	1	813	13.328	13.319	13.337
ProbeTrack7	9	ProbeTrack	1406	SCS215g	733716.353956	733716.361731	8	0.013328	60	10	60-180	60	167	GapExp	0	102	3	3	1	target	1	520	13.328	13.323	13.334
ProbeTrack7	9	ProbeTrack	1406	SCS215g	733716.353956	733716.361808	8	0.013328	60	10	60-180	60	105	GapExp	0	103	3	96	0	distractor	1	747	13.328	13.321	13.336
ProbeTrack7	9	ProbeTrack	1406	SCS215g	733716.353956	733716.361892	8	0.013328	60	10	60-180	60	159	GapExp	0	104	3	96	1	target	1	520	13.328	13.323	13.332
ProbeTrack7	9	ProbeTrack	1406	SCS215g	733716.353956	733716.362003	8	0.013328	60	10	60-180	60	102	GapExp	0	105	3	0	0	target	0	680	13.328	13.324	13.333
ProbeTrack7	9	ProbeTrack	1406	SCS215g	733716.353956	733716.362070	8	0.013328	60	10	60-180	60	82	GapExp	0	106	3	96	1	target	1	733	13.328	13.323	13.333
ProbeTrack7	9	ProbeTrack	1406	SCS215g	733716.353956	733716.362154	8	0.013328	60	10	60-180	60	64	GapExp	0	107	3	0	0	distractor	1	627	13.328	13.322	13.335
ProbeTrack7	9	ProbeTrack	1406	SCS215g	733716.353956	733716.362214	8	0.013328	60	10	60-180	60	177	GapExp	0	108	3	3	1	target	1	493	13.328	13.317	13.338
ProbeTrack7	9	ProbeTrack	1406	SCS215g	733716.353956	733716.362291	8	0.013328	60	10	60-180	60	172	GapExp	0	109	3	6	1	target	1	587	13.328	13.322	13.333
ProbeTrack7	9	ProbeTrack	1406	SCS215g	733716.353956	733716.362368	8	0.013328	60	10	60-180	60	82	GapExp	0	110	3	96	1	target	1	520	13.328	13.321	13.335
ProbeTrack7	9	ProbeTrack	1406	SCS215g	733716.353956	733716.362450	8	0.013328	60	10	60-180	60	145	GapExp	0	111	3	96	0	distractor	1	760	13.328	13.323	13.332
ProbeTrack7	9	ProbeTrack	1406	SCS215g	733716.353956	733716.362542	8	0.013328	60	10	60-180	60	88	GapExp	0	112	3	0	1	target	1	533	13.328	13.324	13.333
ProbeTrack7	9	ProbeTrack	1406	SCS215g	733716.353956	733716.362605	8	0.013328	60	10	60-180	60	172	GapExp	0	113	3	3	1	target	1	560	13.328	13.323	13.332
ProbeTrack7	9	ProbeTrack	1406	SCS215g	733716.353956	733716.362684	8	0.013328	60	10	60-180	60	149	GapExp	0	114	3	6	1	target	1	453	13.328	13.319	13.333
ProbeTrack7	9	ProbeTrack	1406	SCS215g	733716.353956	733716.362757	8	0.013328	60	10	60-180	60	154	GapExp	0	115	3	6	0	distractor	1	773	13.328	13.324	13.332
ProbeTrack7	9	ProbeTrack	1406	SCS215g	733716.353956	733716.362836	8	0.013328	60	10	60-180	60	100	GapExp	0	116	3	0	0	distractor	1	640	13.328	13.324	13.332
ProbeTrack7	9	ProbeTrack	1406	SCS215g	733716.353956	733716.362901	8	0.013328	60	10	60-180	60	133	GapExp	0	117	3	6	1	distractor	0	613	13.328	13.324	13.333
ProbeTrack7	9	ProbeTrack	1406	SCS215g	733716.353956	733716.362973	8	0.013328	60	10	60-180	60	83	GapExp	0	118	3	6	1	target	1	560	13.328	13.324	13.332
ProbeTrack7	9	ProbeTrack	1406	SCS215g	733716.353956	733716.363037	8	0.013328	60	10	60-180	60	170	GapExp	0	119	3	6	0	distractor	1	680	13.328	13.323	13.334
ProbeTrack7	9	ProbeTrack	1406	SCS215g	733716.353956	733716.363118	8	0.013328	60	10	60-180	60	108	GapExp	0	120	3	3	1	target	1	493	13.328	13.323	13.333
ProbeTrack7	9	ProbeTrack	1406	SCS215g	733716.353956	733716.363183	8	0.013328	60	10	60-180	60	102	GapExp	0	121	3	0	1	target	1	374	13.328	13.324	13.332
ProbeTrack7	9	ProbeTrack	1406	SCS215g	733716.353956	733716.363250	8	0.013328	60	10	60-180	60	87	GapExp	0	122	3	6	0	distractor	1	440	13.328	13.324	13.334
ProbeTrack7	9	ProbeTrack	1406	SCS215g	733716.353956	733716.363314	8	0.013328	60	10	60-180	60	102	GapExp	0	123	3	6	0	distractor	1	533	13.328	13.325	13.332
ProbeTrack7	9	ProbeTrack	1406	SCS215g	733716.353956	733716.363380	8	0.013328	60	10	60-180	60	126	GapExp	0	124	3	6	0	distractor	1	493	13.328	13.325	13.331
ProbeTrack7	9	ProbeTrack	1406	SCS215g	733716.353956	733716.363449	8	0.013328	60	10	60-180	60	115	GapExp	0	125	3	6	0	distractor	1	573	13.328	13.319	13.336
ProbeTrack7	9	ProbeTrack	1406	SCS215g	733716.364959	733716.365040	8	0.013328	60	10	60-180	60	175	GapPrac	1	1	4	96	1	distractor	0	653	13.328	13.321	13.334
ProbeTrack7	9	ProbeTrack	1406	SCS215g	733716.364959	733716.365141	8	0.013328	60	10	60-180	60	74	GapPrac	1	2	4	96	0	distractor	1	600	13.328	13.324	13.332
ProbeTrack7	9	ProbeTrack	1406	SCS215g	733716.364959	733716.365221	8	0.013328	60	10	60-180	60	99	GapPrac	1	3	4	3	0	distractor	1	587	13.328	13.313	13.344
ProbeTrack7	9	ProbeTrack	1406	SCS215g	733716.364959	733716.365285	8	0.013328	60	10	60-180	60	71	GapPrac	1	4	4	0	0	distractor	1	640	13.328	13.324	13.333
ProbeTrack7	9	ProbeTrack	1406	SCS215g	733716.364959	733716.365346	8	0.013328	60	10	60-180	60	68	GapPrac	1	5	4	96	0	distractor	1	640	13.328	13.323	13.332
ProbeTrack7	9	ProbeTrack	1406	SCS215g	733716.364959	733716.365422	8	0.013328	60	10	60-180	60	116	GapPrac	1	6	4	96	1	target	1	627	13.328	13.324	13.333
ProbeTrack7	9	ProbeTrack	1406	SCS215g	733716.364959	733716.365508	8	0.013328	60	10	60-180	60	158	GapPrac	1	7	4	3	1	target	1	627	13.328	13.324	13.332
ProbeTrack7	9	ProbeTrack	1406	SCS215g	733716.364959	733716.365583	8	0.013328	60	10	60-180	60	120	GapPrac	1	8	4	3	1	target	1	400	13.328	13.316	13.342
ProbeTrack7	9	ProbeTrack	1406	SCS215g	733716.364959	733716.365648	8	0.013328	60	10	60-180	60	96	GapPrac	1	9	4	6	1	target	1	360	13.328	13.324	13.333
ProbeTrack7	9	ProbeTrack	1406	SCS215g	733716.364959	733716.365713	8	0.013328	60	10	60-180	60	152	GapPrac	1	10	4	0	1	target	1	360	13.328	13.316	13.341
ProbeTrack7	9	ProbeTrack	1406	SCS215g	733716.364959	733716.365787	8	0.013328	60	10	60-180	60	133	GapPrac	1	11	4	96	0	distractor	1	627	13.328	13.318	13.338
ProbeTrack7	9	ProbeTrack	1406	SCS215g	733716.364959	733716.365873	8	0.013328	60	10	60-180	60	120	GapPrac	1	12	4	96	1	target	1	440	13.328	13.324	13.333
ProbeTrack7	9	ProbeTrack	1406	SCS215g	733716.364959	733716.365956	8	0.013328	60	10	60-180	60	70	GapPrac	1	13	4	0	0	distractor	1	573	13.328	13.324	13.332
ProbeTrack7	9	ProbeTrack	1406	SCS215g	733716.364959	733716.366019	8	0.013328	60	10	60-180	60	173	GapPrac	1	14	4	0	1	target	1	467	13.328	13.325	13.330
ProbeTrack7	9	ProbeTrack	1406	SCS215g	733716.364959	733716.366095	8	0.013328	60	10	60-180	60	130	GapPrac	1	15	4	6	0	distractor	1	507	13.328	13.323	13.333
ProbeTrack7	9	ProbeTrack	1406	SCS215g	733716.364959	733716.366165	8	0.013328	60	10	60-180	60	73	GapPrac	1	16	4	6	0	target	0	414	13.328	13.323	13.334
ProbeTrack7	9	ProbeTrack	1406	SCS215g	733716.364959	733716.366225	8	0.013328	60	10	60-180	60	173	GapPrac	1	17	4	6	1	distractor	0	374	13.328	13.323	13.332
ProbeTrack7	9	ProbeTrack	1406	SCS215g	733716.364959	733716.366301	8	0.013328	60	10	60-180	60	126	GapPrac	1	18	4	3	0	distractor	1	587	13.328	13.323	13.333
ProbeTrack7	9	ProbeTrack	1406	SCS215g	733716.364959	733716.366370	8	0.013328	60	10	60-180	60	132	GapPrac	1	19	4	3	0	distractor	1	587	13.328	13.324	13.333
ProbeTrack7	9	ProbeTrack	1406	SCS215g	733716.364959	733716.366442	8	0.013328	60	10	60-180	60	66	GapPrac	1	20	4	0	0	32	-3	560	13.328	13.326	13.330
ProbeTrack7	9	ProbeTrack	1406	SCS215g	733716.366882	733716.366957	8	0.013328	60	10	60-180	60	118	GapExp	1	1	4	96	0	distractor	1	587	13.328	13.309	13.347
ProbeTrack7	9	ProbeTrack	1406	SCS215g	733716.366882	733716.367049	8	0.013328	60	10	60-180	60	136	GapExp	1	2	4	0	0	32	-3	667	13.328	13.324	13.333
ProbeTrack7	9	ProbeTrack	1406	SCS215g	733716.366882	733716.367124	8	0.013328	60	10	60-180	60	80	GapExp	1	3	4	0	1	target	1	627	13.328	13.324	13.334
ProbeTrack7	9	ProbeTrack	1406	SCS215g	733716.366882	733716.367187	8	0.013328	60	10	60-180	60	142	GapExp	1	4	4	6	0	distractor	1	693	13.328	13.320	13.335
ProbeTrack7	9	ProbeTrack	1406	SCS215g	733716.366882	733716.367265	8	0.013328	60	10	60-180	60	65	GapExp	1	5	4	3	0	distractor	1	613	13.328	13.323	13.332
ProbeTrack7	9	ProbeTrack	1406	SCS215g	733716.366882	733716.367325	8	0.013328	60	10	60-180	60	112	GapExp	0	6	4	0	0	distractor	1	640	13.328	13.323	13.333
ProbeTrack7	9	ProbeTrack	1406	SCS215g	733716.366882	733716.367392	8	0.013328	60	10	60-180	60	83	GapExp	0	7	4	6	0	distractor	1	600	13.328	13.323	13.334
ProbeTrack7	9	ProbeTrack	1406	SCS215g	733716.366882	733716.367459	8	0.013328	60	10	60-180	60	140	GapExp	0	8	4	96	0	distractor	1	933	13.328	13.324	13.332
ProbeTrack7	9	ProbeTrack	1406	SCS215g	733716.366882	733716.367549	8	0.013328	60	10	60-180	60	77	GapExp	0	9	4	3	1	target	1	440	13.328	13.325	13.332
ProbeTrack7	9	ProbeTrack	1406	SCS215g	733716.366882	733716.367611	8	0.013328	60	10	60-180	60	165	GapExp	0	10	4	6	1	target	1	520	13.328	13.318	13.338
ProbeTrack7	9	ProbeTrack	1406	SCS215g	733716.366882	733716.367690	8	0.013328	60	10	60-180	60	159	GapExp	0	11	4	6	0	distractor	1	747	13.328	13.323	13.333
ProbeTrack7	9	ProbeTrack	1406	SCS215g	733716.366882	733716.367770	8	0.013328	60	10	60-180	60	90	GapExp	0	12	4	3	1	target	1	520	13.328	13.324	13.334
ProbeTrack7	9	ProbeTrack	1406	SCS215g	733716.366882	733716.367834	8	0.013328	60	10	60-180	60	108	GapExp	0	13	4	0	0	target	0	947	13.328	13.322	13.334
ProbeTrack7	9	ProbeTrack	1406	SCS215g	733716.366882	733716.367906	8	0.013328	60	10	60-180	60	81	GapExp	0	14	4	0	0	distractor	1	720	13.328	13.323	13.333
ProbeTrack7	9	ProbeTrack	1406	SCS215g	733716.366882	733716.367970	8	0.013328	60	10	60-180	60	121	GapExp	0	15	4	0	0	distractor	1	747	13.328	13.324	13.333
ProbeTrack7	9	ProbeTrack	1406	SCS215g	733716.366882	733716.368042	8	0.013328	60	10	60-180	60	179	GapExp	0	16	4	96	1	target	1	600	13.328	13.323	13.332
ProbeTrack7	9	ProbeTrack	1406	SCS215g	733716.366882	733716.368137	8	0.013328	60	10	60-180	60	93	GapExp	0	17	4	96	0	distractor	1	653	13.328	13.322	13.333
ProbeTrack7	9	ProbeTrack	1406	SCS215g	733716.366882	733716.368218	8	0.013328	60	10	60-180	60	118	GapExp	0	18	4	0	1	target	1	467	13.328	13.325	13.331
ProbeTrack7	9	ProbeTrack	1406	SCS215g	733716.366882	733716.368285	8	0.013328	60	10	60-180	60	82	GapExp	0	19	4	6	0	distractor	1	613	13.328	13.323	13.333
ProbeTrack7	9	ProbeTrack	1406	SCS215g	733716.366882	733716.368361	8	0.013328	60	10	60-180	60	138	GapExp	0	20	4	3	0	distractor	1	613	13.328	13.324	13.333
ProbeTrack7	9	ProbeTrack	1406	SCS215g	733716.366882	733716.368434	8	0.013328	60	10	60-180	60	64	GapExp	0	21	4	6	1	target	1	707	13.328	13.315	13.342
ProbeTrack7	9	ProbeTrack	1406	SCS215g	733716.366882	733716.368501	8	0.013328	60	10	60-180	60	62	GapExp	0	22	4	3	0	distractor	1	533	13.328	13.324	13.331
ProbeTrack7	9	ProbeTrack	1406	SCS215g	733716.366882	733716.368561	8	0.013328	60	10	60-180	60	153	GapExp	0	23	4	96	0	target	0	600	13.328	13.323	13.335
ProbeTrack7	9	ProbeTrack	1406	SCS215g	733716.366882	733716.368655	8	0.013328	60	10	60-180	60	66	GapExp	0	24	4	3	0	distractor	1	640	13.328	13.324	13.333
ProbeTrack7	9	ProbeTrack	1406	SCS215g	733716.366882	733716.368717	8	0.013328	60	10	60-180	60	69	GapExp	0	25	4	96	1	target	1	547	13.328	13.318	13.339
ProbeTrack7	9	ProbeTrack	1406	SCS215g	733716.366882	733716.368792	8	0.013328	60	10	60-180	60	62	GapExp	0	26	4	6	1	target	1	800	13.328	13.324	13.332
ProbeTrack7	9	ProbeTrack	1406	SCS215g	733716.366882	733716.368854	8	0.013328	60	10	60-180	60	106	GapExp	0	27	4	6	1	target	1	414	13.328	13.324	13.333
ProbeTrack7	9	ProbeTrack	1406	SCS215g	733716.366882	733716.368922	8	0.013328	60	10	60-180	60	167	GapExp	0	28	4	0	1	target	1	360	13.328	13.324	13.333
ProbeTrack7	9	ProbeTrack	1406	SCS215g	733716.366882	733716.368993	8	0.013328	60	10	60-180	60	140	GapExp	0	29	4	3	0	target	0	653	13.328	13.323	13.332
ProbeTrack7	9	ProbeTrack	1406	SCS215g	733716.366882	733716.369066	8	0.013328	60	10	60-180	60	125	GapExp	0	30	4	0	1	target	1	573	13.328	13.324	13.332
ProbeTrack7	9	ProbeTrack	1406	SCS215g	733716.366882	733716.369136	8	0.013328	60	10	60-180	60	175	GapExp	0	31	4	3	1	target	1	400	13.328	13.323	13.333
ProbeTrack7	9	ProbeTrack	1406	SCS215g	733716.366882	733716.369212	8	0.013328	60	10	60-180	60	88	GapExp	0	32	4	6	1	target	1	400	13.328	13.324	13.332
ProbeTrack7	9	ProbeTrack	1406	SCS215g	733716.366882	733716.369274	8	0.013328	60	10	60-180	60	155	GapExp	0	33	4	3	1	target	1	360	13.328	13.324	13.333
ProbeTrack7	9	ProbeTrack	1406	SCS215g	733716.366882	733716.369347	8	0.013328	60	10	60-180	60	88	GapExp	0	34	4	3	0	distractor	1	493	13.328	13.322	13.335
ProbeTrack7	9	ProbeTrack	1406	SCS215g	733716.366882	733716.369410	8	0.013328	60	10	60-180	60	84	GapExp	0	35	4	6	0	distractor	1	573	13.328	13.312	13.348
ProbeTrack7	9	ProbeTrack	1406	SCS215g	733716.366882	733716.369474	8	0.013328	60	10	60-180	60	168	GapExp	0	36	4	3	1	target	1	547	13.328	13.326	13.330
ProbeTrack7	9	ProbeTrack	1406	SCS215g	733716.366882	733716.369548	8	0.013328	60	10	60-180	60	107	GapExp	0	37	4	3	1	distractor	0	414	13.328	13.320	13.337
ProbeTrack7	9	ProbeTrack	1406	SCS215g	733716.366882	733716.369613	8	0.013328	60	10	60-180	60	115	GapExp	0	38	4	6	1	target	1	400	13.328	13.321	13.336
ProbeTrack7	9	ProbeTrack	1406	SCS215g	733716.366882	733716.369678	8	0.013328	60	10	60-180	60	130	GapExp	0	39	4	3	0	32	-3	627	13.328	13.325	13.332
ProbeTrack7	9	ProbeTrack	1406	SCS215g	733716.366882	733716.369750	8	0.013328	60	10	60-180	60	137	GapExp	0	40	4	0	1	target	1	467	13.328	13.322	13.334
ProbeTrack7	9	ProbeTrack	1406	SCS215g	733716.366882	733716.369822	8	0.013328	60	10	60-180	60	159	GapExp	0	41	4	6	1	target	1	480	13.328	13.323	13.332
ProbeTrack7	9	ProbeTrack	1406	SCS215g	733716.366882	733716.369900	8	0.013328	60	10	60-180	60	64	GapExp	0	42	4	0	1	target	1	560	13.328	13.307	13.348
ProbeTrack7	9	ProbeTrack	1406	SCS215g	733716.366882	733716.369960	8	0.013328	60	10	60-180	60	95	GapExp	0	43	4	96	1	target	1	520	13.328	13.325	13.332
ProbeTrack7	9	ProbeTrack	1406	SCS215g	733716.366882	733716.370039	8	0.013328	60	10	60-180	60	120	GapExp	0	44	4	0	1	target	1	467	13.328	13.324	13.332
ProbeTrack7	9	ProbeTrack	1406	SCS215g	733716.366882	733716.370107	8	0.013328	60	10	60-180	60	69	GapExp	0	45	4	6	0	distractor	1	680	13.328	13.315	13.342
ProbeTrack7	9	ProbeTrack	1406	SCS215g	733716.366882	733716.370169	8	0.013328	60	10	60-180	60	136	GapExp	0	46	4	96	1	target	1	600	13.328	13.322	13.334
ProbeTrack7	9	ProbeTrack	1406	SCS215g	733716.366882	733716.370257	8	0.013328	60	10	60-180	60	162	GapExp	0	47	4	0	1	target	1	453	13.328	13.326	13.330
ProbeTrack7	9	ProbeTrack	1406	SCS215g	733716.366882	733716.370332	8	0.013328	60	10	60-180	60	81	GapExp	0	48	4	3	0	distractor	1	573	13.328	13.326	13.331
ProbeTrack7	9	ProbeTrack	1406	SCS215g	733716.366882	733716.370394	8	0.013328	60	10	60-180	60	148	GapExp	0	49	4	96	0	distractor	1	680	13.328	13.324	13.332
ProbeTrack7	9	ProbeTrack	1406	SCS215g	733716.366882	733716.370487	8	0.013328	60	10	60-180	60	61	GapExp	0	50	4	3	1	target	1	600	13.328	13.323	13.334
ProbeTrack7	9	ProbeTrack	1406	SCS215g	733716.366882	733716.370549	8	0.013328	60	10	60-180	60	126	GapExp	0	51	4	96	1	target	1	453	13.328	13.323	13.332
ProbeTrack7	9	ProbeTrack	1406	SCS215g	733716.366882	733716.370633	8	0.013328	60	10	60-180	60	77	GapExp	0	52	4	96	1	target	1	547	13.328	13.323	13.334
ProbeTrack7	9	ProbeTrack	1406	SCS215g	733716.366882	733716.370706	8	0.013328	60	10	60-180	60	125	GapExp	0	53	4	0	0	distractor	1	560	13.328	13.314	13.342
ProbeTrack7	9	ProbeTrack	1406	SCS215g	733716.366882	733716.370774	8	0.013328	60	10	60-180	60	148	GapExp	0	54	4	0	1	target	1	414	13.328	13.323	13.334
ProbeTrack7	9	ProbeTrack	1406	SCS215g	733716.366882	733716.370850	8	0.013328	60	10	60-180	60	125	GapExp	0	55	4	96	0	distractor	1	693	13.328	13.314	13.342
ProbeTrack7	9	ProbeTrack	1406	SCS215g	733716.366882	733716.370936	8	0.013328	60	10	60-180	60	125	GapExp	0	56	4	96	0	distractor	1	547	13.328	13.323	13.334
ProbeTrack7	9	ProbeTrack	1406	SCS215g	733716.366882	733716.371021	8	0.013328	60	10	60-180	60	70	GapExp	0	57	4	0	0	distractor	1	587	13.328	13.326	13.332
ProbeTrack7	9	ProbeTrack	1406	SCS215g	733716.366882	733716.371084	8	0.013328	60	10	60-180	60	169	GapExp	0	58	4	3	1	target	1	520	13.328	13.323	13.332
ProbeTrack7	9	ProbeTrack	1406	SCS215g	733716.366882	733716.371161	8	0.013328	60	10	60-180	60	165	GapExp	0	59	4	3	1	target	1	387	13.328	13.307	13.349
ProbeTrack7	9	ProbeTrack	1406	SCS215g	733716.366882	733716.371236	8	0.013328	60	10	60-180	60	86	GapExp	0	60	4	0	0	distractor	1	560	13.328	13.322	13.333
ProbeTrack7	9	ProbeTrack	1406	SCS215g	733716.366882	733716.371300	8	0.013328	60	10	60-180	60	79	GapExp	0	61	4	96	1	distractor	0	520	13.328	13.322	13.336
ProbeTrack7	9	ProbeTrack	1406	SCS215g	733716.366882	733716.371375	8	0.013328	60	10	60-180	60	153	GapExp	0	62	4	3	0	distractor	1	533	13.328	13.323	13.333
ProbeTrack7	9	ProbeTrack	1406	SCS215g	733716.366882	733716.371450	8	0.013328	60	10	60-180	60	65	GapExp	0	63	4	3	0	distractor	1	520	13.328	13.323	13.332
ProbeTrack7	9	ProbeTrack	1406	SCS215g	733716.366882	733716.371513	8	0.013328	60	10	60-180	60	104	GapExp	0	64	4	6	0	distractor	1	653	13.328	13.323	13.332
ProbeTrack7	9	ProbeTrack	1406	SCS215g	733716.366882	733716.371581	8	0.013328	60	10	60-180	60	63	GapExp	0	65	4	96	0	distractor	1	573	13.328	13.322	13.333
ProbeTrack7	9	ProbeTrack	1406	SCS215g	733716.366882	733716.371657	8	0.013328	60	10	60-180	60	119	GapExp	0	66	4	3	1	target	1	480	13.328	13.324	13.331
ProbeTrack7	9	ProbeTrack	1406	SCS215g	733716.366882	733716.371726	8	0.013328	60	10	60-180	60	74	GapExp	0	67	4	0	1	target	1	440	13.328	13.324	13.332
ProbeTrack7	9	ProbeTrack	1406	SCS215g	733716.366882	733716.371786	8	0.013328	60	10	60-180	60	115	GapExp	0	68	4	6	0	distractor	1	733	13.328	13.322	13.334
ProbeTrack7	9	ProbeTrack	1406	SCS215g	733716.366882	733716.371855	8	0.013328	60	10	60-180	60	160	GapExp	0	69	4	6	0	distractor	1	480	13.328	13.323	13.332
ProbeTrack7	9	ProbeTrack	1406	SCS215g	733716.366882	733716.371930	8	0.013328	60	10	60-180	60	70	GapExp	0	70	4	0	0	target	0	440	13.328	13.322	13.333
ProbeTrack7	9	ProbeTrack	1406	SCS215g	733716.366882	733716.371989	8	0.013328	60	10	60-180	60	154	GapExp	0	71	4	3	0	distractor	1	520	13.328	13.324	13.333
ProbeTrack7	9	ProbeTrack	1406	SCS215g	733716.366882	733716.372063	8	0.013328	60	10	60-180	60	159	GapExp	0	72	4	3	0	distractor	1	547	13.328	13.315	13.341
ProbeTrack7	9	ProbeTrack	1406	SCS215g	733716.366882	733716.372137	8	0.013328	60	10	60-180	60	93	GapExp	0	73	4	6	1	target	1	400	13.328	13.324	13.333
ProbeTrack7	9	ProbeTrack	1406	SCS215g	733716.366882	733716.372199	8	0.013328	60	10	60-180	60	174	GapExp	0	74	4	3	0	distractor	1	533	13.328	13.324	13.333
ProbeTrack7	9	ProbeTrack	1406	SCS215g	733716.366882	733716.372280	8	0.013328	60	10	60-180	60	169	GapExp	0	75	4	0	0	distractor	1	560	13.328	13.324	13.333
ProbeTrack7	9	ProbeTrack	1406	SCS215g	733716.366882	733716.372357	8	0.013328	60	10	60-180	60	146	GapExp	0	76	4	0	1	target	1	493	13.328	13.323	13.332
ProbeTrack7	9	ProbeTrack	1406	SCS215g	733716.366882	733716.372428	8	0.013328	60	10	60-180	60	139	GapExp	0	77	4	3	1	target	1	440	13.328	13.319	13.339
ProbeTrack7	9	ProbeTrack	1406	SCS215g	733716.366882	733716.372499	8	0.013328	60	10	60-180	60	128	GapExp	0	78	4	3	1	target	1	400	13.328	13.324	13.333
ProbeTrack7	9	ProbeTrack	1406	SCS215g	733716.366882	733716.372567	8	0.013328	60	10	60-180	60	65	GapExp	0	79	4	96	0	distractor	1	533	13.328	13.324	13.332
ProbeTrack7	9	ProbeTrack	1406	SCS215g	733716.366882	733716.372641	8	0.013328	60	10	60-180	60	146	GapExp	0	80	4	6	0	distractor	1	480	13.328	13.315	13.342
ProbeTrack7	9	ProbeTrack	1406	SCS215g	733716.366882	733716.372713	8	0.013328	60	10	60-180	60	84	GapExp	0	81	4	0	0	distractor	1	533	13.328	13.323	13.333
ProbeTrack7	9	ProbeTrack	1406	SCS215g	733716.366882	733716.372776	8	0.013328	60	10	60-180	60	141	GapExp	0	82	4	96	0	distractor	1	507	13.328	13.323	13.333
ProbeTrack7	9	ProbeTrack	1406	SCS215g	733716.366882	733716.372862	8	0.013328	60	10	60-180	60	98	GapExp	0	83	4	6	0	distractor	1	414	13.328	13.323	13.334
ProbeTrack7	9	ProbeTrack	1406	SCS215g	733716.366882	733716.372927	8	0.013328	60	10	60-180	60	84	GapExp	0	84	4	3	0	distractor	1	414	13.328	13.323	13.332
ProbeTrack7	9	ProbeTrack	1406	SCS215g	733716.366882	733716.372989	8	0.013328	60	10	60-180	60	97	GapExp	0	85	4	3	0	distractor	1	427	13.328	13.325	13.333
ProbeTrack7	9	ProbeTrack	1406	SCS215g	733716.366882	733716.373051	8	0.013328	60	10	60-180	60	179	GapExp	0	86	4	0	1	target	1	507	13.328	13.323	13.335
ProbeTrack7	9	ProbeTrack	1406	SCS215g	733716.366882	733716.373129	8	0.013328	60	10	60-180	60	175	GapExp	0	87	4	6	1	distractor	0	547	13.328	13.324	13.333
ProbeTrack7	9	ProbeTrack	1406	SCS215g	733716.366882	733716.373210	8	0.013328	60	10	60-180	60	147	GapExp	0	88	4	6	1	target	1	533	13.328	13.322	13.333
ProbeTrack7	9	ProbeTrack	1406	SCS215g	733716.366882	733716.373282	8	0.013328	60	10	60-180	60	160	GapExp	0	89	4	0	0	distractor	1	693	13.328	13.323	13.333
ProbeTrack7	9	ProbeTrack	1406	SCS215g	733716.366882	733716.373358	8	0.013328	60	10	60-180	60	101	GapExp	0	90	4	96	1	target	1	507	13.328	13.322	13.333
ProbeTrack7	9	ProbeTrack	1406	SCS215g	733716.366882	733716.373455	8	0.013328	60	10	60-180	60	152	GapExp	0	91	4	96	0	target	0	667	13.328	13.324	13.332
ProbeTrack7	9	ProbeTrack	1406	SCS215g	733716.366882	733716.373556	8	0.013328	60	10	60-180	60	64	GapExp	0	92	4	96	0	distractor	1	680	13.328	13.324	13.332
ProbeTrack7	9	ProbeTrack	1406	SCS215g	733716.366882	733716.373631	8	0.013328	60	10	60-180	60	159	GapExp	0	93	4	0	1	target	1	480	13.328	13.324	13.334
ProbeTrack7	9	ProbeTrack	1406	SCS215g	733716.366882	733716.373705	8	0.013328	60	10	60-180	60	172	GapExp	0	94	4	6	0	distractor	1	520	13.328	13.324	13.333
ProbeTrack7	9	ProbeTrack	1406	SCS215g	733716.366882	733716.373785	8	0.013328	60	10	60-180	60	118	GapExp	0	95	4	96	0	distractor	1	560	13.328	13.323	13.333
ProbeTrack7	9	ProbeTrack	1406	SCS215g	733716.366882	733716.373869	8	0.013328	60	10	60-180	60	90	GapExp	0	96	4	6	0	distractor	1	547	13.328	13.325	13.333
ProbeTrack7	9	ProbeTrack	1406	SCS215g	733716.366882	733716.373932	8	0.013328	60	10	60-180	60	108	GapExp	0	97	4	6	1	target	1	707	13.328	13.324	13.332
ProbeTrack7	9	ProbeTrack	1406	SCS215g	733716.366882	733716.374001	8	0.013328	60	10	60-180	60	130	GapExp	0	98	4	6	1	target	1	747	13.328	13.323	13.333
ProbeTrack7	9	ProbeTrack	1406	SCS215g	733716.366882	733716.374073	8	0.013328	60	10	60-180	60	169	GapExp	0	99	4	0	0	distractor	1	440	13.328	13.325	13.333
ProbeTrack7	9	ProbeTrack	1406	SCS215g	733716.366882	733716.374148	8	0.013328	60	10	60-180	60	61	GapExp	0	100	4	0	1	target	1	387	13.328	13.324	13.332
ProbeTrack7	9	ProbeTrack	1406	SCS215g	733716.366882	733716.374205	8	0.013328	60	10	60-180	60	90	GapExp	0	101	4	6	0	distractor	1	613	13.328	13.322	13.334
ProbeTrack7	9	ProbeTrack	1406	SCS215g	733716.366882	733716.374269	8	0.013328	60	10	60-180	60	161	GapExp	0	102	4	96	1	target	1	667	13.328	13.314	13.343
ProbeTrack7	9	ProbeTrack	1406	SCS215g	733716.366882	733716.374361	8	0.013328	60	10	60-180	60	64	GapExp	0	103	4	96	1	target	1	587	13.328	13.324	13.332
ProbeTrack7	9	ProbeTrack	1406	SCS215g	733716.366882	733716.374435	8	0.013328	60	10	60-180	60	127	GapExp	0	104	4	96	1	target	1	440	13.328	13.324	13.332
ProbeTrack7	9	ProbeTrack	1406	SCS215g	733716.366882	733716.374518	8	0.013328	60	10	60-180	60	95	GapExp	0	105	4	96	0	target	0	533	13.328	13.325	13.332
ProbeTrack7	9	ProbeTrack	1406	SCS215g	733716.366882	733716.374595	8	0.013328	60	10	60-180	60	175	GapExp	0	106	4	3	1	target	1	480	13.328	13.319	13.337
ProbeTrack7	9	ProbeTrack	1406	SCS215g	733716.366882	733716.374676	8	0.013328	60	10	60-180	60	153	GapExp	0	107	4	3	0	target	0	640	13.328	13.305	13.352
ProbeTrack7	9	ProbeTrack	1406	SCS215g	733716.366882	733716.374749	8	0.013328	60	10	60-180	60	68	GapExp	0	108	4	0	0	target	0	733	13.328	13.310	13.347
ProbeTrack7	9	ProbeTrack	1406	SCS215g	733716.366882	733716.374813	8	0.013328	60	10	60-180	60	123	GapExp	0	109	4	0	0	distractor	1	680	13.328	13.308	13.348
ProbeTrack7	9	ProbeTrack	1406	SCS215g	733716.366882	733716.374884	8	0.013328	60	10	60-180	60	130	GapExp	0	110	4	96	0	distractor	1	600	13.328	13.324	13.333
ProbeTrack7	9	ProbeTrack	1406	SCS215g	733716.366882	733716.374969	8	0.013328	60	10	60-180	60	74	GapExp	0	111	4	6	1	target	1	454	13.328	13.325	13.330
ProbeTrack7	9	ProbeTrack	1406	SCS215g	733716.366882	733716.375029	8	0.013328	60	10	60-180	60	80	GapExp	0	112	4	96	1	target	1	653	13.328	13.323	13.332
ProbeTrack7	9	ProbeTrack	1406	SCS215g	733716.366882	733716.375107	8	0.013328	60	10	60-180	60	159	GapExp	0	113	4	0	1	target	1	400	13.328	13.322	13.334
ProbeTrack7	9	ProbeTrack	1406	SCS215g	733716.366882	733716.375184	8	0.013328	60	10	60-180	60	117	GapExp	0	114	4	0	1	target	1	414	13.328	13.324	13.332
ProbeTrack7	9	ProbeTrack	1406	SCS215g	733716.366882	733716.375257	8	0.013328	60	10	60-180	60	120	GapExp	0	115	4	96	1	target	1	520	13.328	13.325	13.332
ProbeTrack7	9	ProbeTrack	1406	SCS215g	733716.366882	733716.375349	8	0.013328	60	10	60-180	60	150	GapExp	0	116	4	96	0	distractor	1	600	13.328	13.321	13.335
ProbeTrack7	9	ProbeTrack	1406	SCS215g	733716.366882	733716.375436	8	0.013328	60	10	60-180	60	145	GapExp	0	117	4	3	1	target	1	467	13.328	13.323	13.334
ProbeTrack7	9	ProbeTrack	1406	SCS215g	733716.366882	733716.375510	8	0.013328	60	10	60-180	60	157	GapExp	0	118	4	96	1	target	1	480	13.328	13.324	13.332
ProbeTrack7	9	ProbeTrack	1406	SCS215g	733716.366882	733716.375599	8	0.013328	60	10	60-180	60	105	GapExp	0	119	4	6	1	target	1	427	13.328	13.324	13.331
ProbeTrack7	9	ProbeTrack	1406	SCS215g	733716.366882	733716.375665	8	0.013328	60	10	60-180	60	78	GapExp	0	120	4	3	1	target	1	347	13.328	13.319	13.337
ProbeTrack7	9	ProbeTrack	1406	SCS215g	733716.366882	733716.375723	8	0.013328	60	10	60-180	60	142	GapExp	0	121	4	0	0	distractor	1	507	13.328	13.323	13.334
ProbeTrack7	9	ProbeTrack	1406	SCS215g	733716.366882	733716.375793	8	0.013328	60	10	60-180	60	126	GapExp	0	122	4	6	0	distractor	1	680	13.328	13.323	13.333
ProbeTrack7	9	ProbeTrack	1406	SCS215g	733716.366882	733716.375865	8	0.013328	60	10	60-180	60	76	GapExp	0	123	4	6	0	distractor	1	494	13.328	13.324	13.332
ProbeTrack7	9	ProbeTrack	1406	SCS215g	733716.366882	733716.375926	8	0.013328	60	10	60-180	60	150	GapExp	0	124	4	96	1	target	1	573	13.328	13.324	13.333
ProbeTrack7	9	ProbeTrack	1406	SCS215g	733716.366882	733716.376014	8	0.013328	60	10	60-180	60	158	GapExp	0	125	4	6	1	target	1	613	13.328	13.318	13.337
