exp	sub	code	rev	comp	runtime	trialtime	nstim	refreshdur	cuedur	gapdur	gapOnsetRange	durPostProbe	gapOnsetTime	blocktype	prac	trial	ntargets	soa	probeTarget	resp	acc	rt	meanFrameDur	minFrameDur	maxFrameDur
ProbeTrack7	4	ProbeTrack	1404	SCS215b	733709.372154	733709.372319	8	0.013328	60	0	60-180	60	118	NoGap	1	1	4	96	1	target	1	1946	13.328	13.293	13.363
ProbeTrack7	4	ProbeTrack	1404	SCS215b	733709.372154	733709.372638	8	0.013328	60	0	60-180	60	127	NoGap	1	2	4	0	1	target	1	1933	13.328	13.293	13.368
ProbeTrack7	4	ProbeTrack	1404	SCS215b	733709.372154	733709.372780	8	0.013328	60	0	60-180	60	98	NoGap	1	3	4	6	0	distractor	1	1320	13.328	13.293	13.363
ProbeTrack7	4	ProbeTrack	1404	SCS215b	733709.372154	733709.372852	8	0.013328	60	0	60-180	60	113	NoGap	1	4	4	0	0	target	0	1346	13.328	13.293	13.363
ProbeTrack7	4	ProbeTrack	1404	SCS215b	733709.372154	733709.372922	8	0.013328	60	0	60-180	60	139	NoGap	1	5	4	96	0	distractor	1	1213	13.328	13.293	13.364
ProbeTrack7	4	ProbeTrack	1404	SCS215b	733709.372154	733709.373007	8	0.013328	60	0	60-180	60	166	NoGap	1	6	4	6	1	distractor	0	1400	13.328	13.290	13.363
ProbeTrack7	4	ProbeTrack	1404	SCS215b	733709.372154	733709.373080	8	0.013328	60	0	60-180	60	121	NoGap	1	7	4	3	1	target	1	1107	13.328	13.293	13.363
ProbeTrack7	4	ProbeTrack	1404	SCS215b	733709.372154	733709.373145	8	0.013328	60	0	60-180	60	63	NoGap	1	8	4	3	1	target	1	1120	13.328	13.293	13.363
ProbeTrack7	4	ProbeTrack	1404	SCS215b	733709.372154	733709.373204	8	0.013328	60	0	60-180	60	78	NoGap	1	9	4	3	0	target	0	1160	13.328	13.293	13.363
ProbeTrack7	4	ProbeTrack	1404	SCS215b	733709.372154	733709.373259	8	0.013328	60	0	60-180	60	75	NoGap	1	10	4	6	0	distractor	1	1226	13.328	13.293	13.363
ProbeTrack7	4	ProbeTrack	1404	SCS215b	733709.372154	733709.373321	8	0.013328	60	0	60-180	60	96	NoGap	1	11	4	0	1	target	1	1040	13.328	13.293	13.363
ProbeTrack7	4	ProbeTrack	1404	SCS215b	733709.372154	733709.373393	8	0.013328	60	0	60-180	60	157	NoGap	1	12	4	3	0	target	0	1146	13.328	13.293	13.363
ProbeTrack7	4	ProbeTrack	1404	SCS215b	733709.372154	733709.373463	8	0.013328	60	0	60-180	60	123	NoGap	1	13	4	0	1	target	1	1026	13.328	13.293	13.363
ProbeTrack7	4	ProbeTrack	1404	SCS215b	733709.372154	733709.373567	8	0.013328	60	0	60-180	60	91	NoGap	1	14	4	96	0	distractor	1	1026	13.328	13.293	13.363
ProbeTrack7	4	ProbeTrack	1404	SCS215b	733709.372154	733709.373645	8	0.013328	60	0	60-180	60	178	NoGap	1	15	4	6	1	distractor	0	987	13.328	13.293	13.363
ProbeTrack7	4	ProbeTrack	1404	SCS215b	733709.372154	733709.373724	8	0.013328	60	0	60-180	60	67	NoGap	1	16	4	3	0	distractor	1	1053	13.328	13.293	13.364
ProbeTrack7	4	ProbeTrack	1404	SCS215b	733709.372154	733709.373779	8	0.013328	60	0	60-180	60	71	NoGap	1	17	4	0	0	distractor	1	1053	13.328	13.293	13.363
ProbeTrack7	4	ProbeTrack	1404	SCS215b	733709.372154	733709.373845	8	0.013328	60	0	60-180	60	123	NoGap	1	18	4	0	0	distractor	1	1040	13.328	13.293	13.363
ProbeTrack7	4	ProbeTrack	1404	SCS215b	733709.372154	733709.373922	8	0.013328	60	0	60-180	60	125	NoGap	1	19	4	0	1	distractor	0	1200	13.328	13.292	13.363
ProbeTrack7	4	ProbeTrack	1404	SCS215b	733709.372154	733709.373988	8	0.013328	60	0	60-180	60	86	NoGap	1	20	4	96	0	distractor	1	1000	13.328	13.293	13.364
ProbeTrack7	4	ProbeTrack	1404	SCS215b	733709.372154	733709.374061	8	0.013328	60	0	60-180	60	76	NoGap	1	21	4	96	1	distractor	0	1067	13.328	13.293	13.363
ProbeTrack7	4	ProbeTrack	1404	SCS215b	733709.372154	733709.374132	8	0.013328	60	0	60-180	60	97	NoGap	1	22	4	6	1	target	1	1040	13.328	13.293	13.363
ProbeTrack7	4	ProbeTrack	1404	SCS215b	733709.372154	733709.374200	8	0.013328	60	0	60-180	60	138	NoGap	1	23	4	0	0	target	0	1333	13.328	13.293	13.363
ProbeTrack7	4	ProbeTrack	1404	SCS215b	733709.372154	733709.374278	8	0.013328	60	0	60-180	60	153	NoGap	1	24	4	3	1	distractor	0	1040	13.452	13.287	40.059
ProbeTrack7	4	ProbeTrack	1404	SCS215b	733709.372154	733709.374360	8	0.013328	60	0	60-180	60	73	NoGap	1	25	4	96	0	distractor	1	1040	13.328	13.293	13.363
ProbeTrack7	4	ProbeTrack	1404	SCS215b	733709.372154	733709.374436	8	0.013328	60	0	60-180	60	125	NoGap	1	26	4	0	1	target	1	1213	13.328	13.293	13.363
ProbeTrack7	4	ProbeTrack	1404	SCS215b	733709.372154	733709.374510	8	0.013328	60	0	60-180	60	108	NoGap	1	27	4	3	1	target	1	1040	13.328	13.293	13.363
ProbeTrack7	4	ProbeTrack	1404	SCS215b	733709.372154	733709.374577	8	0.013328	60	0	60-180	60	65	NoGap	1	28	4	6	0	target	0	1133	13.328	13.293	13.363
ProbeTrack7	4	ProbeTrack	1404	SCS215b	733709.372154	733709.374639	8	0.013328	60	0	60-180	60	62	NoGap	1	29	4	3	1	target	1	1306	13.328	13.294	13.363
ProbeTrack7	4	ProbeTrack	1404	SCS215b	733709.372154	733709.374697	8	0.013328	60	0	60-180	60	129	NoGap	1	30	4	3	0	target	0	1333	13.328	13.293	13.363
ProbeTrack7	4	ProbeTrack	1404	SCS215b	733709.372154	733709.374771	8	0.013328	60	0	60-180	60	94	NoGap	1	31	4	0	1	target	1	1320	13.328	13.293	13.363
ProbeTrack7	4	ProbeTrack	1404	SCS215b	733709.372154	733709.374836	8	0.013328	60	0	60-180	60	83	NoGap	1	32	4	96	0	distractor	1	653	13.328	13.293	13.363
ProbeTrack7	4	ProbeTrack	1404	SCS215b	733709.372154	733709.374910	8	0.013328	60	0	60-180	60	95	NoGap	1	33	4	3	1	target	1	480	13.328	13.293	13.365
ProbeTrack7	4	ProbeTrack	1404	SCS215b	733709.372154	733709.374990	8	0.013328	60	0	60-180	60	170	NoGap	1	34	4	6	1	target	1	560	13.328	13.292	13.364
ProbeTrack7	4	ProbeTrack	1404	SCS215b	733709.372154	733709.375061	8	0.013328	60	0	60-180	60	111	NoGap	1	35	4	6	0	target	0	600	13.328	13.293	13.363
ProbeTrack7	4	ProbeTrack	1404	SCS215b	733709.372154	733709.375120	8	0.013328	60	0	60-180	60	168	NoGap	1	36	4	0	0	target	0	453	13.328	13.293	13.363
ProbeTrack7	4	ProbeTrack	1404	SCS215b	733709.372154	733709.375186	8	0.013328	60	0	60-180	60	126	NoGap	1	37	4	3	0	distractor	1	613	13.328	13.293	13.363
ProbeTrack7	4	ProbeTrack	1404	SCS215b	733709.372154	733709.375245	8	0.013328	60	0	60-180	60	128	NoGap	1	38	4	96	1	target	1	613	13.328	13.293	13.364
ProbeTrack7	4	ProbeTrack	1404	SCS215b	733709.372154	733709.375326	8	0.013328	60	0	60-180	60	127	NoGap	1	39	4	6	1	distractor	0	840	13.328	13.293	13.363
ProbeTrack7	4	ProbeTrack	1404	SCS215b	733709.372154	733709.375395	8	0.013328	60	0	60-180	60	87	NoGap	1	40	4	6	0	distractor	1	573	13.328	13.293	13.363
ProbeTrack7	4	ProbeTrack	1404	SCS215b	733709.372154	733709.375457	8	0.013328	60	0	60-180	60	156	NoGap	1	41	4	6	1	target	1	493	13.328	13.293	13.363
ProbeTrack7	4	ProbeTrack	1404	SCS215b	733709.372154	733709.375548	8	0.013328	60	0	60-180	60	162	NoGap	1	42	4	96	0	distractor	1	427	13.328	13.293	13.363
ProbeTrack7	4	ProbeTrack	1404	SCS215b	733709.372154	733709.375647	8	0.013328	60	0	60-180	60	83	NoGap	1	43	4	0	0	distractor	1	547	13.328	13.293	13.363
ProbeTrack7	4	ProbeTrack	1404	SCS215b	733709.372154	733709.375736	8	0.013328	60	0	60-180	60	86	NoGap	1	44	4	96	1	distractor	0	467	13.328	13.293	13.363
ProbeTrack7	4	ProbeTrack	1404	SCS215b	733709.372154	733709.375821	8	0.013328	60	0	60-180	60	107	NoGap	1	45	4	6	0	distractor	1	747	13.328	13.293	13.363
ProbeTrack7	4	ProbeTrack	1404	SCS215b	733709.372154	733709.375889	8	0.013328	60	0	60-180	60	67	NoGap	1	46	4	6	0	distractor	1	573	13.328	13.293	13.363
ProbeTrack7	4	ProbeTrack	1404	SCS215b	733709.372154	733709.375947	8	0.013328	60	0	60-180	60	109	NoGap	1	47	4	96	1	target	1	520	13.328	13.293	13.363
ProbeTrack7	4	ProbeTrack	1404	SCS215b	733709.372154	733709.376033	8	0.013328	60	0	60-180	60	78	NoGap	1	48	4	3	0	distractor	1	507	13.328	13.293	13.363
ProbeTrack7	4	ProbeTrack	1404	SCS215b	733709.372154	733709.376090	8	0.013328	60	0	60-180	60	90	NoGap	1	49	4	96	1	target	1	507	13.328	13.293	13.363
ProbeTrack7	4	ProbeTrack	1404	SCS215b	733709.372154	733709.376174	8	0.013328	60	0	60-180	60	123	NoGap	1	50	4	3	1	target	1	467	13.328	13.293	13.363
ProbeTrack7	4	ProbeTrack	1404	SCS215b	733709.377503	733709.377617	8	0.013328	60	10	60-180	60	97	GapPrac	1	1	4	96	0	distractor	1	480	13.328	13.293	13.366
ProbeTrack7	4	ProbeTrack	1404	SCS215b	733709.377503	733709.377724	8	0.013328	60	10	60-180	60	164	GapPrac	1	2	4	0	0	distractor	1	493	13.328	13.293	13.364
ProbeTrack7	4	ProbeTrack	1404	SCS215b	733709.377503	733709.377806	8	0.013328	60	10	60-180	60	161	GapPrac	1	3	4	3	0	target	0	480	13.328	13.293	13.363
ProbeTrack7	4	ProbeTrack	1404	SCS215b	733709.377503	733709.377875	8	0.013328	60	10	60-180	60	92	GapPrac	1	4	4	96	1	target	1	600	13.328	13.293	13.363
ProbeTrack7	4	ProbeTrack	1404	SCS215b	733709.377503	733709.377949	8	0.013328	60	10	60-180	60	79	GapPrac	1	5	4	0	1	target	1	467	13.328	13.290	13.363
ProbeTrack7	4	ProbeTrack	1404	SCS215b	733709.377503	733709.378005	8	0.013328	60	10	60-180	60	109	GapPrac	1	6	4	6	1	distractor	0	467	13.328	13.292	13.364
ProbeTrack7	4	ProbeTrack	1404	SCS215b	733709.377503	733709.378066	8	0.013328	60	10	60-180	60	152	GapPrac	1	7	4	3	0	target	0	587	13.328	13.293	13.363
ProbeTrack7	4	ProbeTrack	1404	SCS215b	733709.377503	733709.378128	8	0.013328	60	10	60-180	60	148	GapPrac	1	8	4	0	0	distractor	1	560	13.328	13.293	13.363
ProbeTrack7	4	ProbeTrack	1404	SCS215b	733709.377503	733709.378196	8	0.013328	60	10	60-180	60	97	GapPrac	1	9	4	96	1	target	1	520	13.328	13.293	13.363
ProbeTrack7	4	ProbeTrack	1404	SCS215b	733709.377503	733709.378265	8	0.013328	60	10	60-180	60	141	GapPrac	1	10	4	6	0	target	0	573	13.328	13.293	13.363
ProbeTrack7	4	ProbeTrack	1404	SCS215b	733709.377503	733709.378331	8	0.013328	60	10	60-180	60	71	GapPrac	1	11	4	96	0	distractor	1	587	13.328	13.293	13.363
ProbeTrack7	4	ProbeTrack	1404	SCS215b	733709.377503	733709.378397	8	0.013328	60	10	60-180	60	84	GapPrac	1	12	4	6	1	target	1	573	13.328	13.293	13.368
ProbeTrack7	4	ProbeTrack	1404	SCS215b	733709.377503	733709.378459	8	0.013328	60	10	60-180	60	158	GapPrac	1	13	4	3	0	target	0	374	13.328	13.293	13.363
ProbeTrack7	4	ProbeTrack	1404	SCS215b	733709.377503	733709.378530	8	0.013328	60	10	60-180	60	87	GapPrac	1	14	4	96	1	distractor	0	520	13.328	13.293	13.363
ProbeTrack7	4	ProbeTrack	1404	SCS215b	733709.377503	733709.378601	8	0.013328	60	10	60-180	60	62	GapPrac	1	15	4	0	0	distractor	1	573	13.328	13.293	13.363
ProbeTrack7	4	ProbeTrack	1404	SCS215b	733709.377503	733709.378653	8	0.013328	60	10	60-180	60	72	GapPrac	1	16	4	96	0	distractor	1	467	13.328	13.293	13.363
ProbeTrack7	4	ProbeTrack	1404	SCS215b	733709.377503	733709.378721	8	0.013328	60	10	60-180	60	129	GapPrac	1	17	4	6	0	distractor	1	533	13.328	13.293	13.363
ProbeTrack7	4	ProbeTrack	1404	SCS215b	733709.377503	733709.378784	8	0.013328	60	10	60-180	60	77	GapPrac	1	18	4	3	1	target	1	440	13.328	13.293	13.363
ProbeTrack7	4	ProbeTrack	1404	SCS215b	733709.377503	733709.378840	8	0.013328	60	10	60-180	60	127	GapPrac	1	19	4	3	1	target	1	560	13.328	13.293	13.363
ProbeTrack7	4	ProbeTrack	1404	SCS215b	733709.377503	733709.378904	8	0.013328	60	10	60-180	60	142	GapPrac	1	20	4	0	1	target	1	413	13.328	13.293	13.363
ProbeTrack7	4	ProbeTrack	1404	SCS215b	733709.379589	733709.379634	8	0.013328	60	10	60-180	60	147	GapPrac	1	1	4	96	0	distractor	1	573	13.328	13.293	13.363
ProbeTrack7	4	ProbeTrack	1404	SCS215b	733709.379589	733709.379742	8	0.013328	60	10	60-180	60	147	GapPrac	1	2	4	6	1	target	1	453	13.328	13.293	13.363
ProbeTrack7	4	ProbeTrack	1404	SCS215b	733709.379589	733709.379809	8	0.013328	60	10	60-180	60	177	GapPrac	1	3	4	0	1	target	1	440	13.328	13.293	13.363
ProbeTrack7	4	ProbeTrack	1404	SCS215b	733709.379589	733709.379881	8	0.013328	60	10	60-180	60	89	GapPrac	1	4	4	6	0	distractor	1	413	13.328	13.293	13.363
ProbeTrack7	4	ProbeTrack	1404	SCS215b	733709.379589	733709.379941	8	0.013328	60	10	60-180	60	85	GapPrac	1	5	4	0	1	32	-3	427	13.328	13.293	13.363
ProbeTrack7	4	ProbeTrack	1404	SCS215b	733709.379589	733709.379992	8	0.013328	60	10	60-180	60	94	GapPrac	1	6	4	96	1	distractor	0	533	13.328	13.293	13.363
ProbeTrack7	4	ProbeTrack	1404	SCS215b	733709.379589	733709.380066	8	0.013328	60	10	60-180	60	67	GapPrac	1	7	4	0	0	target	0	720	13.328	13.293	13.363
ProbeTrack7	4	ProbeTrack	1404	SCS215b	733709.379589	733709.380122	8	0.013328	60	10	60-180	60	172	GapPrac	1	8	4	3	1	target	1	480	13.328	13.293	13.363
ProbeTrack7	4	ProbeTrack	1404	SCS215b	733709.379589	733709.380191	8	0.013328	60	10	60-180	60	165	GapPrac	1	9	4	6	1	target	1	374	13.328	13.293	13.363
ProbeTrack7	4	ProbeTrack	1404	SCS215b	733709.379589	733709.380261	8	0.013328	60	10	60-180	60	110	GapPrac	1	10	4	3	0	distractor	1	480	13.328	13.292	13.363
ProbeTrack7	4	ProbeTrack	1404	SCS215b	733709.379589	733709.380326	8	0.013328	60	10	60-180	60	117	GapPrac	1	11	4	3	1	target	1	360	13.328	13.293	13.363
ProbeTrack7	4	ProbeTrack	1404	SCS215b	733709.379589	733709.380386	8	0.013328	60	10	60-180	60	146	GapPrac	1	12	4	96	0	distractor	1	600	13.328	13.293	13.364
ProbeTrack7	4	ProbeTrack	1404	SCS215b	733709.379589	733709.380473	8	0.013328	60	10	60-180	60	112	GapPrac	1	13	4	6	1	target	1	360	13.328	13.293	13.364
ProbeTrack7	4	ProbeTrack	1404	SCS215b	733709.379589	733709.380533	8	0.013328	60	10	60-180	60	68	GapPrac	1	14	4	96	1	distractor	0	573	13.328	13.293	13.363
ProbeTrack7	4	ProbeTrack	1404	SCS215b	733709.379589	733709.380601	8	0.013328	60	10	60-180	60	119	GapPrac	1	15	4	96	0	distractor	1	400	13.328	13.293	13.364
ProbeTrack7	4	ProbeTrack	1404	SCS215b	733709.379589	733709.380672	8	0.013328	60	10	60-180	60	107	GapPrac	1	16	4	6	0	target	0	320	13.328	13.293	13.363
ProbeTrack7	4	ProbeTrack	1404	SCS215b	733709.379589	733709.380731	8	0.013328	60	10	60-180	60	158	GapPrac	1	17	4	6	0	distractor	1	507	13.328	13.293	13.363
ProbeTrack7	4	ProbeTrack	1404	SCS215b	733709.379589	733709.380803	8	0.013328	60	10	60-180	60	131	GapPrac	1	18	4	3	0	distractor	1	493	13.328	13.293	13.363
ProbeTrack7	4	ProbeTrack	1404	SCS215b	733709.379589	733709.380870	8	0.013328	60	10	60-180	60	89	GapPrac	1	19	4	0	1	target	1	520	13.328	13.293	13.364
ProbeTrack7	4	ProbeTrack	1404	SCS215b	733709.379589	733709.380935	8	0.013328	60	10	60-180	60	108	GapPrac	1	20	4	0	0	distractor	1	507	13.328	13.292	13.363
ProbeTrack7	4	ProbeTrack	1404	SCS215b	733709.381547	733709.381639	8	0.013327	60	10	60-180	60	157	GapPrac	1	1	4	0	0	distractor	1	427	13.328	13.293	13.363
ProbeTrack7	4	ProbeTrack	1404	SCS215b	733709.381547	733709.381718	8	0.013327	60	10	60-180	60	135	GapPrac	1	2	4	3	1	target	1	520	13.328	13.293	13.363
ProbeTrack7	4	ProbeTrack	1404	SCS215b	733709.381547	733709.381812	8	0.013327	60	10	60-180	60	112	GapPrac	1	3	4	6	1	target	1	400	13.328	13.293	13.363
ProbeTrack7	4	ProbeTrack	1404	SCS215b	733709.381547	733709.381911	8	0.013327	60	10	60-180	60	129	GapPrac	1	4	4	96	1	distractor	0	467	13.328	13.293	13.363
ProbeTrack7	4	ProbeTrack	1404	SCS215b	733709.381547	733709.382002	8	0.013327	60	10	60-180	60	73	GapPrac	1	5	4	3	1	target	1	414	13.328	13.293	13.363
ProbeTrack7	4	ProbeTrack	1404	SCS215b	733709.381547	733709.382056	8	0.013327	60	10	60-180	60	125	GapPrac	1	6	4	0	1	target	1	467	13.328	13.293	13.363
ProbeTrack7	4	ProbeTrack	1404	SCS215b	733709.381547	733709.382123	8	0.013327	60	10	60-180	60	92	GapPrac	1	7	4	6	1	target	1	387	13.328	13.293	13.363
ProbeTrack7	4	ProbeTrack	1404	SCS215b	733709.381547	733709.382181	8	0.013327	60	10	60-180	60	159	GapPrac	1	8	4	96	0	target	0	667	13.328	13.293	13.363
ProbeTrack7	4	ProbeTrack	1404	SCS215b	733709.381547	733709.382266	8	0.013327	60	10	60-180	60	98	GapPrac	1	9	4	3	0	target	0	414	13.328	13.293	13.364
ProbeTrack7	4	ProbeTrack	1404	SCS215b	733709.381547	733709.382326	8	0.013327	60	10	60-180	60	90	GapPrac	1	10	4	0	1	target	1	507	13.328	13.294	13.362
ProbeTrack7	4	ProbeTrack	1404	SCS215b	733709.381547	733709.382386	8	0.013327	60	10	60-180	60	89	GapPrac	1	11	4	6	0	distractor	1	360	13.328	13.293	13.363
ProbeTrack7	4	ProbeTrack	1404	SCS215b	733709.381547	733709.382454	8	0.013327	60	10	60-180	60	94	GapPrac	1	12	4	3	1	target	1	400	13.328	13.293	13.363
ProbeTrack7	4	ProbeTrack	1404	SCS215b	733709.381547	733709.382512	8	0.013327	60	10	60-180	60	83	GapPrac	1	13	4	96	1	target	1	493	13.328	13.293	13.363
ProbeTrack7	4	ProbeTrack	1404	SCS215b	733709.381547	733709.382594	8	0.013327	60	10	60-180	60	75	GapPrac	1	14	4	6	0	distractor	1	520	13.328	13.293	13.363
ProbeTrack7	4	ProbeTrack	1404	SCS215b	733709.381547	733709.382651	8	0.013327	60	10	60-180	60	180	GapPrac	1	15	4	0	0	distractor	1	520	13.328	13.293	13.363
ProbeTrack7	4	ProbeTrack	1404	SCS215b	733709.381547	733709.382722	8	0.013327	60	10	60-180	60	93	GapPrac	1	16	4	3	0	target	0	440	13.328	13.294	13.363
ProbeTrack7	4	ProbeTrack	1404	SCS215b	733709.381547	733709.382783	8	0.013327	60	10	60-180	60	72	GapPrac	1	17	4	0	0	distractor	1	387	13.328	13.293	13.363
ProbeTrack7	4	ProbeTrack	1404	SCS215b	733709.381547	733709.382836	8	0.013327	60	10	60-180	60	147	GapPrac	1	18	4	6	1	distractor	0	467	13.328	13.293	13.363
ProbeTrack7	4	ProbeTrack	1404	SCS215b	733709.381547	733709.382911	8	0.013327	60	10	60-180	60	78	GapPrac	1	19	4	96	1	target	1	414	13.328	13.293	13.363
ProbeTrack7	4	ProbeTrack	1404	SCS215b	733709.381547	733709.382982	8	0.013327	60	10	60-180	60	82	GapPrac	1	20	4	96	0	distractor	1	600	13.328	13.293	13.363
ProbeTrack7	4	ProbeTrack	1404	SCS215b	733709.383975	733709.384044	8	0.013328	60	10	60-180	60	95	GapExp	1	1	4	0	1	target	1	560	13.328	13.290	13.363
ProbeTrack7	4	ProbeTrack	1404	SCS215b	733709.383975	733709.384123	8	0.013328	60	10	60-180	60	145	GapExp	1	2	4	3	1	target	1	587	13.328	13.293	13.363
ProbeTrack7	4	ProbeTrack	1404	SCS215b	733709.383975	733709.384212	8	0.013328	60	10	60-180	60	89	GapExp	1	3	4	96	0	distractor	1	613	13.328	13.293	13.363
ProbeTrack7	4	ProbeTrack	1404	SCS215b	733709.383975	733709.384286	8	0.013328	60	10	60-180	60	99	GapExp	1	4	4	6	0	target	0	453	13.328	13.293	13.363
ProbeTrack7	4	ProbeTrack	1404	SCS215b	733709.383975	733709.384345	8	0.013328	60	10	60-180	60	176	GapExp	1	5	4	96	1	distractor	0	440	13.328	13.292	13.363
ProbeTrack7	4	ProbeTrack	1404	SCS215b	733709.383975	733709.384431	8	0.013328	60	10	60-180	60	73	GapExp	0	6	4	6	0	distractor	1	587	13.328	13.293	13.363
ProbeTrack7	4	ProbeTrack	1404	SCS215b	733709.383975	733709.384484	8	0.013328	60	10	60-180	60	127	GapExp	0	7	4	0	1	target	1	467	13.328	13.293	13.366
ProbeTrack7	4	ProbeTrack	1404	SCS215b	733709.383975	733709.384548	8	0.013328	60	10	60-180	60	166	GapExp	0	8	4	0	1	distractor	0	1026	13.328	13.293	13.363
ProbeTrack7	4	ProbeTrack	1404	SCS215b	733709.383975	733709.384626	8	0.013328	60	10	60-180	60	96	GapExp	0	9	4	0	1	target	1	413	13.328	13.293	13.363
ProbeTrack7	4	ProbeTrack	1404	SCS215b	733709.383975	733709.384682	8	0.013328	60	10	60-180	60	153	GapExp	0	10	4	96	0	target	0	467	13.328	13.293	13.363
ProbeTrack7	4	ProbeTrack	1404	SCS215b	733709.383975	733709.384761	8	0.013328	60	10	60-180	60	139	GapExp	0	11	4	96	1	target	1	533	13.328	13.293	13.363
ProbeTrack7	4	ProbeTrack	1404	SCS215b	733709.383975	733709.384850	8	0.013328	60	10	60-180	60	116	GapExp	0	12	4	0	1	distractor	0	400	13.328	13.293	13.363
ProbeTrack7	4	ProbeTrack	1404	SCS215b	733709.383975	733709.384910	8	0.013328	60	10	60-180	60	115	GapExp	0	13	4	3	0	target	0	414	13.328	13.293	13.363
ProbeTrack7	4	ProbeTrack	1404	SCS215b	733709.383975	733709.384972	8	0.013328	60	10	60-180	60	136	GapExp	0	14	4	96	0	target	0	267	13.328	13.292	13.363
ProbeTrack7	4	ProbeTrack	1404	SCS215b	733709.383975	733709.385048	8	0.013328	60	10	60-180	60	118	GapExp	0	15	4	0	0	distractor	1	613	13.328	13.293	13.363
ProbeTrack7	4	ProbeTrack	1404	SCS215b	733709.383975	733709.385107	8	0.013328	60	10	60-180	60	164	GapExp	0	16	4	96	0	distractor	1	573	13.328	13.292	13.363
ProbeTrack7	4	ProbeTrack	1404	SCS215b	733709.383975	733709.385204	8	0.013328	60	10	60-180	60	168	GapExp	0	17	4	0	0	target	0	467	13.328	13.293	13.363
ProbeTrack7	4	ProbeTrack	1404	SCS215b	733709.383975	733709.385275	8	0.013328	60	10	60-180	60	108	GapExp	0	18	4	0	0	distractor	1	587	13.328	13.293	13.363
ProbeTrack7	4	ProbeTrack	1404	SCS215b	733709.383975	733709.385335	8	0.013328	60	10	60-180	60	174	GapExp	0	19	4	6	1	target	1	413	13.328	13.293	13.363
ProbeTrack7	4	ProbeTrack	1404	SCS215b	733709.383975	733709.385428	8	0.013328	60	10	60-180	60	62	GapExp	0	20	4	0	0	distractor	1	547	13.328	13.293	13.363
ProbeTrack7	4	ProbeTrack	1404	SCS215b	733709.383975	733709.385490	8	0.013328	60	10	60-180	60	104	GapExp	0	21	4	0	0	distractor	1	467	13.328	13.293	13.363
ProbeTrack7	4	ProbeTrack	1404	SCS215b	733709.383975	733709.385551	8	0.013328	60	10	60-180	60	149	GapExp	0	22	4	96	0	distractor	1	387	13.328	13.293	13.363
ProbeTrack7	4	ProbeTrack	1404	SCS215b	733709.383975	733709.385738	8	0.013328	60	10	60-180	60	121	GapExp	0	23	4	3	0	distractor	1	387	13.328	13.293	13.363
ProbeTrack7	4	ProbeTrack	1404	SCS215b	733709.383975	733709.385824	8	0.013328	60	10	60-180	60	70	GapExp	0	24	4	96	0	distractor	1	680	13.328	13.293	13.363
ProbeTrack7	4	ProbeTrack	1404	SCS215b	733709.383975	733709.385904	8	0.013328	60	10	60-180	60	114	GapExp	0	25	4	3	0	distractor	1	613	13.328	13.294	13.363
ProbeTrack7	4	ProbeTrack	1404	SCS215b	733709.383975	733709.385975	8	0.013328	60	10	60-180	60	160	GapExp	0	26	4	6	1	distractor	0	307	13.328	13.292	13.363
ProbeTrack7	4	ProbeTrack	1404	SCS215b	733709.383975	733709.386043	8	0.013328	60	10	60-180	60	113	GapExp	0	27	4	0	1	target	1	427	13.328	13.293	13.365
ProbeTrack7	4	ProbeTrack	1404	SCS215b	733709.383975	733709.386096	8	0.013328	60	10	60-180	60	162	GapExp	0	28	4	3	1	target	1	560	13.328	13.293	13.363
ProbeTrack7	4	ProbeTrack	1404	SCS215b	733709.383975	733709.386165	8	0.013328	60	10	60-180	60	106	GapExp	0	29	4	0	1	distractor	0	440	13.328	13.292	13.363
ProbeTrack7	4	ProbeTrack	1404	SCS215b	733709.383975	733709.386226	8	0.013328	60	10	60-180	60	64	GapExp	0	30	4	96	1	target	1	467	13.328	13.293	13.363
ProbeTrack7	4	ProbeTrack	1404	SCS215b	733709.383975	733709.386293	8	0.013328	60	10	60-180	60	146	GapExp	0	31	4	96	1	target	1	414	13.328	13.293	13.363
ProbeTrack7	4	ProbeTrack	1404	SCS215b	733709.383975	733709.386376	8	0.013328	60	10	60-180	60	105	GapExp	0	32	4	3	0	distractor	1	413	13.328	13.293	13.364
ProbeTrack7	4	ProbeTrack	1404	SCS215b	733709.383975	733709.386439	8	0.013328	60	10	60-180	60	180	GapExp	0	33	4	6	0	distractor	1	440	13.328	13.292	13.363
ProbeTrack7	4	ProbeTrack	1404	SCS215b	733709.383975	733709.386510	8	0.013328	60	10	60-180	60	167	GapExp	0	34	4	3	0	target	0	413	13.328	13.292	13.363
ProbeTrack7	4	ProbeTrack	1404	SCS215b	733709.383975	733709.386578	8	0.013328	60	10	60-180	60	147	GapExp	0	35	4	3	1	distractor	0	347	13.328	13.293	13.363
ProbeTrack7	4	ProbeTrack	1404	SCS215b	733709.383975	733709.386641	8	0.013328	60	10	60-180	60	93	GapExp	0	36	4	6	0	distractor	1	587	13.328	13.293	13.363
ProbeTrack7	4	ProbeTrack	1404	SCS215b	733709.383975	733709.386703	8	0.013328	60	10	60-180	60	72	GapExp	0	37	4	3	0	target	0	480	13.328	13.293	13.363
ProbeTrack7	4	ProbeTrack	1404	SCS215b	733709.383975	733709.386757	8	0.013328	60	10	60-180	60	83	GapExp	0	38	4	0	1	distractor	0	440	13.328	13.293	13.363
ProbeTrack7	4	ProbeTrack	1404	SCS215b	733709.383975	733709.386813	8	0.013328	60	10	60-180	60	83	GapExp	0	39	4	6	1	distractor	0	493	13.328	13.293	13.363
ProbeTrack7	4	ProbeTrack	1404	SCS215b	733709.383975	733709.386871	8	0.013328	60	10	60-180	60	119	GapExp	0	40	4	3	0	distractor	1	467	13.328	13.293	13.363
ProbeTrack7	4	ProbeTrack	1404	SCS215b	733709.383975	733709.386933	8	0.013328	60	10	60-180	60	162	GapExp	0	41	4	3	1	distractor	0	440	13.328	13.293	13.363
ProbeTrack7	4	ProbeTrack	1404	SCS215b	733709.383975	733709.387001	8	0.013328	60	10	60-180	60	163	GapExp	0	42	4	6	1	target	1	680	13.328	13.293	13.363
ProbeTrack7	4	ProbeTrack	1404	SCS215b	733709.383975	733709.387135	8	0.013328	60	10	60-180	60	115	GapExp	0	43	4	0	1	target	1	520	13.328	13.293	13.363
ProbeTrack7	4	ProbeTrack	1404	SCS215b	733709.383975	733709.387205	8	0.013328	60	10	60-180	60	167	GapExp	0	44	4	3	0	target	0	547	13.328	13.293	13.363
ProbeTrack7	4	ProbeTrack	1404	SCS215b	733709.383975	733709.387276	8	0.013328	60	10	60-180	60	139	GapExp	0	45	4	6	1	distractor	0	387	13.328	13.294	13.363
ProbeTrack7	4	ProbeTrack	1404	SCS215b	733709.383975	733709.387353	8	0.013328	60	10	60-180	60	110	GapExp	0	46	4	6	1	target	1	347	13.328	13.294	13.363
ProbeTrack7	4	ProbeTrack	1404	SCS215b	733709.383975	733709.387410	8	0.013328	60	10	60-180	60	67	GapExp	0	47	4	6	1	target	1	427	13.328	13.293	13.363
ProbeTrack7	4	ProbeTrack	1404	SCS215b	733709.383975	733709.387468	8	0.013328	60	10	60-180	60	135	GapExp	0	48	4	6	1	target	1	480	13.328	13.293	13.363
ProbeTrack7	4	ProbeTrack	1404	SCS215b	733709.383975	733709.387532	8	0.013328	60	10	60-180	60	151	GapExp	0	49	4	6	1	target	1	507	13.328	13.293	13.363
ProbeTrack7	4	ProbeTrack	1404	SCS215b	733709.383975	733709.387598	8	0.013328	60	10	60-180	60	61	GapExp	0	50	4	6	0	distractor	1	467	13.328	13.293	13.363
ProbeTrack7	4	ProbeTrack	1404	SCS215b	733709.383975	733709.387647	8	0.013328	60	10	60-180	60	107	GapExp	0	51	4	6	0	target	0	427	13.328	13.289	13.367
ProbeTrack7	4	ProbeTrack	1404	SCS215b	733709.383975	733709.387706	8	0.013328	60	10	60-180	60	155	GapExp	0	52	4	0	1	distractor	0	440	13.328	13.293	13.363
ProbeTrack7	4	ProbeTrack	1404	SCS215b	733709.383975	733709.387772	8	0.013328	60	10	60-180	60	179	GapExp	0	53	4	3	0	target	0	400	13.328	13.293	13.363
ProbeTrack7	4	ProbeTrack	1404	SCS215b	733709.383975	733709.387838	8	0.013328	60	10	60-180	60	121	GapExp	0	54	4	6	0	distractor	1	693	13.328	13.293	13.363
ProbeTrack7	4	ProbeTrack	1404	SCS215b	733709.383975	733709.387898	8	0.013328	60	10	60-180	60	111	GapExp	0	55	4	0	0	target	0	680	13.328	13.293	13.363
ProbeTrack7	4	ProbeTrack	1404	SCS215b	733709.383975	733709.389299	8	0.013328	60	10	60-180	60	122	GapExp	0	56	4	0	0	distractor	1	627	13.328	13.293	13.363
ProbeTrack7	4	ProbeTrack	1404	SCS215b	733709.383975	733709.389361	8	0.013328	60	10	60-180	60	113	GapExp	0	57	4	6	0	distractor	1	760	13.328	13.293	13.363
ProbeTrack7	4	ProbeTrack	1404	SCS215b	733709.383975	733709.389427	8	0.013328	60	10	60-180	60	62	GapExp	0	58	4	6	0	distractor	1	707	13.328	13.293	13.363
ProbeTrack7	4	ProbeTrack	1404	SCS215b	733709.383975	733709.389484	8	0.013328	60	10	60-180	60	167	GapExp	0	59	4	0	0	distractor	1	613	13.328	13.293	13.363
ProbeTrack7	4	ProbeTrack	1404	SCS215b	733709.383975	733709.389554	8	0.013328	60	10	60-180	60	64	GapExp	0	60	4	96	1	distractor	0	867	13.328	13.293	13.363
ProbeTrack7	4	ProbeTrack	1404	SCS215b	733709.383975	733709.389627	8	0.013328	60	10	60-180	60	70	GapExp	0	61	4	0	0	distractor	1	573	13.328	13.293	13.363
ProbeTrack7	4	ProbeTrack	1404	SCS215b	733709.383975	733709.389681	8	0.013328	60	10	60-180	60	151	GapExp	0	62	4	6	1	distractor	0	533	13.328	13.293	13.363
ProbeTrack7	4	ProbeTrack	1404	SCS215b	733709.383975	733709.389749	8	0.013328	60	10	60-180	60	86	GapExp	0	63	4	0	1	target	1	507	13.328	13.293	13.363
ProbeTrack7	4	ProbeTrack	1404	SCS215b	733709.383975	733709.389808	8	0.013328	60	10	60-180	60	179	GapExp	0	64	4	3	0	distractor	1	573	13.328	13.292	13.363
ProbeTrack7	4	ProbeTrack	1404	SCS215b	733709.383975	733709.389880	8	0.013328	60	10	60-180	60	76	GapExp	0	65	4	96	1	distractor	0	493	13.328	13.293	13.363
ProbeTrack7	4	ProbeTrack	1404	SCS215b	733709.383975	733709.389951	8	0.013328	60	10	60-180	60	176	GapExp	0	66	4	96	0	distractor	1	480	13.328	13.293	13.368
ProbeTrack7	4	ProbeTrack	1404	SCS215b	733709.383975	733709.390034	8	0.013328	60	10	60-180	60	126	GapExp	0	67	4	96	1	distractor	0	453	13.328	13.293	13.363
ProbeTrack7	4	ProbeTrack	1404	SCS215b	733709.383975	733709.390113	8	0.013328	60	10	60-180	60	84	GapExp	0	68	4	96	0	distractor	1	493	13.328	13.293	13.363
ProbeTrack7	4	ProbeTrack	1404	SCS215b	733709.383975	733709.390184	8	0.013328	60	10	60-180	60	110	GapExp	0	69	4	0	0	distractor	1	440	13.328	13.293	13.363
ProbeTrack7	4	ProbeTrack	1404	SCS215b	733709.383975	733709.390248	8	0.013328	60	10	60-180	60	128	GapExp	0	70	4	0	1	distractor	0	1333	13.328	13.293	13.364
ProbeTrack7	4	ProbeTrack	1404	SCS215b	733709.383975	733709.390321	8	0.013328	60	10	60-180	60	87	GapExp	0	71	4	3	0	target	0	800	13.328	13.293	13.363
ProbeTrack7	4	ProbeTrack	1404	SCS215b	733709.383975	733709.390383	8	0.013328	60	10	60-180	60	178	GapExp	0	72	4	0	0	target	0	533	13.328	13.293	13.363
ProbeTrack7	4	ProbeTrack	1404	SCS215b	733709.383975	733709.390459	8	0.013328	60	10	60-180	60	78	GapExp	0	73	4	3	1	distractor	0	427	13.328	13.293	13.363
ProbeTrack7	4	ProbeTrack	1404	SCS215b	733709.383975	733709.390514	8	0.013328	60	10	60-180	60	145	GapExp	0	74	4	96	1	target	1	507	13.328	13.293	13.363
ProbeTrack7	4	ProbeTrack	1404	SCS215b	733709.383975	733709.390595	8	0.013328	60	10	60-180	60	72	GapExp	0	75	4	3	0	target	0	640	13.328	13.293	13.363
ProbeTrack7	4	ProbeTrack	1404	SCS215b	733709.383975	733709.390703	8	0.013328	60	10	60-180	60	105	GapExp	0	76	4	0	0	distractor	1	387	13.328	13.293	13.364
ProbeTrack7	4	ProbeTrack	1404	SCS215b	733709.383975	733709.390760	8	0.013328	60	10	60-180	60	143	GapExp	0	77	4	3	1	distractor	0	347	13.328	13.293	13.363
ProbeTrack7	4	ProbeTrack	1404	SCS215b	733709.383975	733709.390826	8	0.013328	60	10	60-180	60	158	GapExp	0	78	4	96	1	target	1	427	13.328	13.293	13.363
ProbeTrack7	4	ProbeTrack	1404	SCS215b	733709.383975	733709.390911	8	0.013328	60	10	60-180	60	112	GapExp	0	79	4	96	0	distractor	1	547	13.328	13.293	13.363
ProbeTrack7	4	ProbeTrack	1404	SCS215b	733709.383975	733709.390990	8	0.013328	60	10	60-180	60	119	GapExp	0	80	4	96	0	target	0	454	13.328	13.293	13.364
ProbeTrack7	4	ProbeTrack	1404	SCS215b	733709.383975	733709.391071	8	0.013328	60	10	60-180	60	147	GapExp	0	81	4	6	0	distractor	1	307	13.328	13.293	13.363
ProbeTrack7	4	ProbeTrack	1404	SCS215b	733709.383975	733709.391135	8	0.013328	60	10	60-180	60	79	GapExp	0	82	4	0	1	target	1	573	13.328	13.294	13.363
ProbeTrack7	4	ProbeTrack	1404	SCS215b	733709.383975	733709.391190	8	0.013328	60	10	60-180	60	122	GapExp	0	83	4	3	1	target	1	667	13.328	13.293	13.363
ProbeTrack7	4	ProbeTrack	1404	SCS215b	733709.383975	733709.391265	8	0.013328	60	10	60-180	60	139	GapExp	0	84	4	3	1	target	1	414	13.328	13.293	13.363
ProbeTrack7	4	ProbeTrack	1404	SCS215b	733709.383975	733709.391329	8	0.013328	60	10	60-180	60	174	GapExp	0	85	4	6	0	target	0	267	13.328	13.290	13.363
ProbeTrack7	4	ProbeTrack	1404	SCS215b	733709.383975	733709.391396	8	0.013328	60	10	60-180	60	163	GapExp	0	86	4	3	1	target	1	387	13.328	13.293	13.363
ProbeTrack7	4	ProbeTrack	1404	SCS215b	733709.383975	733709.391462	8	0.013328	60	10	60-180	60	160	GapExp	0	87	4	96	0	distractor	1	414	13.328	13.293	13.364
ProbeTrack7	4	ProbeTrack	1404	SCS215b	733709.383975	733709.391545	8	0.013328	60	10	60-180	60	62	GapExp	0	88	4	96	0	distractor	1	560	13.328	13.293	13.363
ProbeTrack7	4	ProbeTrack	1404	SCS215b	733709.383975	733709.391612	8	0.013328	60	10	60-180	60	80	GapExp	0	89	4	3	0	target	0	667	13.328	13.292	13.363
ProbeTrack7	4	ProbeTrack	1404	SCS215b	733709.383975	733709.391671	8	0.013328	60	10	60-180	60	132	GapExp	0	90	4	0	0	distractor	1	440	13.328	13.288	13.363
ProbeTrack7	4	ProbeTrack	1404	SCS215b	733709.383975	733709.391733	8	0.013328	60	10	60-180	60	93	GapExp	0	91	4	96	1	target	1	467	13.328	13.293	13.364
ProbeTrack7	4	ProbeTrack	1404	SCS215b	733709.383975	733709.391807	8	0.013328	60	10	60-180	60	165	GapExp	0	92	4	96	1	target	1	653	13.328	13.293	13.363
ProbeTrack7	4	ProbeTrack	1404	SCS215b	733709.383975	733709.391895	8	0.013328	60	10	60-180	60	164	GapExp	0	93	4	0	0	target	0	573	13.328	13.293	13.363
ProbeTrack7	4	ProbeTrack	1404	SCS215b	733709.383975	733709.391965	8	0.013328	60	10	60-180	60	125	GapExp	0	94	4	6	0	distractor	1	440	13.328	13.289	13.363
ProbeTrack7	4	ProbeTrack	1404	SCS215b	733709.383975	733709.392031	8	0.013328	60	10	60-180	60	134	GapExp	0	95	4	3	1	distractor	0	533	13.328	13.293	13.363
ProbeTrack7	4	ProbeTrack	1404	SCS215b	733709.383975	733709.392126	8	0.013328	60	10	60-180	60	144	GapExp	0	96	4	6	1	distractor	0	520	13.328	13.293	13.367
ProbeTrack7	4	ProbeTrack	1404	SCS215b	733709.383975	733709.392193	8	0.013328	60	10	60-180	60	160	GapExp	0	97	4	96	1	target	1	360	13.328	13.293	13.363
ProbeTrack7	4	ProbeTrack	1404	SCS215b	733709.383975	733709.392272	8	0.013328	60	10	60-180	60	97	GapExp	0	98	4	6	0	distractor	1	507	13.328	13.293	13.363
ProbeTrack7	4	ProbeTrack	1404	SCS215b	733709.383975	733709.392331	8	0.013328	60	10	60-180	60	98	GapExp	0	99	4	6	1	distractor	0	587	13.328	13.293	13.363
ProbeTrack7	4	ProbeTrack	1404	SCS215b	733709.383975	733709.392386	8	0.013328	60	10	60-180	60	61	GapExp	0	100	4	6	0	distractor	1	560	13.328	13.293	13.363
ProbeTrack7	4	ProbeTrack	1404	SCS215b	733709.383975	733709.392435	8	0.013328	60	10	60-180	60	134	GapExp	0	101	4	6	1	target	1	573	13.328	13.293	13.363
ProbeTrack7	4	ProbeTrack	1404	SCS215b	733709.383975	733709.392499	8	0.013328	60	10	60-180	60	143	GapExp	0	102	4	3	1	target	1	587	13.328	13.293	13.363
ProbeTrack7	4	ProbeTrack	1404	SCS215b	733709.383975	733709.392565	8	0.013328	60	10	60-180	60	161	GapExp	0	103	4	3	0	target	0	413	13.328	13.293	13.363
ProbeTrack7	4	ProbeTrack	1404	SCS215b	733709.383975	733709.392632	8	0.013328	60	10	60-180	60	88	GapExp	0	104	4	96	1	distractor	0	360	13.328	13.293	13.363
ProbeTrack7	4	ProbeTrack	1404	SCS215b	733709.383975	733709.392701	8	0.013328	60	10	60-180	60	86	GapExp	0	105	4	96	1	target	1	453	13.328	13.290	13.363
ProbeTrack7	4	ProbeTrack	1404	SCS215b	733709.383975	733709.392766	8	0.013328	60	10	60-180	60	76	GapExp	0	106	4	6	1	target	1	480	13.328	13.289	13.365
ProbeTrack7	4	ProbeTrack	1404	SCS215b	733709.383975	733709.392823	8	0.013328	60	10	60-180	60	146	GapExp	0	107	4	3	1	target	1	440	13.328	13.293	13.363
ProbeTrack7	4	ProbeTrack	1404	SCS215b	733709.383975	733709.392894	8	0.013328	60	10	60-180	60	150	GapExp	0	108	4	96	0	distractor	1	627	13.328	13.293	13.365
ProbeTrack7	4	ProbeTrack	1404	SCS215b	733709.383975	733709.392976	8	0.013328	60	10	60-180	60	115	GapExp	0	109	4	96	0	distractor	1	627	13.328	13.293	13.363
ProbeTrack7	4	ProbeTrack	1404	SCS215b	733709.383975	733709.393053	8	0.013328	60	10	60-180	60	139	GapExp	0	110	4	3	0	distractor	1	427	13.328	13.293	13.363
ProbeTrack7	4	ProbeTrack	1404	SCS215b	733709.383975	733709.393112	8	0.013328	60	10	60-180	60	134	GapExp	0	111	4	6	1	target	1	573	13.328	13.293	13.364
ProbeTrack7	4	ProbeTrack	1404	SCS215b	733709.383975	733709.393176	8	0.013328	60	10	60-180	60	94	GapExp	0	112	4	0	1	target	1	413	13.328	13.293	13.364
ProbeTrack7	4	ProbeTrack	1404	SCS215b	733709.383975	733709.393231	8	0.013328	60	10	60-180	60	170	GapExp	0	113	4	0	1	target	1	693	13.328	13.293	13.363
ProbeTrack7	4	ProbeTrack	1404	SCS215b	733709.383975	733709.393304	8	0.013328	60	10	60-180	60	62	GapExp	0	114	4	3	1	distractor	0	480	13.328	13.293	13.364
ProbeTrack7	4	ProbeTrack	1404	SCS215b	733709.383975	733709.393364	8	0.013328	60	10	60-180	60	68	GapExp	0	115	4	0	0	target	0	334	13.328	13.293	13.363
ProbeTrack7	4	ProbeTrack	1404	SCS215b	733709.383975	733709.393415	8	0.013328	60	10	60-180	60	92	GapExp	0	116	4	3	1	target	1	440	13.328	13.293	13.363
ProbeTrack7	4	ProbeTrack	1404	SCS215b	733709.383975	733709.393472	8	0.013328	60	10	60-180	60	152	GapExp	0	117	4	96	0	target	0	454	13.328	13.293	13.364
ProbeTrack7	4	ProbeTrack	1404	SCS215b	733709.383975	733709.393555	8	0.013328	60	10	60-180	60	127	GapExp	0	118	4	6	0	distractor	1	613	13.328	13.293	13.363
ProbeTrack7	4	ProbeTrack	1404	SCS215b	733709.383975	733709.393624	8	0.013328	60	10	60-180	60	171	GapExp	0	119	4	6	0	distractor	1	573	13.328	13.293	13.363
ProbeTrack7	4	ProbeTrack	1404	SCS215b	733709.383975	733709.393697	8	0.013328	60	10	60-180	60	83	GapExp	0	120	4	3	1	target	1	400	13.328	13.293	13.363
ProbeTrack7	4	ProbeTrack	1404	SCS215b	733709.383975	733709.393751	8	0.013328	60	10	60-180	60	133	GapExp	0	121	4	96	1	target	1	520	13.328	13.293	13.363
ProbeTrack7	4	ProbeTrack	1404	SCS215b	733709.383975	733709.393840	8	0.013328	60	10	60-180	60	144	GapExp	0	122	4	96	0	distractor	1	520	13.328	13.293	13.364
ProbeTrack7	4	ProbeTrack	1404	SCS215b	733709.383975	733709.393933	8	0.013328	60	10	60-180	60	153	GapExp	0	123	4	0	1	target	1	480	13.328	13.293	13.363
ProbeTrack7	4	ProbeTrack	1404	SCS215b	733709.383975	733709.394000	8	0.013328	60	10	60-180	60	66	GapExp	0	124	4	3	1	target	1	427	13.328	13.293	13.363
ProbeTrack7	4	ProbeTrack	1404	SCS215b	733709.383975	733709.394054	8	0.013328	60	10	60-180	60	90	GapExp	0	125	4	96	1	target	1	680	13.328	13.293	13.363
ProbeTrack7	4	ProbeTrack	1404	SCS215b	733709.395277	733709.395392	8	0.013328	60	10	60-180	60	98	GapPrac	1	1	3	0	1	target	1	493	13.328	13.293	13.363
ProbeTrack7	4	ProbeTrack	1404	SCS215b	733709.395277	733709.395485	8	0.013328	60	10	60-180	60	154	GapPrac	1	2	3	3	1	target	1	227	13.328	13.293	13.363
ProbeTrack7	4	ProbeTrack	1404	SCS215b	733709.395277	733709.395544	8	0.013328	60	10	60-180	60	88	GapPrac	1	3	3	6	0	target	0	347	13.328	13.293	13.363
ProbeTrack7	4	ProbeTrack	1404	SCS215b	733709.395277	733709.395596	8	0.013328	60	10	60-180	60	160	GapPrac	1	4	3	96	0	distractor	1	320	13.328	13.293	13.363
ProbeTrack7	4	ProbeTrack	1404	SCS215b	733709.395277	733709.395671	8	0.013328	60	10	60-180	60	146	GapPrac	1	5	3	96	0	distractor	1	507	13.328	13.293	13.363
ProbeTrack7	4	ProbeTrack	1404	SCS215b	733709.395277	733709.395748	8	0.013328	60	10	60-180	60	95	GapPrac	1	6	3	0	0	distractor	1	480	13.328	13.293	13.363
ProbeTrack7	4	ProbeTrack	1404	SCS215b	733709.395277	733709.395804	8	0.013328	60	10	60-180	60	168	GapPrac	1	7	3	96	1	distractor	0	493	13.328	13.293	13.363
ProbeTrack7	4	ProbeTrack	1404	SCS215b	733709.395277	733709.395891	8	0.013328	60	10	60-180	60	111	GapPrac	1	8	3	0	0	target	0	467	13.328	13.293	13.363
ProbeTrack7	4	ProbeTrack	1404	SCS215b	733709.395277	733709.395946	8	0.013328	60	10	60-180	60	176	GapPrac	1	9	3	0	1	target	1	573	13.328	13.293	13.363
ProbeTrack7	4	ProbeTrack	1404	SCS215b	733709.395277	733709.396028	8	0.013328	60	10	60-180	60	87	GapPrac	1	10	3	6	0	distractor	1	547	13.328	13.293	13.363
ProbeTrack7	4	ProbeTrack	1404	SCS215b	733709.395277	733709.396088	8	0.013328	60	10	60-180	60	147	GapPrac	1	11	3	3	1	target	1	427	13.328	13.293	13.363
ProbeTrack7	4	ProbeTrack	1404	SCS215b	733709.395277	733709.396148	8	0.013328	60	10	60-180	60	159	GapPrac	1	12	3	96	1	target	1	600	13.328	13.293	13.366
ProbeTrack7	4	ProbeTrack	1404	SCS215b	733709.395277	733709.396231	8	0.013328	60	10	60-180	60	72	GapPrac	1	13	3	6	1	distractor	0	520	13.328	13.293	13.365
ProbeTrack7	4	ProbeTrack	1404	SCS215b	733709.395277	733709.396286	8	0.013328	60	10	60-180	60	90	GapPrac	1	14	3	6	0	distractor	1	600	13.328	13.293	13.363
ProbeTrack7	4	ProbeTrack	1404	SCS215b	733709.395277	733709.396341	8	0.013328	60	10	60-180	60	136	GapPrac	1	15	3	96	0	distractor	1	587	13.328	13.293	13.363
ProbeTrack7	4	ProbeTrack	1404	SCS215b	733709.395277	733709.396422	8	0.013328	60	10	60-180	60	156	GapPrac	1	16	3	0	1	target	1	440	13.328	13.293	13.363
ProbeTrack7	4	ProbeTrack	1404	SCS215b	733709.395277	733709.396489	8	0.013328	60	10	60-180	60	175	GapPrac	1	17	3	6	1	target	1	600	13.328	13.293	13.363
ProbeTrack7	4	ProbeTrack	1404	SCS215b	733709.395277	733709.396560	8	0.013328	60	10	60-180	60	78	GapPrac	1	18	3	3	1	target	1	427	13.328	13.293	13.363
ProbeTrack7	4	ProbeTrack	1404	SCS215b	733709.395277	733709.396613	8	0.013328	60	10	60-180	60	121	GapPrac	1	19	3	3	0	distractor	1	573	13.328	13.293	13.363
ProbeTrack7	4	ProbeTrack	1404	SCS215b	733709.395277	733709.396678	8	0.013328	60	10	60-180	60	125	GapPrac	1	20	3	3	0	target	0	427	13.328	13.293	13.364
ProbeTrack7	4	ProbeTrack	1404	SCS215b	733709.406761	733709.406802	8	0.013328	60	10	60-180	60	155	GapExp	1	1	3	3	1	186	-3	413	13.328	13.293	13.363
ProbeTrack7	4	ProbeTrack	1404	SCS215b	733709.406761	733709.406885	8	0.013328	60	10	60-180	60	137	GapExp	1	2	3	3	0	distractor	1	493	13.328	13.293	13.363
ProbeTrack7	4	ProbeTrack	1404	SCS215b	733709.406761	733709.406954	8	0.013328	60	10	60-180	60	164	GapExp	1	3	3	0	0	distractor	1	427	13.328	13.293	13.363
ProbeTrack7	4	ProbeTrack	1404	SCS215b	733709.406761	733709.407021	8	0.013328	60	10	60-180	60	164	GapExp	1	4	3	6	1	distractor	0	467	13.328	13.293	13.363
ProbeTrack7	4	ProbeTrack	1404	SCS215b	733709.406761	733709.407107	8	0.013328	60	10	60-180	60	85	GapExp	1	5	3	6	0	target	0	347	13.328	13.293	13.363
ProbeTrack7	4	ProbeTrack	1404	SCS215b	733709.406761	733709.407160	8	0.013328	60	10	60-180	60	177	GapExp	0	6	3	96	0	target	0	640	13.328	13.293	13.363
ProbeTrack7	4	ProbeTrack	1404	SCS215b	733709.406761	733709.407247	8	0.013328	60	10	60-180	60	80	GapExp	0	7	3	0	0	distractor	1	427	13.328	13.293	13.363
ProbeTrack7	4	ProbeTrack	1404	SCS215b	733709.406761	733709.407316	8	0.013328	60	10	60-180	60	90	GapExp	0	8	3	3	0	distractor	1	493	13.328	13.294	13.363
ProbeTrack7	4	ProbeTrack	1404	SCS215b	733709.406761	733709.407369	8	0.013328	60	10	60-180	60	131	GapExp	0	9	3	3	0	target	0	627	13.328	13.293	13.363
ProbeTrack7	4	ProbeTrack	1404	SCS215b	733709.406761	733709.407431	8	0.013328	60	10	60-180	60	161	GapExp	0	10	3	3	0	distractor	1	653	13.328	13.293	13.363
ProbeTrack7	4	ProbeTrack	1404	SCS215b	733709.406761	733709.407518	8	0.013328	60	10	60-180	60	80	GapExp	0	11	3	3	1	distractor	0	440	13.328	13.293	13.363
ProbeTrack7	4	ProbeTrack	1404	SCS215b	733709.406761	733709.407578	8	0.013328	60	10	60-180	60	83	GapExp	0	12	3	6	0	distractor	1	414	13.328	13.293	13.363
ProbeTrack7	4	ProbeTrack	1404	SCS215b	733709.406761	733709.407633	8	0.013328	60	10	60-180	60	99	GapExp	0	13	3	3	1	distractor	0	507	13.328	13.293	13.363
ProbeTrack7	4	ProbeTrack	1404	SCS215b	733709.406761	733709.407688	8	0.013328	60	10	60-180	60	140	GapExp	0	14	3	96	1	target	1	374	13.328	13.293	13.363
ProbeTrack7	4	ProbeTrack	1404	SCS215b	733709.406761	733709.407763	8	0.013328	60	10	60-180	60	137	GapExp	0	15	3	3	0	target	0	480	13.328	13.293	13.363
ProbeTrack7	4	ProbeTrack	1404	SCS215b	733709.406761	733709.407827	8	0.013328	60	10	60-180	60	104	GapExp	0	16	3	3	1	distractor	0	374	13.328	13.289	13.363
ProbeTrack7	4	ProbeTrack	1404	SCS215b	733709.406761	733709.407885	8	0.013328	60	10	60-180	60	110	GapExp	0	17	3	6	0	distractor	1	480	13.328	13.290	13.364
ProbeTrack7	4	ProbeTrack	1404	SCS215b	733709.406761	733709.407944	8	0.013328	60	10	60-180	60	143	GapExp	0	18	3	0	0	distractor	1	560	13.328	13.293	13.363
ProbeTrack7	4	ProbeTrack	1404	SCS215b	733709.406761	733709.408009	8	0.013328	60	10	60-180	60	135	GapExp	0	19	3	96	1	target	1	507	13.328	13.293	13.363
ProbeTrack7	4	ProbeTrack	1404	SCS215b	733709.406761	733709.408088	8	0.013328	60	10	60-180	60	144	GapExp	0	20	3	3	0	distractor	1	480	13.328	13.293	13.363
ProbeTrack7	4	ProbeTrack	1404	SCS215b	733709.406761	733709.408154	8	0.013328	60	10	60-180	60	123	GapExp	0	21	3	6	0	distractor	1	467	13.328	13.293	13.366
ProbeTrack7	4	ProbeTrack	1404	SCS215b	733709.406761	733709.408216	8	0.013328	60	10	60-180	60	164	GapExp	0	22	3	6	1	target	1	507	13.328	13.293	13.363
ProbeTrack7	4	ProbeTrack	1404	SCS215b	733709.406761	733709.408283	8	0.013328	60	10	60-180	60	139	GapExp	0	23	3	96	0	distractor	1	440	13.328	13.292	13.363
ProbeTrack7	4	ProbeTrack	1404	SCS215b	733709.406761	733709.408362	8	0.013328	60	10	60-180	60	159	GapExp	0	24	3	3	1	distractor	0	493	13.328	13.293	13.363
ProbeTrack7	4	ProbeTrack	1404	SCS215b	733709.406761	733709.408428	8	0.013328	60	10	60-180	60	98	GapExp	0	25	3	96	0	distractor	1	640	13.328	13.293	13.363
ProbeTrack7	4	ProbeTrack	1404	SCS215b	733709.406761	733709.408500	8	0.013328	60	10	60-180	60	116	GapExp	0	26	3	3	0	distractor	1	493	13.328	13.293	13.363
ProbeTrack7	4	ProbeTrack	1404	SCS215b	733709.406761	733709.408573	8	0.013328	60	10	60-180	60	69	GapExp	0	27	3	0	0	distractor	1	520	13.328	13.293	13.362
ProbeTrack7	4	ProbeTrack	1404	SCS215b	733709.406761	733709.408625	8	0.013328	60	10	60-180	60	92	GapExp	0	28	3	3	1	distractor	0	787	13.328	13.293	13.363
ProbeTrack7	4	ProbeTrack	1404	SCS215b	733709.406761	733709.408684	8	0.013328	60	10	60-180	60	88	GapExp	0	29	3	0	0	target	0	440	13.328	13.293	13.363
ProbeTrack7	4	ProbeTrack	1404	SCS215b	733709.406761	733709.408735	8	0.013328	60	10	60-180	60	177	GapExp	0	30	3	6	1	distractor	0	507	13.328	13.290	13.364
ProbeTrack7	4	ProbeTrack	1404	SCS215b	733709.406761	733709.408824	8	0.013328	60	10	60-180	60	127	GapExp	0	31	3	6	0	target	0	520	13.328	13.293	13.364
ProbeTrack7	4	ProbeTrack	1404	SCS215b	733709.406761	733709.408887	8	0.013328	60	10	60-180	60	174	GapExp	0	32	3	96	1	target	1	613	13.328	13.293	13.363
ProbeTrack7	4	ProbeTrack	1404	SCS215b	733709.406761	733709.408974	8	0.013328	60	10	60-180	60	67	GapExp	0	33	3	0	1	distractor	0	387	13.328	13.294	13.362
ProbeTrack7	4	ProbeTrack	1404	SCS215b	733709.406761	733709.409027	8	0.013328	60	10	60-180	60	170	GapExp	0	34	3	3	0	target	0	893	13.328	13.293	13.363
ProbeTrack7	4	ProbeTrack	1404	SCS215b	733709.406761	733709.409097	8	0.013328	60	10	60-180	60	85	GapExp	0	35	3	6	0	target	0	587	13.328	13.293	13.363
ProbeTrack7	4	ProbeTrack	1404	SCS215b	733709.406761	733709.409151	8	0.013328	60	10	60-180	60	120	GapExp	0	36	3	6	1	distractor	0	360	13.328	13.293	13.363
ProbeTrack7	4	ProbeTrack	1404	SCS215b	733709.406761	733709.409211	8	0.013328	60	10	60-180	60	118	GapExp	0	37	3	0	0	target	0	520	13.328	13.293	13.363
ProbeTrack7	4	ProbeTrack	1404	SCS215b	733709.406761	733709.409271	8	0.013328	60	10	60-180	60	176	GapExp	0	38	3	0	0	distractor	1	520	13.328	13.293	13.363
ProbeTrack7	4	ProbeTrack	1404	SCS215b	733709.406761	733709.409348	8	0.013328	60	10	60-180	60	61	GapExp	0	39	3	96	0	distractor	1	520	13.328	13.293	13.364
ProbeTrack7	4	ProbeTrack	1404	SCS215b	733709.406761	733709.409412	8	0.013328	60	10	60-180	60	96	GapExp	0	40	3	96	1	target	1	507	13.328	13.293	13.363
ProbeTrack7	4	ProbeTrack	1404	SCS215b	733709.406761	733709.409488	8	0.013328	60	10	60-180	60	177	GapExp	0	41	3	6	1	distractor	0	760	13.328	13.292	13.363
ProbeTrack7	4	ProbeTrack	1404	SCS215b	733709.406761	733709.409562	8	0.013328	60	10	60-180	60	107	GapExp	0	42	3	6	1	target	1	547	13.328	13.293	13.363
ProbeTrack7	4	ProbeTrack	1404	SCS215b	733709.406761	733709.409622	8	0.013328	60	10	60-180	60	103	GapExp	0	43	3	96	0	distractor	1	547	13.328	13.293	13.363
ProbeTrack7	4	ProbeTrack	1404	SCS215b	733709.406761	733709.409700	8	0.013328	60	10	60-180	60	161	GapExp	0	44	3	96	1	distractor	0	480	13.328	13.293	13.363
ProbeTrack7	4	ProbeTrack	1404	SCS215b	733709.406761	733709.409781	8	0.013328	60	10	60-180	60	93	GapExp	0	45	3	96	1	target	1	547	13.328	13.293	13.363
ProbeTrack7	4	ProbeTrack	1404	SCS215b	733709.406761	733709.409851	8	0.013328	60	10	60-180	60	104	GapExp	0	46	3	0	0	distractor	1	653	13.328	13.293	13.363
ProbeTrack7	4	ProbeTrack	1404	SCS215b	733709.406761	733709.409917	8	0.013328	60	10	60-180	60	93	GapExp	0	47	3	0	0	distractor	1	533	13.328	13.293	13.363
ProbeTrack7	4	ProbeTrack	1404	SCS215b	733709.406761	733709.409976	8	0.013328	60	10	60-180	60	77	GapExp	0	48	3	3	0	distractor	1	467	13.328	13.293	13.363
ProbeTrack7	4	ProbeTrack	1404	SCS215b	733709.406761	733709.410033	8	0.013328	60	10	60-180	60	168	GapExp	0	49	3	96	1	target	1	573	13.328	13.291	13.366
ProbeTrack7	4	ProbeTrack	1404	SCS215b	733709.406761	733709.410118	8	0.013328	60	10	60-180	60	155	GapExp	0	50	3	96	0	distractor	1	480	13.328	13.293	13.363
ProbeTrack7	4	ProbeTrack	1404	SCS215b	733709.406761	733709.411005	8	0.013328	60	10	60-180	60	144	GapExp	0	51	3	0	0	target	0	467	13.328	13.289	13.363
ProbeTrack7	4	ProbeTrack	1404	SCS215b	733709.406761	733709.411064	8	0.013328	60	10	60-180	60	125	GapExp	0	52	3	6	0	distractor	1	360	13.328	13.293	13.363
ProbeTrack7	4	ProbeTrack	1404	SCS215b	733709.406761	733709.411123	8	0.013328	60	10	60-180	60	180	GapExp	0	53	3	0	0	distractor	1	613	13.328	13.293	13.363
ProbeTrack7	4	ProbeTrack	1404	SCS215b	733709.406761	733709.411192	8	0.013328	60	10	60-180	60	135	GapExp	0	54	3	6	0	target	0	533	13.328	13.293	13.364
ProbeTrack7	4	ProbeTrack	1404	SCS215b	733709.406761	733709.411256	8	0.013328	60	10	60-180	60	111	GapExp	0	55	3	6	1	distractor	0	613	13.328	13.293	13.363
ProbeTrack7	4	ProbeTrack	1404	SCS215b	733709.406761	733709.411316	8	0.013328	60	10	60-180	60	161	GapExp	0	56	3	0	1	distractor	0	493	13.328	13.293	13.363
ProbeTrack7	4	ProbeTrack	1404	SCS215b	733709.406761	733709.411387	8	0.013328	60	10	60-180	60	121	GapExp	0	57	3	96	0	target	0	707	13.328	13.293	13.363
ProbeTrack7	4	ProbeTrack	1404	SCS215b	733709.406761	733709.411465	8	0.013328	60	10	60-180	60	161	GapExp	0	58	3	3	1	distractor	0	533	13.328	13.293	13.363
ProbeTrack7	4	ProbeTrack	1404	SCS215b	733709.406761	733709.411532	8	0.013328	60	10	60-180	60	119	GapExp	0	59	3	96	0	distractor	1	534	13.328	13.293	13.363
ProbeTrack7	4	ProbeTrack	1404	SCS215b	733709.406761	733709.411609	8	0.013328	60	10	60-180	60	75	GapExp	0	60	3	6	0	distractor	1	627	13.328	13.293	13.363
ProbeTrack7	4	ProbeTrack	1404	SCS215b	733709.406761	733709.411667	8	0.013328	60	10	60-180	60	78	GapExp	0	61	3	3	1	distractor	0	560	13.328	13.293	13.364
ProbeTrack7	4	ProbeTrack	1404	SCS215b	733709.406761	733709.411723	8	0.013328	60	10	60-180	60	164	GapExp	0	62	3	3	0	distractor	1	533	13.328	13.293	13.363
ProbeTrack7	4	ProbeTrack	1404	SCS215b	733709.406761	733709.411789	8	0.013328	60	10	60-180	60	143	GapExp	0	63	3	3	1	target	1	653	13.328	13.293	13.363
ProbeTrack7	4	ProbeTrack	1404	SCS215b	733709.406761	733709.411854	8	0.013328	60	10	60-180	60	68	GapExp	0	64	3	0	1	target	1	693	13.328	13.293	13.363
ProbeTrack7	4	ProbeTrack	1404	SCS215b	733709.406761	733709.411908	8	0.013328	60	10	60-180	60	178	GapExp	0	65	3	3	1	target	1	360	13.328	13.293	13.364
ProbeTrack7	4	ProbeTrack	1404	SCS215b	733709.406761	733709.411976	8	0.013328	60	10	60-180	60	64	GapExp	0	66	3	3	0	distractor	1	493	13.328	13.293	13.363
ProbeTrack7	4	ProbeTrack	1404	SCS215b	733709.406761	733709.412028	8	0.013328	60	10	60-180	60	144	GapExp	0	67	3	0	1	distractor	0	547	13.328	13.293	13.363
ProbeTrack7	4	ProbeTrack	1404	SCS215b	733709.406761	733709.412093	8	0.013328	60	10	60-180	60	86	GapExp	0	68	3	0	1	target	1	427	13.328	13.293	13.363
ProbeTrack7	4	ProbeTrack	1404	SCS215b	733709.406761	733709.412147	8	0.013328	60	10	60-180	60	174	GapExp	0	69	3	3	1	target	1	334	13.328	13.293	13.364
ProbeTrack7	4	ProbeTrack	1404	SCS215b	733709.406761	733709.412215	8	0.013328	60	10	60-180	60	65	GapExp	0	70	3	0	1	distractor	0	907	13.328	13.293	13.363
ProbeTrack7	4	ProbeTrack	1404	SCS215b	733709.406761	733709.412272	8	0.013328	60	10	60-180	60	170	GapExp	0	71	3	0	1	target	1	414	13.328	13.290	13.363
ProbeTrack7	4	ProbeTrack	1404	SCS215b	733709.406761	733709.412336	8	0.013328	60	10	60-180	60	89	GapExp	0	72	3	96	0	target	0	533	13.328	13.293	13.363
ProbeTrack7	4	ProbeTrack	1404	SCS215b	733709.406761	733709.412406	8	0.013328	60	10	60-180	60	122	GapExp	0	73	3	3	0	distractor	1	387	13.328	13.293	13.363
ProbeTrack7	4	ProbeTrack	1404	SCS215b	733709.406761	733709.412467	8	0.013328	60	10	60-180	60	109	GapExp	0	74	3	6	1	target	1	427	13.328	13.293	13.363
ProbeTrack7	4	ProbeTrack	1404	SCS215b	733709.406761	733709.412526	8	0.013328	60	10	60-180	60	80	GapExp	0	75	3	96	0	distractor	1	493	13.328	13.293	13.363
ProbeTrack7	4	ProbeTrack	1404	SCS215b	733709.406761	733709.412596	8	0.013328	60	10	60-180	60	124	GapExp	0	76	3	96	1	distractor	0	480	13.328	13.292	13.364
ProbeTrack7	4	ProbeTrack	1404	SCS215b	733709.406761	733709.412672	8	0.013328	60	10	60-180	60	156	GapExp	0	77	3	6	1	distractor	0	680	13.328	13.293	13.363
ProbeTrack7	4	ProbeTrack	1404	SCS215b	733709.406761	733709.412737	8	0.013328	60	10	60-180	60	180	GapExp	0	78	3	6	1	target	1	387	13.328	13.293	13.363
ProbeTrack7	4	ProbeTrack	1404	SCS215b	733709.406761	733709.412809	8	0.013328	60	10	60-180	60	88	GapExp	0	79	3	0	0	distractor	1	653	13.328	13.293	13.363
ProbeTrack7	4	ProbeTrack	1404	SCS215b	733709.406761	733709.412865	8	0.013328	60	10	60-180	60	168	GapExp	0	80	3	0	1	target	1	587	13.328	13.293	13.363
ProbeTrack7	4	ProbeTrack	1404	SCS215b	733709.406761	733709.412935	8	0.013328	60	10	60-180	60	115	GapExp	0	81	3	96	1	distractor	0	507	13.328	13.293	13.363
ProbeTrack7	4	ProbeTrack	1404	SCS215b	733709.406761	733709.413009	8	0.013328	60	10	60-180	60	171	GapExp	0	82	3	6	1	target	1	374	13.328	13.293	13.363
ProbeTrack7	4	ProbeTrack	1404	SCS215b	733709.406761	733709.413077	8	0.013328	60	10	60-180	60	165	GapExp	0	83	3	0	0	distractor	1	560	13.328	13.289	13.364
ProbeTrack7	4	ProbeTrack	1404	SCS215b	733709.406761	733709.413153	8	0.013328	60	10	60-180	60	177	GapExp	0	84	3	3	1	distractor	0	1999	13.328	13.293	13.363
ProbeTrack7	4	ProbeTrack	1404	SCS215b	733709.406761	733709.413241	8	0.013328	60	10	60-180	60	98	GapExp	0	85	3	0	1	target	1	400	13.328	13.293	13.363
ProbeTrack7	4	ProbeTrack	1404	SCS215b	733709.406761	733709.413293	8	0.013328	60	10	60-180	60	94	GapExp	0	86	3	3	0	target	0	307	13.328	13.293	13.363
ProbeTrack7	4	ProbeTrack	1404	SCS215b	733709.406761	733709.413347	8	0.013328	60	10	60-180	60	178	GapExp	0	87	3	96	1	distractor	0	387	13.328	13.293	13.363
ProbeTrack7	4	ProbeTrack	1404	SCS215b	733709.406761	733709.413430	8	0.013328	60	10	60-180	60	163	GapExp	0	88	3	3	1	target	1	387	13.328	13.293	13.363
ProbeTrack7	4	ProbeTrack	1404	SCS215b	733709.406761	733709.413493	8	0.013328	60	10	60-180	60	135	GapExp	0	89	3	6	0	distractor	1	480	13.328	13.293	13.363
ProbeTrack7	4	ProbeTrack	1404	SCS215b	733709.406761	733709.413557	8	0.013328	60	10	60-180	60	117	GapExp	0	90	3	0	0	distractor	1	627	13.328	13.293	13.363
ProbeTrack7	4	ProbeTrack	1404	SCS215b	733709.406761	733709.413618	8	0.013328	60	10	60-180	60	84	GapExp	0	91	3	3	1	target	1	547	13.328	13.293	13.363
ProbeTrack7	4	ProbeTrack	1404	SCS215b	733709.406761	733709.413674	8	0.013328	60	10	60-180	60	95	GapExp	0	92	3	96	0	distractor	1	507	13.328	13.293	13.363
ProbeTrack7	4	ProbeTrack	1404	SCS215b	733709.406761	733709.413746	8	0.013328	60	10	60-180	60	71	GapExp	0	93	3	96	0	distractor	1	480	13.328	13.289	13.363
ProbeTrack7	4	ProbeTrack	1404	SCS215b	733709.406761	733709.413815	8	0.013328	60	10	60-180	60	110	GapExp	0	94	3	6	0	distractor	1	440	13.328	13.293	13.363
ProbeTrack7	4	ProbeTrack	1404	SCS215b	733709.406761	733709.413873	8	0.013328	60	10	60-180	60	133	GapExp	0	95	3	96	0	distractor	1	467	13.328	13.293	13.363
ProbeTrack7	4	ProbeTrack	1404	SCS215b	733709.406761	733709.413955	8	0.013328	60	10	60-180	60	62	GapExp	0	96	3	96	0	distractor	1	507	13.328	13.293	13.364
ProbeTrack7	4	ProbeTrack	1404	SCS215b	733709.406761	733709.414020	8	0.013328	60	10	60-180	60	132	GapExp	0	97	3	6	0	distractor	1	374	13.328	13.293	13.363
ProbeTrack7	4	ProbeTrack	1404	SCS215b	733709.406761	733709.414081	8	0.013328	60	10	60-180	60	131	GapExp	0	98	3	6	1	target	1	347	13.328	13.293	13.363
ProbeTrack7	4	ProbeTrack	1404	SCS215b	733709.406761	733709.414142	8	0.013328	60	10	60-180	60	127	GapExp	0	99	3	0	1	distractor	0	480	13.328	13.293	13.363
ProbeTrack7	4	ProbeTrack	1404	SCS215b	733709.406761	733709.414204	8	0.013328	60	10	60-180	60	117	GapExp	0	100	3	0	1	target	1	480	13.328	13.293	13.362
ProbeTrack7	4	ProbeTrack	1404	SCS215b	733709.406761	733709.414277	8	0.013328	60	10	60-180	60	161	GapExp	0	101	3	3	0	distractor	1	520	13.328	13.293	13.363
ProbeTrack7	4	ProbeTrack	1404	SCS215b	733709.406761	733709.414346	8	0.013328	60	10	60-180	60	178	GapExp	0	102	3	6	1	target	1	467	13.328	13.290	13.363
ProbeTrack7	4	ProbeTrack	1404	SCS215b	733709.406761	733709.414412	8	0.013328	60	10	60-180	60	126	GapExp	0	103	3	0	1	distractor	0	454	13.328	13.293	13.363
ProbeTrack7	4	ProbeTrack	1404	SCS215b	733709.406761	733709.414472	8	0.013328	60	10	60-180	60	174	GapExp	0	104	3	6	1	distractor	0	533	13.328	13.293	13.363
ProbeTrack7	4	ProbeTrack	1404	SCS215b	733709.406761	733709.414541	8	0.013328	60	10	60-180	60	98	GapExp	0	105	3	96	1	distractor	0	547	13.328	13.293	13.363
ProbeTrack7	4	ProbeTrack	1404	SCS215b	733709.406761	733709.414622	8	0.013328	60	10	60-180	60	159	GapExp	0	106	3	6	1	distractor	0	453	13.328	13.293	13.363
ProbeTrack7	4	ProbeTrack	1404	SCS215b	733709.406761	733709.414721	8	0.013328	60	10	60-180	60	99	GapExp	0	107	3	0	1	target	1	374	13.328	13.293	13.363
ProbeTrack7	4	ProbeTrack	1404	SCS215b	733709.406761	733709.414776	8	0.013328	60	10	60-180	60	178	GapExp	0	108	3	96	0	distractor	1	613	13.328	13.292	13.364
ProbeTrack7	4	ProbeTrack	1404	SCS215b	733709.406761	733709.414862	8	0.013328	60	10	60-180	60	95	GapExp	0	109	3	6	0	target	0	427	13.328	13.293	13.363
ProbeTrack7	4	ProbeTrack	1404	SCS215b	733709.406761	733709.414917	8	0.013328	60	10	60-180	60	134	GapExp	0	110	3	0	1	distractor	0	493	13.328	13.293	13.363
ProbeTrack7	4	ProbeTrack	1404	SCS215b	733709.406761	733709.414977	8	0.013328	60	10	60-180	60	177	GapExp	0	111	3	3	0	distractor	1	747	13.328	13.290	13.366
ProbeTrack7	4	ProbeTrack	1404	SCS215b	733709.406761	733709.415051	8	0.013328	60	10	60-180	60	99	GapExp	0	112	3	6	0	distractor	1	680	13.328	13.293	13.363
ProbeTrack7	4	ProbeTrack	1404	SCS215b	733709.406761	733709.415112	8	0.013328	60	10	60-180	60	68	GapExp	0	113	3	96	1	target	1	640	13.328	13.293	13.363
ProbeTrack7	4	ProbeTrack	1404	SCS215b	733709.406761	733709.415178	8	0.013328	60	10	60-180	60	67	GapExp	0	114	3	6	1	distractor	0	467	13.328	13.294	13.363
ProbeTrack7	4	ProbeTrack	1404	SCS215b	733709.406761	733709.415231	8	0.013328	60	10	60-180	60	77	GapExp	0	115	3	6	0	distractor	1	1013	13.328	13.292	13.366
ProbeTrack7	4	ProbeTrack	1404	SCS215b	733709.406761	733709.415289	8	0.013328	60	10	60-180	60	64	GapExp	0	116	3	0	0	distractor	1	707	13.328	13.293	13.363
ProbeTrack7	4	ProbeTrack	1404	SCS215b	733709.406761	733709.415343	8	0.013328	60	10	60-180	60	80	GapExp	0	117	3	96	1	distractor	0	933	13.328	13.293	13.363
ProbeTrack7	4	ProbeTrack	1404	SCS215b	733709.406761	733709.415417	8	0.013328	60	10	60-180	60	82	GapExp	0	118	3	0	1	target	1	480	13.328	13.293	13.363
ProbeTrack7	4	ProbeTrack	1404	SCS215b	733709.406761	733709.415469	8	0.013328	60	10	60-180	60	146	GapExp	0	119	3	6	0	distractor	1	560	13.328	13.293	13.363
ProbeTrack7	4	ProbeTrack	1404	SCS215b	733709.406761	733709.415537	8	0.013328	60	10	60-180	60	160	GapExp	0	120	3	96	1	distractor	0	467	13.328	13.293	13.366
ProbeTrack7	4	ProbeTrack	1404	SCS215b	733709.406761	733709.415618	8	0.013328	60	10	60-180	60	132	GapExp	0	121	3	3	1	target	1	400	13.328	13.293	13.366
ProbeTrack7	4	ProbeTrack	1404	SCS215b	733709.406761	733709.415676	8	0.013328	60	10	60-180	60	155	GapExp	0	122	3	3	0	distractor	1	520	13.328	13.293	13.363
ProbeTrack7	4	ProbeTrack	1404	SCS215b	733709.406761	733709.415743	8	0.013328	60	10	60-180	60	105	GapExp	0	123	3	0	0	distractor	1	613	13.328	13.293	13.362
ProbeTrack7	4	ProbeTrack	1404	SCS215b	733709.406761	733709.415804	8	0.013328	60	10	60-180	60	179	GapExp	0	124	3	3	1	target	1	560	13.328	13.293	13.363
ProbeTrack7	4	ProbeTrack	1404	SCS215b	733709.406761	733709.415875	8	0.013328	60	10	60-180	60	163	GapExp	0	125	3	96	1	target	1	440	13.328	13.289	13.366
