exp	sub	code	rev	comp	runtime	trialtime	nstim	refreshdur	cuedur	gapdur	gapOnsetRange	durPostProbe	gapOnsetTime	blocktype	prac	trial	ntargets	soa	probeTarget	resp	acc	rt	meanFrameDur	minFrameDur	maxFrameDur
ProbeTrack7	6	ProbeTrack	1404	SCS215g	733709.415939	733709.416143	8	0.013328	60	0	60-180	60	172	NoGap	1	1	4	96	1	distractor	0	4852	13.328	13.324	13.334
ProbeTrack7	6	ProbeTrack	1404	SCS215g	733709.415939	733709.416905	8	0.013328	60	0	60-180	60	76	NoGap	1	2	4	96	0	distractor	1	667	13.328	13.323	13.333
ProbeTrack7	6	ProbeTrack	1404	SCS215g	733709.415939	733709.417013	8	0.013328	60	0	60-180	60	74	NoGap	1	3	4	0	1	distractor	0	533	13.328	13.325	13.333
ProbeTrack7	6	ProbeTrack	1404	SCS215g	733709.415939	733709.417233	8	0.013328	60	0	60-180	60	134	NoGap	1	4	4	3	0	target	0	427	13.328	13.324	13.332
ProbeTrack7	6	ProbeTrack	1404	SCS215g	733709.415939	733709.417332	8	0.013328	60	0	60-180	60	65	NoGap	1	5	4	96	1	distractor	0	600	13.328	13.314	13.342
ProbeTrack7	6	ProbeTrack	1404	SCS215g	733709.415939	733709.417428	8	0.013328	60	0	60-180	60	73	NoGap	1	6	4	6	0	distractor	1	640	13.328	13.324	13.333
ProbeTrack7	6	ProbeTrack	1404	SCS215g	733709.415939	733709.417544	8	0.013328	60	0	60-180	60	139	NoGap	1	7	4	3	0	target	0	427	13.328	13.312	13.344
ProbeTrack7	6	ProbeTrack	1404	SCS215g	733709.415939	733709.417628	8	0.013328	60	0	60-180	60	112	NoGap	1	8	4	6	1	distractor	0	520	13.328	13.325	13.333
ProbeTrack7	6	ProbeTrack	1404	SCS215g	733709.415939	733709.417702	8	0.013328	60	0	60-180	60	90	NoGap	1	9	4	6	0	distractor	1	653	13.328	13.324	13.332
ProbeTrack7	6	ProbeTrack	1404	SCS215g	733709.415939	733709.417848	8	0.013328	60	0	60-180	60	151	NoGap	1	10	4	6	1	target	1	480	13.328	13.323	13.333
ProbeTrack7	6	ProbeTrack	1404	SCS215g	733709.415939	733709.417963	8	0.013328	60	0	60-180	60	162	NoGap	1	11	4	6	0	distractor	1	613	13.328	13.323	13.333
ProbeTrack7	6	ProbeTrack	1404	SCS215g	733709.415939	733709.418035	8	0.013328	60	0	60-180	60	161	NoGap	1	12	4	96	0	target	0	374	13.328	13.323	13.333
ProbeTrack7	6	ProbeTrack	1404	SCS215g	733709.415939	733709.418118	8	0.013328	60	0	60-180	60	65	NoGap	1	13	4	96	1	distractor	0	707	13.328	13.323	13.333
ProbeTrack7	6	ProbeTrack	1404	SCS215g	733709.415939	733709.418210	8	0.013328	60	0	60-180	60	145	NoGap	1	14	4	96	0	target	0	653	13.328	13.323	13.332
ProbeTrack7	6	ProbeTrack	1404	SCS215g	733709.415939	733709.418309	8	0.013328	60	0	60-180	60	109	NoGap	1	15	4	96	1	distractor	0	467	13.328	13.325	13.332
ProbeTrack7	6	ProbeTrack	1404	SCS215g	733709.415939	733709.418429	8	0.013328	60	0	60-180	60	165	NoGap	1	16	4	6	0	target	0	613	13.328	13.324	13.332
ProbeTrack7	6	ProbeTrack	1404	SCS215g	733709.415939	733709.418502	8	0.013328	60	0	60-180	60	71	NoGap	1	17	4	0	0	distractor	1	520	13.328	13.323	13.333
ProbeTrack7	6	ProbeTrack	1404	SCS215g	733709.415939	733709.418607	8	0.013328	60	0	60-180	60	152	NoGap	1	18	4	0	0	distractor	1	573	13.328	13.317	13.340
ProbeTrack7	6	ProbeTrack	1404	SCS215g	733709.415939	733709.418690	8	0.013328	60	0	60-180	60	61	NoGap	1	19	4	96	1	distractor	0	627	13.328	13.320	13.335
ProbeTrack7	6	ProbeTrack	1404	SCS215g	733709.415939	733709.418773	8	0.013328	60	0	60-180	60	139	NoGap	1	20	4	0	1	distractor	0	467	13.328	13.326	13.330
ProbeTrack7	6	ProbeTrack	1404	SCS215g	733709.415939	733709.418860	8	0.013328	60	0	60-180	60	68	NoGap	1	21	4	3	1	13	-3	467	13.328	13.325	13.330
ProbeTrack7	6	ProbeTrack	1404	SCS215g	733709.415939	733709.419004	8	0.013328	60	0	60-180	60	149	NoGap	1	22	4	0	0	target	0	640	13.328	13.326	13.330
ProbeTrack7	6	ProbeTrack	1404	SCS215g	733709.415939	733709.419104	8	0.013328	60	0	60-180	60	111	NoGap	1	23	4	3	0	distractor	1	747	13.328	13.325	13.333
ProbeTrack7	6	ProbeTrack	1404	SCS215g	733709.415939	733709.419251	8	0.013328	60	0	60-180	60	146	NoGap	1	24	4	3	1	target	1	613	13.328	13.325	13.330
ProbeTrack7	6	ProbeTrack	1404	SCS215g	733709.415939	733709.419363	8	0.013328	60	0	60-180	60	148	NoGap	1	25	4	6	0	distractor	1	587	13.328	13.323	13.334
ProbeTrack7	6	ProbeTrack	1404	SCS215g	733709.415939	733709.419446	8	0.013328	60	0	60-180	60	156	NoGap	1	26	4	6	0	distractor	1	520	13.328	13.317	13.339
ProbeTrack7	6	ProbeTrack	1404	SCS215g	733709.415939	733709.419525	8	0.013328	60	0	60-180	60	158	NoGap	1	27	4	3	1	target	1	374	13.328	13.326	13.331
ProbeTrack7	6	ProbeTrack	1404	SCS215g	733709.415939	733709.419595	8	0.013328	60	0	60-180	60	108	NoGap	1	28	4	96	0	distractor	1	573	13.328	13.325	13.332
ProbeTrack7	6	ProbeTrack	1404	SCS215g	733709.415939	733709.419685	8	0.013328	60	0	60-180	60	66	NoGap	1	29	4	6	1	distractor	0	467	13.328	13.327	13.330
ProbeTrack7	6	ProbeTrack	1404	SCS215g	733709.415939	733709.419746	8	0.013328	60	0	60-180	60	121	NoGap	1	30	4	3	1	distractor	0	560	13.328	13.326	13.330
ProbeTrack7	6	ProbeTrack	1404	SCS215g	733709.415939	733709.419872	8	0.013328	60	0	60-180	60	105	NoGap	1	31	4	6	0	distractor	1	693	13.328	13.322	13.334
ProbeTrack7	6	ProbeTrack	1404	SCS215g	733709.415939	733709.420042	8	0.013328	60	0	60-180	60	106	NoGap	1	32	4	0	1	target	1	693	13.328	13.313	13.344
ProbeTrack7	6	ProbeTrack	1404	SCS215g	733709.415939	733709.420177	8	0.013328	60	0	60-180	60	101	NoGap	1	33	4	3	0	distractor	1	547	13.328	13.327	13.330
ProbeTrack7	6	ProbeTrack	1404	SCS215g	733709.415939	733709.420262	8	0.013328	60	0	60-180	60	128	NoGap	1	34	4	0	1	target	1	627	13.328	13.326	13.330
ProbeTrack7	6	ProbeTrack	1404	SCS215g	733709.415939	733709.420335	8	0.013328	60	0	60-180	60	99	NoGap	1	35	4	0	0	distractor	1	547	13.328	13.324	13.333
ProbeTrack7	6	ProbeTrack	1404	SCS215g	733709.415939	733709.420423	8	0.013328	60	0	60-180	60	85	NoGap	1	36	4	3	0	target	0	653	13.328	13.323	13.333
ProbeTrack7	6	ProbeTrack	1404	SCS215g	733709.415939	733709.420494	8	0.013328	60	0	60-180	60	179	NoGap	1	37	4	6	1	target	1	427	13.328	13.326	13.330
ProbeTrack7	6	ProbeTrack	1404	SCS215g	733709.415939	733709.420632	8	0.013328	60	0	60-180	60	158	NoGap	1	38	4	3	1	target	1	387	13.328	13.321	13.335
ProbeTrack7	6	ProbeTrack	1404	SCS215g	733709.415939	733709.420758	8	0.013328	60	0	60-180	60	76	NoGap	1	39	4	0	1	target	1	560	13.328	13.318	13.337
ProbeTrack7	6	ProbeTrack	1404	SCS215g	733709.415939	733709.420810	8	0.013328	60	0	60-180	60	171	NoGap	1	40	4	3	0	distractor	1	600	13.328	13.324	13.333
ProbeTrack7	6	ProbeTrack	1404	SCS215g	733709.415939	733709.420881	8	0.013328	60	0	60-180	60	66	NoGap	1	41	4	3	0	distractor	1	613	13.328	13.324	13.333
ProbeTrack7	6	ProbeTrack	1404	SCS215g	733709.415939	733709.420940	8	0.013328	60	0	60-180	60	76	NoGap	1	42	4	6	1	target	1	533	13.328	13.327	13.330
ProbeTrack7	6	ProbeTrack	1404	SCS215g	733709.415939	733709.420997	8	0.013328	60	0	60-180	60	122	NoGap	1	43	4	96	0	distractor	1	600	13.328	13.323	13.333
ProbeTrack7	6	ProbeTrack	1404	SCS215g	733709.415939	733709.421081	8	0.013328	60	0	60-180	60	153	NoGap	1	44	4	0	1	target	1	653	13.328	13.326	13.331
ProbeTrack7	6	ProbeTrack	1404	SCS215g	733709.415939	733709.421147	8	0.013328	60	0	60-180	60	127	NoGap	1	45	4	0	0	distractor	1	560	13.328	13.323	13.333
ProbeTrack7	6	ProbeTrack	1404	SCS215g	733709.415939	733709.421209	8	0.013328	60	0	60-180	60	180	NoGap	1	46	4	96	1	distractor	0	454	13.328	13.324	13.333
ProbeTrack7	6	ProbeTrack	1404	SCS215g	733709.415939	733709.421295	8	0.013328	60	0	60-180	60	158	NoGap	1	47	4	6	1	distractor	0	600	13.328	13.323	13.334
ProbeTrack7	6	ProbeTrack	1404	SCS215g	733709.415939	733709.421367	8	0.013328	60	0	60-180	60	123	NoGap	1	48	4	96	0	distractor	1	573	13.328	13.323	13.333
ProbeTrack7	6	ProbeTrack	1404	SCS215g	733709.415939	733709.421562	8	0.013328	60	0	60-180	60	125	NoGap	1	49	4	96	1	distractor	0	467	13.328	13.323	13.333
ProbeTrack7	6	ProbeTrack	1404	SCS215g	733709.415939	733709.421644	8	0.013328	60	0	60-180	60	123	NoGap	1	50	4	6	1	distractor	0	640	13.328	13.324	13.334
ProbeTrack7	6	ProbeTrack	1404	SCS215g	733709.422499	733709.422647	8	0.013328	60	10	60-180	60	115	GapPrac	1	1	4	96	0	distractor	1	387	13.328	13.324	13.333
ProbeTrack7	6	ProbeTrack	1404	SCS215g	733709.422499	733709.422757	8	0.013328	60	10	60-180	60	154	GapPrac	1	2	4	6	1	distractor	0	613	13.328	13.324	13.332
ProbeTrack7	6	ProbeTrack	1404	SCS215g	733709.422499	733709.422842	8	0.013328	60	10	60-180	60	83	GapPrac	1	3	4	0	1	target	1	800	13.328	13.323	13.333
ProbeTrack7	6	ProbeTrack	1404	SCS215g	733709.422499	733709.422959	8	0.013328	60	10	60-180	60	86	GapPrac	1	4	4	0	0	distractor	1	467	13.328	13.324	13.333
ProbeTrack7	6	ProbeTrack	1404	SCS215g	733709.422499	733709.423024	8	0.013328	60	10	60-180	60	127	GapPrac	1	5	4	0	1	target	1	560	13.328	13.324	13.333
ProbeTrack7	6	ProbeTrack	1404	SCS215g	733709.422499	733709.423090	8	0.013328	60	10	60-180	60	107	GapPrac	1	6	4	6	0	target	0	533	13.328	13.327	13.330
ProbeTrack7	6	ProbeTrack	1404	SCS215g	733709.422499	733709.423179	8	0.013328	60	10	60-180	60	65	GapPrac	1	7	4	3	1	distractor	0	453	13.328	13.319	13.338
ProbeTrack7	6	ProbeTrack	1404	SCS215g	733709.422499	733709.423235	8	0.013328	60	10	60-180	60	166	GapPrac	1	8	4	0	0	distractor	1	600	13.328	13.322	13.334
ProbeTrack7	6	ProbeTrack	1404	SCS215g	733709.422499	733709.423347	8	0.013328	60	10	60-180	60	129	GapPrac	1	9	4	96	0	distractor	1	454	13.328	13.324	13.331
ProbeTrack7	6	ProbeTrack	1404	SCS215g	733709.422499	733709.423431	8	0.013328	60	10	60-180	60	180	GapPrac	1	10	4	6	1	target	1	360	13.328	13.324	13.334
ProbeTrack7	6	ProbeTrack	1404	SCS215g	733709.422499	733709.423556	8	0.013328	60	10	60-180	60	169	GapPrac	1	11	4	96	1	target	1	547	13.328	13.317	13.341
ProbeTrack7	6	ProbeTrack	1404	SCS215g	733709.422499	733709.423646	8	0.013328	60	10	60-180	60	67	GapPrac	1	12	4	0	1	distractor	0	467	13.328	13.326	13.330
ProbeTrack7	6	ProbeTrack	1404	SCS215g	733709.422499	733709.423709	8	0.013328	60	10	60-180	60	87	GapPrac	1	13	4	6	0	distractor	1	600	13.328	13.326	13.330
ProbeTrack7	6	ProbeTrack	1404	SCS215g	733709.422499	733709.423808	8	0.013328	60	10	60-180	60	97	GapPrac	1	14	4	96	0	distractor	1	547	13.328	13.324	13.333
ProbeTrack7	6	ProbeTrack	1404	SCS215g	733709.422499	733709.423911	8	0.013328	60	10	60-180	60	114	GapPrac	1	15	4	3	0	distractor	1	467	13.328	13.324	13.333
ProbeTrack7	6	ProbeTrack	1404	SCS215g	733709.422499	733709.423973	8	0.013328	60	10	60-180	60	87	GapPrac	1	16	4	3	1	target	1	627	13.328	13.327	13.330
ProbeTrack7	6	ProbeTrack	1404	SCS215g	733709.422499	733709.424033	8	0.013328	60	10	60-180	60	132	GapPrac	1	17	4	96	1	target	1	747	13.328	13.324	13.333
ProbeTrack7	6	ProbeTrack	1404	SCS215g	733709.422499	733709.424118	8	0.013328	60	10	60-180	60	103	GapPrac	1	18	4	6	1	distractor	0	520	13.328	13.312	13.345
ProbeTrack7	6	ProbeTrack	1404	SCS215g	733709.422499	733709.424181	8	0.013328	60	10	60-180	60	92	GapPrac	1	19	4	3	0	target	0	533	13.328	13.323	13.333
ProbeTrack7	6	ProbeTrack	1404	SCS215g	733709.422499	733709.424240	8	0.013328	60	10	60-180	60	125	GapPrac	1	20	4	0	0	target	0	600	13.328	13.323	13.333
ProbeTrack7	6	ProbeTrack	1404	SCS215g	733709.425314	733709.425389	8	0.013328	60	10	60-180	60	176	GapPrac	1	1	4	0	1	distractor	0	573	13.328	13.320	13.336
ProbeTrack7	6	ProbeTrack	1404	SCS215g	733709.425314	733709.425474	8	0.013328	60	10	60-180	60	150	GapPrac	1	2	4	6	0	target	0	440	13.328	13.323	13.332
ProbeTrack7	6	ProbeTrack	1404	SCS215g	733709.425314	733709.425564	8	0.013328	60	10	60-180	60	102	GapPrac	1	3	4	3	1	target	1	653	13.328	13.324	13.334
ProbeTrack7	6	ProbeTrack	1404	SCS215g	733709.425314	733709.425647	8	0.013328	60	10	60-180	60	133	GapPrac	1	4	4	3	0	distractor	1	520	13.328	13.323	13.334
ProbeTrack7	6	ProbeTrack	1404	SCS215g	733709.425314	733709.425715	8	0.013328	60	10	60-180	60	139	GapPrac	1	5	4	96	1	target	1	640	13.328	13.324	13.334
ProbeTrack7	6	ProbeTrack	1404	SCS215g	733709.425314	733709.425801	8	0.013328	60	10	60-180	60	170	GapPrac	1	6	4	3	1	target	1	827	13.328	13.324	13.333
ProbeTrack7	6	ProbeTrack	1404	SCS215g	733709.425314	733709.425881	8	0.013328	60	10	60-180	60	103	GapPrac	1	7	4	0	0	target	0	893	13.328	13.327	13.330
ProbeTrack7	6	ProbeTrack	1404	SCS215g	733709.425314	733709.425955	8	0.013328	60	10	60-180	60	138	GapPrac	1	8	4	0	0	target	0	627	13.328	13.324	13.332
ProbeTrack7	6	ProbeTrack	1404	SCS215g	733709.425314	733709.426031	8	0.013328	60	10	60-180	60	137	GapPrac	1	9	4	3	0	distractor	1	893	13.328	13.324	13.333
ProbeTrack7	6	ProbeTrack	1404	SCS215g	733709.425314	733709.426106	8	0.013328	60	10	60-180	60	145	GapPrac	1	10	4	0	1	target	1	707	13.328	13.321	13.337
ProbeTrack7	6	ProbeTrack	1404	SCS215g	733709.425314	733709.426191	8	0.013328	60	10	60-180	60	101	GapPrac	1	11	4	3	1	target	1	454	13.328	13.317	13.339
ProbeTrack7	6	ProbeTrack	1404	SCS215g	733709.425314	733709.426261	8	0.013328	60	10	60-180	60	124	GapPrac	1	12	4	6	0	distractor	1	680	13.328	13.322	13.334
ProbeTrack7	6	ProbeTrack	1404	SCS215g	733709.425314	733709.426327	8	0.013328	60	10	60-180	60	133	GapPrac	1	13	4	6	1	target	1	627	13.328	13.324	13.333
ProbeTrack7	6	ProbeTrack	1404	SCS215g	733709.425314	733709.426396	8	0.013328	60	10	60-180	60	141	GapPrac	1	14	4	0	1	target	1	747	13.328	13.323	13.334
ProbeTrack7	6	ProbeTrack	1404	SCS215g	733709.425314	733709.426465	8	0.013328	60	10	60-180	60	116	GapPrac	1	15	4	3	0	distractor	1	574	13.328	13.324	13.332
ProbeTrack7	6	ProbeTrack	1404	SCS215g	733709.425314	733709.426528	8	0.013328	60	10	60-180	60	126	GapPrac	1	16	4	6	0	target	0	507	13.328	13.321	13.336
ProbeTrack7	6	ProbeTrack	1404	SCS215g	733709.425314	733709.426586	8	0.013328	60	10	60-180	60	150	GapPrac	1	17	4	96	0	distractor	1	640	13.328	13.324	13.333
ProbeTrack7	6	ProbeTrack	1404	SCS215g	733709.425314	733709.426670	8	0.013328	60	10	60-180	60	85	GapPrac	1	18	4	6	1	target	1	560	13.328	13.327	13.330
ProbeTrack7	6	ProbeTrack	1404	SCS215g	733709.425314	733709.426739	8	0.013328	60	10	60-180	60	161	GapPrac	1	19	4	96	1	distractor	0	667	13.328	13.323	13.333
ProbeTrack7	6	ProbeTrack	1404	SCS215g	733709.425314	733709.426825	8	0.013328	60	10	60-180	60	167	GapPrac	1	20	4	96	0	distractor	1	747	13.328	13.314	13.343
ProbeTrack7	6	ProbeTrack	1404	SCS215g	733709.427192	733709.427266	8	0.013328	60	10	60-180	60	91	GapPrac	1	1	4	6	0	distractor	1	613	13.328	13.325	13.332
ProbeTrack7	6	ProbeTrack	1404	SCS215g	733709.427192	733709.427350	8	0.013328	60	10	60-180	60	110	GapPrac	1	2	4	6	1	target	1	667	13.328	13.324	13.334
ProbeTrack7	6	ProbeTrack	1404	SCS215g	733709.427192	733709.427416	8	0.013328	60	10	60-180	60	115	GapPrac	1	3	4	96	0	distractor	1	627	13.328	13.323	13.333
ProbeTrack7	6	ProbeTrack	1404	SCS215g	733709.427192	733709.427494	8	0.013328	60	10	60-180	60	121	GapPrac	1	4	4	3	1	target	1	653	13.328	13.324	13.333
ProbeTrack7	6	ProbeTrack	1404	SCS215g	733709.427192	733709.427577	8	0.013328	60	10	60-180	60	150	GapPrac	1	5	4	0	1	target	1	573	13.328	13.325	13.333
ProbeTrack7	6	ProbeTrack	1404	SCS215g	733709.427192	733709.427656	8	0.013328	60	10	60-180	60	86	GapPrac	1	6	4	3	1	distractor	0	454	13.328	13.327	13.330
ProbeTrack7	6	ProbeTrack	1404	SCS215g	733709.427192	733709.427716	8	0.013328	60	10	60-180	60	73	GapPrac	1	7	4	0	0	distractor	1	613	13.328	13.324	13.333
ProbeTrack7	6	ProbeTrack	1404	SCS215g	733709.427192	733709.427772	8	0.013328	60	10	60-180	60	152	GapPrac	1	8	4	96	0	distractor	1	640	13.328	13.322	13.334
ProbeTrack7	6	ProbeTrack	1404	SCS215g	733709.427192	733709.427859	8	0.013328	60	10	60-180	60	97	GapPrac	1	9	4	6	1	distractor	0	440	13.328	13.324	13.332
ProbeTrack7	6	ProbeTrack	1404	SCS215g	733709.427192	733709.427921	8	0.013328	60	10	60-180	60	93	GapPrac	1	10	4	96	1	target	1	520	13.328	13.324	13.333
ProbeTrack7	6	ProbeTrack	1404	SCS215g	733709.427192	733709.427998	8	0.013328	60	10	60-180	60	157	GapPrac	1	11	4	6	0	distractor	1	533	13.328	13.324	13.332
ProbeTrack7	6	ProbeTrack	1404	SCS215g	733709.427192	733709.428087	8	0.013328	60	10	60-180	60	132	GapPrac	1	12	4	6	1	target	1	827	13.328	13.323	13.334
ProbeTrack7	6	ProbeTrack	1404	SCS215g	733709.427192	733709.428161	8	0.013328	60	10	60-180	60	67	GapPrac	1	13	4	6	0	distractor	1	534	13.328	13.314	13.343
ProbeTrack7	6	ProbeTrack	1404	SCS215g	733709.427192	733709.428221	8	0.013328	60	10	60-180	60	102	GapPrac	1	14	4	3	1	target	1	600	13.328	13.323	13.334
ProbeTrack7	6	ProbeTrack	1404	SCS215g	733709.427192	733709.428285	8	0.013328	60	10	60-180	60	175	GapPrac	1	15	4	3	0	target	0	640	13.328	13.323	13.333
ProbeTrack7	6	ProbeTrack	1404	SCS215g	733709.427192	733709.428476	8	0.013328	60	10	60-180	60	116	GapPrac	1	16	4	0	1	distractor	0	827	13.328	13.323	13.333
ProbeTrack7	6	ProbeTrack	1404	SCS215g	733709.427192	733709.428552	8	0.013328	60	10	60-180	60	93	GapPrac	1	17	4	0	0	distractor	1	773	13.328	13.325	13.333
ProbeTrack7	6	ProbeTrack	1404	SCS215g	733709.427192	733709.428623	8	0.013328	60	10	60-180	60	91	GapPrac	1	18	4	96	1	target	1	467	13.328	13.323	13.334
ProbeTrack7	6	ProbeTrack	1404	SCS215g	733709.427192	733709.428699	8	0.013328	60	10	60-180	60	94	GapPrac	1	19	4	96	0	distractor	1	480	13.328	13.324	13.334
ProbeTrack7	6	ProbeTrack	1404	SCS215g	733709.427192	733709.428777	8	0.013328	60	10	60-180	60	167	GapPrac	1	20	4	3	0	target	0	813	13.328	13.324	13.333
ProbeTrack7	6	ProbeTrack	1404	SCS215g	733709.430349	733709.430403	8	0.013328	60	10	60-180	60	96	GapPrac	1	1	4	6	0	distractor	1	667	13.328	13.325	13.332
ProbeTrack7	6	ProbeTrack	1404	SCS215g	733709.430349	733709.430474	8	0.013328	60	10	60-180	60	179	GapPrac	1	2	4	6	1	target	1	374	13.328	13.324	13.333
ProbeTrack7	6	ProbeTrack	1404	SCS215g	733709.430349	733709.430548	8	0.013328	60	10	60-180	60	80	GapPrac	1	3	4	0	0	target	0	613	13.328	13.317	13.340
ProbeTrack7	6	ProbeTrack	1404	SCS215g	733709.430349	733709.430607	8	0.013328	60	10	60-180	60	145	GapPrac	1	4	4	3	0	target	0	600	13.328	13.324	13.332
ProbeTrack7	6	ProbeTrack	1404	SCS215g	733709.430349	733709.430672	8	0.013328	60	10	60-180	60	64	GapPrac	1	5	4	6	0	distractor	1	867	13.328	13.324	13.333
ProbeTrack7	6	ProbeTrack	1404	SCS215g	733709.430349	733709.430740	8	0.013328	60	10	60-180	60	115	GapPrac	1	6	4	96	1	distractor	0	560	13.328	13.324	13.333
ProbeTrack7	6	ProbeTrack	1404	SCS215g	733709.430349	733709.430828	8	0.013328	60	10	60-180	60	128	GapPrac	1	7	4	3	1	target	1	587	13.328	13.323	13.333
ProbeTrack7	6	ProbeTrack	1404	SCS215g	733709.430349	733709.430926	8	0.013328	60	10	60-180	60	74	GapPrac	1	8	4	0	1	target	1	920	13.328	13.323	13.333
ProbeTrack7	6	ProbeTrack	1404	SCS215g	733709.430349	733709.430989	8	0.013328	60	10	60-180	60	101	GapPrac	1	9	4	0	0	target	0	653	13.328	13.323	13.334
ProbeTrack7	6	ProbeTrack	1404	SCS215g	733709.430349	733709.431057	8	0.013328	60	10	60-180	60	75	GapPrac	1	10	4	6	1	distractor	0	480	13.328	13.314	13.342
ProbeTrack7	6	ProbeTrack	1404	SCS215g	733709.430349	733709.431114	8	0.013328	60	10	60-180	60	165	GapPrac	1	11	4	96	0	target	0	640	13.328	13.323	13.334
ProbeTrack7	6	ProbeTrack	1404	SCS215g	733709.430349	733709.431204	8	0.013328	60	10	60-180	60	177	GapPrac	1	12	4	96	0	distractor	1	547	13.328	13.325	13.333
ProbeTrack7	6	ProbeTrack	1404	SCS215g	733709.430349	733709.431298	8	0.013328	60	10	60-180	60	159	GapPrac	1	13	4	3	0	target	0	560	13.328	13.324	13.333
ProbeTrack7	6	ProbeTrack	1404	SCS215g	733709.430349	733709.431375	8	0.013328	60	10	60-180	60	95	GapPrac	1	14	4	3	0	distractor	1	907	13.328	13.324	13.333
ProbeTrack7	6	ProbeTrack	1404	SCS215g	733709.430349	733709.431441	8	0.013328	60	10	60-180	60	178	GapPrac	1	15	4	0	1	target	1	613	13.328	13.325	13.333
ProbeTrack7	6	ProbeTrack	1404	SCS215g	733709.430349	733709.431514	8	0.013328	60	10	60-180	60	80	GapPrac	1	16	4	0	0	distractor	1	707	13.328	13.324	13.333
ProbeTrack7	6	ProbeTrack	1404	SCS215g	733709.430349	733709.431568	8	0.013328	60	10	60-180	60	103	GapPrac	1	17	4	96	1	target	1	573	13.328	13.326	13.331
ProbeTrack7	6	ProbeTrack	1404	SCS215g	733709.430349	733709.431644	8	0.013328	60	10	60-180	60	95	GapPrac	1	18	4	3	1	target	1	653	13.328	13.323	13.334
ProbeTrack7	6	ProbeTrack	1404	SCS215g	733709.430349	733709.431705	8	0.013328	60	10	60-180	60	133	GapPrac	1	19	4	6	0	distractor	1	693	13.328	13.323	13.333
ProbeTrack7	6	ProbeTrack	1404	SCS215g	733709.430349	733709.431772	8	0.013328	60	10	60-180	60	121	GapPrac	1	20	4	6	1	target	1	653	13.328	13.323	13.334
ProbeTrack7	6	ProbeTrack	1404	SCS215g	733709.432266	733709.432431	8	0.013328	60	10	60-180	60	165	GapExp	1	1	4	0	0	target	0	640	13.328	13.324	13.332
ProbeTrack7	6	ProbeTrack	1404	SCS215g	733709.432266	733709.432606	8	0.013328	60	10	60-180	60	108	GapExp	1	2	4	96	1	distractor	0	693	13.328	13.316	13.340
ProbeTrack7	6	ProbeTrack	1404	SCS215g	733709.432266	733709.432701	8	0.013328	60	10	60-180	60	175	GapExp	1	3	4	96	0	target	0	707	13.328	13.319	13.338
ProbeTrack7	6	ProbeTrack	1404	SCS215g	733709.432266	733709.432789	8	0.013328	60	10	60-180	60	93	GapExp	1	4	4	6	0	distractor	1	627	13.328	13.323	13.334
ProbeTrack7	6	ProbeTrack	1404	SCS215g	733709.432266	733709.432868	8	0.013328	60	10	60-180	60	70	GapExp	1	5	4	3	1	target	1	600	13.328	13.326	13.330
ProbeTrack7	6	ProbeTrack	1404	SCS215g	733709.432266	733709.432939	8	0.013328	60	10	60-180	60	127	GapExp	0	6	4	3	0	target	0	667	13.328	13.323	13.333
ProbeTrack7	6	ProbeTrack	1404	SCS215g	733709.432266	733709.433085	8	0.013328	60	10	60-180	60	73	GapExp	0	7	4	96	1	target	1	493	13.328	13.324	13.333
ProbeTrack7	6	ProbeTrack	1404	SCS215g	733709.432266	733709.433164	8	0.013328	60	10	60-180	60	178	GapExp	0	8	4	96	1	target	1	693	13.328	13.324	13.332
ProbeTrack7	6	ProbeTrack	1404	SCS215g	733709.432266	733709.433259	8	0.013328	60	10	60-180	60	167	GapExp	0	9	4	3	1	target	1	693	13.328	13.323	13.333
ProbeTrack7	6	ProbeTrack	1404	SCS215g	733709.432266	733709.433340	8	0.013328	60	10	60-180	60	113	GapExp	0	10	4	96	1	target	1	600	13.328	13.323	13.333
ProbeTrack7	6	ProbeTrack	1404	SCS215g	733709.432266	733709.433424	8	0.013328	60	10	60-180	60	121	GapExp	0	11	4	6	1	distractor	0	680	13.328	13.326	13.331
ProbeTrack7	6	ProbeTrack	1404	SCS215g	733709.432266	733709.433498	8	0.013328	60	10	60-180	60	120	GapExp	0	12	4	6	1	target	1	520	13.328	13.323	13.334
ProbeTrack7	6	ProbeTrack	1404	SCS215g	733709.432266	733709.433580	8	0.013328	60	10	60-180	60	103	GapExp	0	13	4	6	1	target	1	680	13.328	13.323	13.335
ProbeTrack7	6	ProbeTrack	1404	SCS215g	733709.432266	733709.433649	8	0.013328	60	10	60-180	60	126	GapExp	0	14	4	6	0	distractor	1	560	13.328	13.323	13.333
ProbeTrack7	6	ProbeTrack	1404	SCS215g	733709.432266	733709.433718	8	0.013328	60	10	60-180	60	102	GapExp	0	15	4	96	1	target	1	600	13.328	13.322	13.334
ProbeTrack7	6	ProbeTrack	1404	SCS215g	733709.432266	733709.433839	8	0.013328	60	10	60-180	60	169	GapExp	0	16	4	6	1	target	1	374	13.328	13.324	13.333
ProbeTrack7	6	ProbeTrack	1404	SCS215g	733709.432266	733709.433916	8	0.013328	60	10	60-180	60	142	GapExp	0	17	4	3	1	target	1	760	13.328	13.324	13.334
ProbeTrack7	6	ProbeTrack	1404	SCS215g	733709.432266	733709.433986	8	0.013328	60	10	60-180	60	61	GapExp	0	18	4	6	1	target	1	547	13.328	13.322	13.335
ProbeTrack7	6	ProbeTrack	1404	SCS215g	733709.432266	733709.434048	8	0.013328	60	10	60-180	60	158	GapExp	0	19	4	0	0	distractor	1	893	13.328	13.321	13.335
ProbeTrack7	6	ProbeTrack	1404	SCS215g	733709.432266	733709.434129	8	0.013328	60	10	60-180	60	134	GapExp	0	20	4	6	1	target	1	587	13.328	13.321	13.337
ProbeTrack7	6	ProbeTrack	1404	SCS215g	733709.432266	733709.434233	8	0.013328	60	10	60-180	60	90	GapExp	0	21	4	0	0	distractor	1	720	13.328	13.323	13.334
ProbeTrack7	6	ProbeTrack	1404	SCS215g	733709.432266	733709.434314	8	0.013328	60	10	60-180	60	160	GapExp	0	22	4	0	0	distractor	1	773	13.328	13.324	13.333
ProbeTrack7	6	ProbeTrack	1404	SCS215g	733709.432266	733709.434392	8	0.013328	60	10	60-180	60	147	GapExp	0	23	4	96	0	target	0	640	13.328	13.323	13.332
ProbeTrack7	6	ProbeTrack	1404	SCS215g	733709.432266	733709.434476	8	0.013328	60	10	60-180	60	83	GapExp	0	24	4	6	0	target	0	600	13.328	13.324	13.334
ProbeTrack7	6	ProbeTrack	1404	SCS215g	733709.432266	733709.434540	8	0.013328	60	10	60-180	60	80	GapExp	0	25	4	6	1	target	1	920	13.328	13.322	13.336
ProbeTrack7	6	ProbeTrack	1404	SCS215g	733709.432266	733709.434610	8	0.013328	60	10	60-180	60	180	GapExp	0	26	4	6	0	distractor	1	560	13.328	13.324	13.333
ProbeTrack7	6	ProbeTrack	1404	SCS215g	733709.432266	733709.434684	8	0.013328	60	10	60-180	60	122	GapExp	0	27	4	96	1	target	1	547	13.328	13.321	13.337
ProbeTrack7	6	ProbeTrack	1404	SCS215g	733709.432266	733709.434791	8	0.013328	60	10	60-180	60	113	GapExp	0	28	4	3	1	target	1	547	13.328	13.324	13.333
ProbeTrack7	6	ProbeTrack	1404	SCS215g	733709.432266	733709.434896	8	0.013328	60	10	60-180	60	164	GapExp	0	29	4	6	0	distractor	1	414	13.328	13.325	13.332
ProbeTrack7	6	ProbeTrack	1404	SCS215g	733709.432266	733709.434982	8	0.013328	60	10	60-180	60	74	GapExp	0	30	4	96	1	target	1	507	13.328	13.324	13.334
ProbeTrack7	6	ProbeTrack	1404	SCS215g	733709.432266	733709.435053	8	0.013328	60	10	60-180	60	146	GapExp	0	31	4	0	1	target	1	454	13.328	13.324	13.332
ProbeTrack7	6	ProbeTrack	1404	SCS215g	733709.432266	733709.435117	8	0.013328	60	10	60-180	60	102	GapExp	0	32	4	3	0	distractor	1	533	13.328	13.325	13.332
ProbeTrack7	6	ProbeTrack	1404	SCS215g	733709.432266	733709.435178	8	0.013328	60	10	60-180	60	99	GapExp	0	33	4	0	0	distractor	1	533	13.328	13.324	13.333
ProbeTrack7	6	ProbeTrack	1404	SCS215g	733709.432266	733709.435253	8	0.013328	60	10	60-180	60	61	GapExp	0	34	4	3	1	target	1	414	13.328	13.327	13.330
ProbeTrack7	6	ProbeTrack	1404	SCS215g	733709.432266	733709.435304	8	0.013328	60	10	60-180	60	109	GapExp	0	35	4	6	0	target	0	640	13.328	13.324	13.332
ProbeTrack7	6	ProbeTrack	1404	SCS215g	733709.432266	733709.435369	8	0.013328	60	10	60-180	60	121	GapExp	0	36	4	3	1	target	1	467	13.328	13.323	13.333
ProbeTrack7	6	ProbeTrack	1404	SCS215g	733709.432266	733709.435432	8	0.013328	60	10	60-180	60	95	GapExp	0	37	4	3	0	distractor	1	480	13.328	13.324	13.334
ProbeTrack7	6	ProbeTrack	1404	SCS215g	733709.432266	733709.435492	8	0.013328	60	10	60-180	60	127	GapExp	0	38	4	96	0	target	0	640	13.328	13.322	13.334
ProbeTrack7	6	ProbeTrack	1404	SCS215g	733709.432266	733709.435571	8	0.013328	60	10	60-180	60	107	GapExp	0	39	4	6	1	target	1	573	13.328	13.321	13.337
ProbeTrack7	6	ProbeTrack	1404	SCS215g	733709.432266	733709.435632	8	0.013328	60	10	60-180	60	77	GapExp	0	40	4	3	1	target	1	534	13.328	13.327	13.330
ProbeTrack7	6	ProbeTrack	1404	SCS215g	733709.432266	733709.435693	8	0.013328	60	10	60-180	60	149	GapExp	0	41	4	96	1	target	1	640	13.328	13.317	13.338
ProbeTrack7	6	ProbeTrack	1404	SCS215g	733709.432266	733709.435774	8	0.013328	60	10	60-180	60	122	GapExp	0	42	4	0	1	target	1	640	13.328	13.322	13.333
ProbeTrack7	6	ProbeTrack	1404	SCS215g	733709.432266	733709.435837	8	0.013328	60	10	60-180	60	141	GapExp	0	43	4	96	0	distractor	1	533	13.328	13.324	13.332
ProbeTrack7	6	ProbeTrack	1404	SCS215g	733709.432266	733709.435922	8	0.013328	60	10	60-180	60	178	GapExp	0	44	4	96	1	target	1	573	13.328	13.323	13.334
ProbeTrack7	6	ProbeTrack	1404	SCS215g	733709.432266	733709.436009	8	0.013328	60	10	60-180	60	71	GapExp	0	45	4	3	0	distractor	1	560	13.328	13.322	13.335
ProbeTrack7	6	ProbeTrack	1404	SCS215g	733709.432266	733709.436064	8	0.013328	60	10	60-180	60	176	GapExp	0	46	4	6	0	distractor	1	653	13.328	13.324	13.333
ProbeTrack7	6	ProbeTrack	1404	SCS215g	733709.432266	733709.436135	8	0.013328	60	10	60-180	60	110	GapExp	0	47	4	0	0	target	0	933	13.328	13.324	13.333
ProbeTrack7	6	ProbeTrack	1404	SCS215g	733709.432266	733709.436215	8	0.013328	60	10	60-180	60	90	GapExp	0	48	4	6	0	target	0	627	13.328	13.324	13.330
ProbeTrack7	6	ProbeTrack	1404	SCS215g	733709.432266	733709.436341	8	0.013328	60	10	60-180	60	116	GapExp	0	49	4	6	0	distractor	1	547	13.328	13.324	13.333
ProbeTrack7	6	ProbeTrack	1404	SCS215g	733709.432266	733709.436411	8	0.013328	60	10	60-180	60	133	GapExp	0	50	4	3	0	distractor	1	507	13.328	13.323	13.332
ProbeTrack7	6	ProbeTrack	1404	SCS215g	733709.432266	733709.436476	8	0.013328	60	10	60-180	60	72	GapExp	0	51	4	96	0	target	0	560	13.328	13.324	13.333
ProbeTrack7	6	ProbeTrack	1404	SCS215g	733709.432266	733709.436555	8	0.013328	60	10	60-180	60	145	GapExp	0	52	4	0	1	target	1	760	13.328	13.319	13.336
ProbeTrack7	6	ProbeTrack	1404	SCS215g	733709.432266	733709.436655	8	0.013328	60	10	60-180	60	176	GapExp	0	53	4	0	1	target	1	507	13.328	13.323	13.334
ProbeTrack7	6	ProbeTrack	1404	SCS215g	733709.432266	733709.436803	8	0.013328	60	10	60-180	60	124	GapExp	0	54	4	96	0	distractor	1	613	13.328	13.324	13.333
ProbeTrack7	6	ProbeTrack	1404	SCS215g	733709.432266	733709.436891	8	0.013328	60	10	60-180	60	171	GapExp	0	55	4	3	1	target	1	680	13.328	13.322	13.336
ProbeTrack7	6	ProbeTrack	1404	SCS215g	733709.432266	733709.436966	8	0.013328	60	10	60-180	60	94	GapExp	0	56	4	6	1	target	1	733	13.328	13.327	13.330
ProbeTrack7	6	ProbeTrack	1404	SCS215g	733709.432266	733709.437031	8	0.013328	60	10	60-180	60	135	GapExp	0	57	4	6	1	target	1	400	13.328	13.325	13.334
ProbeTrack7	6	ProbeTrack	1404	SCS215g	733709.432266	733709.437106	8	0.013328	60	10	60-180	60	151	GapExp	0	58	4	3	0	distractor	1	587	13.328	13.323	13.334
ProbeTrack7	6	ProbeTrack	1404	SCS215g	733709.432266	733709.437177	8	0.013328	60	10	60-180	60	61	GapExp	0	59	4	6	0	distractor	1	613	13.328	13.325	13.332
ProbeTrack7	6	ProbeTrack	1404	SCS215g	733709.432266	733709.437236	8	0.013328	60	10	60-180	60	155	GapExp	0	60	4	6	0	distractor	1	667	13.328	13.324	13.333
ProbeTrack7	6	ProbeTrack	1404	SCS215g	733709.432266	733709.437315	8	0.013328	60	10	60-180	60	65	GapExp	0	61	4	3	1	distractor	0	480	13.328	13.324	13.334
ProbeTrack7	6	ProbeTrack	1404	SCS215g	733709.432266	733709.437427	8	0.013328	60	10	60-180	60	99	GapExp	0	62	4	3	0	distractor	1	640	13.328	13.324	13.333
ProbeTrack7	6	ProbeTrack	1404	SCS215g	733709.432266	733709.437501	8	0.013328	60	10	60-180	60	180	GapExp	0	63	4	6	1	target	1	813	13.328	13.319	13.338
ProbeTrack7	6	ProbeTrack	1404	SCS215g	733709.432266	733709.437583	8	0.013328	60	10	60-180	60	112	GapExp	0	64	4	0	0	target	0	667	13.328	13.324	13.333
ProbeTrack7	6	ProbeTrack	1404	SCS215g	733709.432266	733709.437654	8	0.013328	60	10	60-180	60	77	GapExp	0	65	4	3	0	distractor	1	587	13.328	13.325	13.331
ProbeTrack7	6	ProbeTrack	1404	SCS215g	733709.432266	733709.437713	8	0.013328	60	10	60-180	60	74	GapExp	0	66	4	96	0	distractor	1	613	13.328	13.317	13.340
ProbeTrack7	6	ProbeTrack	1404	SCS215g	733709.432266	733709.437789	8	0.013328	60	10	60-180	60	176	GapExp	0	67	4	96	0	distractor	1	720	13.328	13.324	13.333
ProbeTrack7	6	ProbeTrack	1404	SCS215g	733709.432266	733709.437884	8	0.013328	60	10	60-180	60	76	GapExp	0	68	4	96	0	distractor	1	653	13.328	13.324	13.332
ProbeTrack7	6	ProbeTrack	1404	SCS215g	733709.432266	733709.437963	8	0.013328	60	10	60-180	60	136	GapExp	0	69	4	0	0	distractor	1	533	13.328	13.318	13.338
ProbeTrack7	6	ProbeTrack	1404	SCS215g	733709.432266	733709.438042	8	0.013328	60	10	60-180	60	61	GapExp	0	70	4	96	1	target	1	653	13.328	13.324	13.333
ProbeTrack7	6	ProbeTrack	1404	SCS215g	733709.432266	733709.438120	8	0.013328	60	10	60-180	60	132	GapExp	0	71	4	3	0	distractor	1	707	13.328	13.327	13.330
ProbeTrack7	6	ProbeTrack	1404	SCS215g	733709.432266	733709.438194	8	0.013328	60	10	60-180	60	162	GapExp	0	72	4	0	0	target	0	907	13.328	13.324	13.334
ProbeTrack7	6	ProbeTrack	1404	SCS215g	733709.432266	733709.438287	8	0.013328	60	10	60-180	60	126	GapExp	0	73	4	96	1	distractor	0	493	13.328	13.324	13.334
ProbeTrack7	6	ProbeTrack	1404	SCS215g	733709.432266	733709.438378	8	0.013328	60	10	60-180	60	68	GapExp	0	74	4	3	1	target	1	627	13.328	13.327	13.330
ProbeTrack7	6	ProbeTrack	1404	SCS215g	733709.432266	733709.438444	8	0.013328	60	10	60-180	60	89	GapExp	0	75	4	3	1	target	1	440	13.328	13.327	13.330
ProbeTrack7	6	ProbeTrack	1404	SCS215g	733709.432266	733709.438861	8	0.013328	60	10	60-180	60	97	GapExp	0	76	4	96	0	distractor	1	560	13.328	13.324	13.333
ProbeTrack7	6	ProbeTrack	1404	SCS215g	733709.432266	733709.438936	8	0.013328	60	10	60-180	60	154	GapExp	0	77	4	3	0	distractor	1	494	13.328	13.324	13.332
ProbeTrack7	6	ProbeTrack	1404	SCS215g	733709.432266	733709.439003	8	0.013328	60	10	60-180	60	175	GapExp	0	78	4	6	1	target	1	587	13.328	13.321	13.335
ProbeTrack7	6	ProbeTrack	1404	SCS215g	733709.432266	733709.439081	8	0.013328	60	10	60-180	60	100	GapExp	0	79	4	3	1	target	1	600	13.328	13.325	13.332
ProbeTrack7	6	ProbeTrack	1404	SCS215g	733709.432266	733709.439164	8	0.013328	60	10	60-180	60	88	GapExp	0	80	4	96	1	target	1	480	13.328	13.323	13.333
ProbeTrack7	6	ProbeTrack	1404	SCS215g	733709.432266	733709.439238	8	0.013328	60	10	60-180	60	77	GapExp	0	81	4	3	0	distractor	1	507	13.328	13.327	13.330
ProbeTrack7	6	ProbeTrack	1404	SCS215g	733709.432266	733709.439315	8	0.013328	60	10	60-180	60	98	GapExp	0	82	4	6	0	distractor	1	627	13.328	13.324	13.332
ProbeTrack7	6	ProbeTrack	1404	SCS215g	733709.432266	733709.439393	8	0.013328	60	10	60-180	60	132	GapExp	0	83	4	6	1	distractor	0	653	13.328	13.324	13.333
ProbeTrack7	6	ProbeTrack	1404	SCS215g	733709.432266	733709.439486	8	0.013328	60	10	60-180	60	149	GapExp	0	84	4	96	1	distractor	0	720	13.328	13.326	13.331
ProbeTrack7	6	ProbeTrack	1404	SCS215g	733709.432266	733709.439591	8	0.013328	60	10	60-180	60	161	GapExp	0	85	4	6	1	target	1	480	13.328	13.323	13.333
ProbeTrack7	6	ProbeTrack	1404	SCS215g	733709.432266	733709.439666	8	0.013328	60	10	60-180	60	178	GapExp	0	86	4	3	0	distractor	1	547	13.328	13.322	13.335
ProbeTrack7	6	ProbeTrack	1404	SCS215g	733709.432266	733709.439741	8	0.013328	60	10	60-180	60	90	GapExp	0	87	4	0	1	target	1	587	13.328	13.323	13.333
ProbeTrack7	6	ProbeTrack	1404	SCS215g	733709.432266	733709.440214	8	0.013328	60	10	60-180	60	127	GapExp	0	88	4	3	1	target	1	627	13.328	13.324	13.332
ProbeTrack7	6	ProbeTrack	1404	SCS215g	733709.432266	733709.440278	8	0.013328	60	10	60-180	60	105	GapExp	0	89	4	0	1	distractor	0	707	13.328	13.326	13.332
ProbeTrack7	6	ProbeTrack	1404	SCS215g	733709.432266	733709.440340	8	0.013328	60	10	60-180	60	126	GapExp	0	90	4	3	1	target	1	600	13.328	13.327	13.331
ProbeTrack7	6	ProbeTrack	1404	SCS215g	733709.432266	733709.440406	8	0.013328	60	10	60-180	60	138	GapExp	0	91	4	0	1	target	1	520	13.328	13.325	13.332
ProbeTrack7	6	ProbeTrack	1404	SCS215g	733709.432266	733709.440469	8	0.013328	60	10	60-180	60	141	GapExp	0	92	4	6	0	distractor	1	680	13.328	13.325	13.332
ProbeTrack7	6	ProbeTrack	1404	SCS215g	733709.432266	733709.440535	8	0.013328	60	10	60-180	60	70	GapExp	0	93	4	0	0	distractor	1	600	13.328	13.327	13.330
ProbeTrack7	6	ProbeTrack	1404	SCS215g	733709.432266	733709.440592	8	0.013328	60	10	60-180	60	137	GapExp	0	94	4	96	0	distractor	1	653	13.328	13.323	13.334
ProbeTrack7	6	ProbeTrack	1404	SCS215g	733709.432266	733709.440674	8	0.013328	60	10	60-180	60	66	GapExp	0	95	4	0	1	target	1	627	13.328	13.324	13.333
ProbeTrack7	6	ProbeTrack	1404	SCS215g	733709.432266	733709.440738	8	0.013328	60	10	60-180	60	110	GapExp	0	96	4	0	1	target	1	547	13.328	13.324	13.334
ProbeTrack7	6	ProbeTrack	1404	SCS215g	733709.432266	733709.440801	8	0.013328	60	10	60-180	60	104	GapExp	0	97	4	6	0	target	0	760	13.328	13.323	13.333
ProbeTrack7	6	ProbeTrack	1404	SCS215g	733709.432266	733709.440867	8	0.013328	60	10	60-180	60	172	GapExp	0	98	4	0	0	distractor	1	600	13.328	13.323	13.334
ProbeTrack7	6	ProbeTrack	1404	SCS215g	733709.432266	733709.440939	8	0.013328	60	10	60-180	60	168	GapExp	0	99	4	0	1	target	1	507	13.328	13.323	13.335
ProbeTrack7	6	ProbeTrack	1404	SCS215g	733709.432266	733709.441011	8	0.013328	60	10	60-180	60	81	GapExp	0	100	4	3	0	distractor	1	827	13.328	13.326	13.331
ProbeTrack7	6	ProbeTrack	1404	SCS215g	733709.432266	733709.441085	8	0.013328	60	10	60-180	60	62	GapExp	0	101	4	96	0	target	0	493	13.328	13.324	13.332
ProbeTrack7	6	ProbeTrack	1404	SCS215g	733709.432266	733709.441154	8	0.013328	60	10	60-180	60	123	GapExp	0	102	4	0	1	target	1	680	13.328	13.318	13.339
ProbeTrack7	6	ProbeTrack	1404	SCS215g	733709.432266	733709.441219	8	0.013328	60	10	60-180	60	101	GapExp	0	103	4	96	1	distractor	0	440	13.328	13.311	13.347
ProbeTrack7	6	ProbeTrack	1404	SCS215g	733709.432266	733709.441299	8	0.013328	60	10	60-180	60	179	GapExp	0	104	4	3	0	target	0	613	13.328	13.323	13.334
ProbeTrack7	6	ProbeTrack	1404	SCS215g	733709.432266	733709.441374	8	0.013328	60	10	60-180	60	173	GapExp	0	105	4	0	1	distractor	0	1440	13.328	13.323	13.333
ProbeTrack7	6	ProbeTrack	1404	SCS215g	733709.432266	733709.441456	8	0.013328	60	10	60-180	60	84	GapExp	0	106	4	0	1	target	1	1000	13.328	13.326	13.330
ProbeTrack7	6	ProbeTrack	1404	SCS215g	733709.432266	733709.441525	8	0.013328	60	10	60-180	60	75	GapExp	0	107	4	96	0	distractor	1	653	13.328	13.324	13.334
ProbeTrack7	6	ProbeTrack	1404	SCS215g	733709.432266	733709.441599	8	0.013328	60	10	60-180	60	162	GapExp	0	108	4	0	0	distractor	1	627	13.328	13.325	13.335
ProbeTrack7	6	ProbeTrack	1404	SCS215g	733709.432266	733709.441676	8	0.013328	60	10	60-180	60	81	GapExp	0	109	4	0	0	distractor	1	813	13.328	13.325	13.333
ProbeTrack7	6	ProbeTrack	1404	SCS215g	733709.432266	733709.441736	8	0.013328	60	10	60-180	60	107	GapExp	0	110	4	0	0	target	0	960	13.328	13.323	13.335
ProbeTrack7	6	ProbeTrack	1404	SCS215g	733709.432266	733709.441805	8	0.013328	60	10	60-180	60	62	GapExp	0	111	4	0	0	distractor	1	573	13.328	13.324	13.333
ProbeTrack7	6	ProbeTrack	1404	SCS215g	733709.432266	733709.441859	8	0.013328	60	10	60-180	60	65	GapExp	0	112	4	6	0	distractor	1	600	13.328	13.324	13.333
ProbeTrack7	6	ProbeTrack	1404	SCS215g	733709.432266	733709.441916	8	0.013328	60	10	60-180	60	66	GapExp	0	113	4	3	0	distractor	1	667	13.328	13.327	13.331
ProbeTrack7	6	ProbeTrack	1404	SCS215g	733709.432266	733709.441971	8	0.013328	60	10	60-180	60	139	GapExp	0	114	4	96	1	target	1	973	13.328	13.322	13.336
ProbeTrack7	6	ProbeTrack	1404	SCS215g	733709.432266	733709.442060	8	0.013328	60	10	60-180	60	144	GapExp	0	115	4	96	1	target	1	573	13.328	13.319	13.339
ProbeTrack7	6	ProbeTrack	1404	SCS215g	733709.432266	733709.442142	8	0.013328	60	10	60-180	60	169	GapExp	0	116	4	0	1	target	1	573	13.328	13.324	13.333
ProbeTrack7	6	ProbeTrack	1404	SCS215g	733709.432266	733709.442214	8	0.013328	60	10	60-180	60	91	GapExp	0	117	4	96	0	distractor	1	667	13.328	13.316	13.341
ProbeTrack7	6	ProbeTrack	1404	SCS215g	733709.432266	733709.442290	8	0.013328	60	10	60-180	60	180	GapExp	0	118	4	6	0	distractor	1	600	13.328	13.315	13.343
ProbeTrack7	6	ProbeTrack	1404	SCS215g	733709.432266	733709.442365	8	0.013328	60	10	60-180	60	168	GapExp	0	119	4	0	0	distractor	1	600	13.328	13.322	13.334
ProbeTrack7	6	ProbeTrack	1404	SCS215g	733709.432266	733709.442440	8	0.013328	60	10	60-180	60	159	GapExp	0	120	4	96	0	distractor	1	680	13.328	13.322	13.335
ProbeTrack7	6	ProbeTrack	1404	SCS215g	733709.432266	733709.442535	8	0.013328	60	10	60-180	60	138	GapExp	0	121	4	96	0	target	0	507	13.328	13.324	13.333
ProbeTrack7	6	ProbeTrack	1404	SCS215g	733709.432266	733709.442643	8	0.013328	60	10	60-180	60	130	GapExp	0	122	4	6	1	distractor	0	533	13.328	13.323	13.332
ProbeTrack7	6	ProbeTrack	1404	SCS215g	733709.432266	733709.442723	8	0.013328	60	10	60-180	60	115	GapExp	0	123	4	3	1	target	1	493	13.328	13.325	13.332
ProbeTrack7	6	ProbeTrack	1404	SCS215g	733709.432266	733709.442787	8	0.013328	60	10	60-180	60	137	GapExp	0	124	4	0	1	target	1	480	13.328	13.323	13.334
ProbeTrack7	6	ProbeTrack	1404	SCS215g	733709.432266	733709.442858	8	0.013328	60	10	60-180	60	174	GapExp	0	125	4	3	1	target	1	1133	13.328	13.319	13.339
ProbeTrack7	6	ProbeTrack	1404	SCS215g	733709.448264	733709.448328	8	0.013328	60	10	60-180	60	109	GapPrac	1	1	3	6	0	distractor	1	533	13.328	13.323	13.334
ProbeTrack7	6	ProbeTrack	1404	SCS215g	733709.448264	733709.448429	8	0.013328	60	10	60-180	60	96	GapPrac	1	2	3	96	0	distractor	1	680	13.328	13.323	13.334
ProbeTrack7	6	ProbeTrack	1404	SCS215g	733709.448264	733709.448545	8	0.013328	60	10	60-180	60	161	GapPrac	1	3	3	3	1	target	1	560	13.328	13.322	13.335
ProbeTrack7	6	ProbeTrack	1404	SCS215g	733709.448264	733709.448619	8	0.013328	60	10	60-180	60	179	GapPrac	1	4	3	6	1	target	1	534	13.328	13.321	13.336
ProbeTrack7	6	ProbeTrack	1404	SCS215g	733709.448264	733709.448690	8	0.013328	60	10	60-180	60	92	GapPrac	1	5	3	96	0	distractor	1	440	13.328	13.322	13.335
ProbeTrack7	6	ProbeTrack	1404	SCS215g	733709.448264	733709.448776	8	0.013328	60	10	60-180	60	90	GapPrac	1	6	3	3	0	target	0	640	13.328	13.325	13.332
ProbeTrack7	6	ProbeTrack	1404	SCS215g	733709.448264	733709.448836	8	0.013328	60	10	60-180	60	121	GapPrac	1	7	3	96	1	distractor	0	387	13.328	13.325	13.331
ProbeTrack7	6	ProbeTrack	1404	SCS215g	733709.448264	733709.448916	8	0.013328	60	10	60-180	60	82	GapPrac	1	8	3	96	0	distractor	1	733	13.328	13.324	13.332
ProbeTrack7	6	ProbeTrack	1404	SCS215g	733709.448264	733709.449006	8	0.013328	60	10	60-180	60	101	GapPrac	1	9	3	3	1	target	1	640	13.328	13.324	13.332
ProbeTrack7	6	ProbeTrack	1404	SCS215g	733709.448264	733709.449067	8	0.013328	60	10	60-180	60	119	GapPrac	1	10	3	3	0	distractor	1	493	13.328	13.327	13.330
ProbeTrack7	6	ProbeTrack	1404	SCS215g	733709.448264	733709.449146	8	0.013328	60	10	60-180	60	131	GapPrac	1	11	3	6	0	distractor	1	427	13.328	13.323	13.333
ProbeTrack7	6	ProbeTrack	1404	SCS215g	733709.448264	733709.449218	8	0.013328	60	10	60-180	60	126	GapPrac	1	12	3	6	1	target	1	573	13.328	13.323	13.332
ProbeTrack7	6	ProbeTrack	1404	SCS215g	733709.448264	733709.449282	8	0.013328	60	10	60-180	60	78	GapPrac	1	13	3	0	1	target	1	693	13.328	13.320	13.337
ProbeTrack7	6	ProbeTrack	1404	SCS215g	733709.448264	733709.449379	8	0.013328	60	10	60-180	60	75	GapPrac	1	14	3	96	1	target	1	454	13.328	13.325	13.332
ProbeTrack7	6	ProbeTrack	1404	SCS215g	733709.448264	733709.449448	8	0.013328	60	10	60-180	60	173	GapPrac	1	15	3	6	1	distractor	0	587	13.328	13.324	13.334
ProbeTrack7	6	ProbeTrack	1404	SCS215g	733709.448264	733709.449527	8	0.013328	60	10	60-180	60	156	GapPrac	1	16	3	3	1	target	1	494	13.328	13.315	13.342
ProbeTrack7	6	ProbeTrack	1404	SCS215g	733709.448264	733709.449596	8	0.013328	60	10	60-180	60	91	GapPrac	1	17	3	0	0	distractor	1	760	13.328	13.324	13.333
ProbeTrack7	6	ProbeTrack	1404	SCS215g	733709.448264	733709.449655	8	0.013328	60	10	60-180	60	177	GapPrac	1	18	3	0	1	target	1	667	13.328	13.323	13.333
ProbeTrack7	6	ProbeTrack	1404	SCS215g	733709.448264	733709.449728	8	0.013328	60	10	60-180	60	176	GapPrac	1	19	3	6	0	target	0	680	13.328	13.323	13.334
ProbeTrack7	6	ProbeTrack	1404	SCS215g	733709.448264	733709.449802	8	0.013328	60	10	60-180	60	152	GapPrac	1	20	3	0	0	target	0	773	13.328	13.315	13.342
ProbeTrack7	6	ProbeTrack	1404	SCS215g	733709.451124	733709.451179	8	0.013328	60	10	60-180	60	165	GapExp	1	1	3	6	1	target	1	533	13.328	13.324	13.332
ProbeTrack7	6	ProbeTrack	1404	SCS215g	733709.451124	733709.451277	8	0.013328	60	10	60-180	60	69	GapExp	1	2	3	6	0	target	0	480	13.328	13.324	13.332
ProbeTrack7	6	ProbeTrack	1404	SCS215g	733709.451124	733709.451330	8	0.013328	60	10	60-180	60	144	GapExp	1	3	3	3	0	target	0	640	13.328	13.323	13.334
ProbeTrack7	6	ProbeTrack	1404	SCS215g	733709.451124	733709.451396	8	0.013328	60	10	60-180	60	70	GapExp	1	4	3	96	0	target	0	653	13.328	13.324	13.332
ProbeTrack7	6	ProbeTrack	1404	SCS215g	733709.451124	733709.451480	8	0.013328	60	10	60-180	60	174	GapExp	1	5	3	96	1	target	1	480	13.328	13.324	13.332
ProbeTrack7	6	ProbeTrack	1404	SCS215g	733709.451124	733709.451585	8	0.013328	60	10	60-180	60	92	GapExp	0	6	3	6	0	target	0	573	13.328	13.325	13.332
ProbeTrack7	6	ProbeTrack	1404	SCS215g	733709.451124	733709.451663	8	0.013328	60	10	60-180	60	105	GapExp	0	7	3	0	0	distractor	1	680	13.328	13.324	13.332
ProbeTrack7	6	ProbeTrack	1404	SCS215g	733709.451124	733709.451730	8	0.013328	60	10	60-180	60	138	GapExp	0	8	3	0	1	target	1	560	13.328	13.324	13.332
ProbeTrack7	6	ProbeTrack	1404	SCS215g	733709.451124	733709.451797	8	0.013328	60	10	60-180	60	157	GapExp	0	9	3	6	1	target	1	600	13.328	13.325	13.332
ProbeTrack7	6	ProbeTrack	1404	SCS215g	733709.451124	733709.451866	8	0.013328	60	10	60-180	60	104	GapExp	0	10	3	96	1	target	1	440	13.328	13.324	13.333
ProbeTrack7	6	ProbeTrack	1404	SCS215g	733709.451124	733709.451940	8	0.013328	60	10	60-180	60	170	GapExp	0	11	3	0	0	distractor	1	720	13.328	13.323	13.332
ProbeTrack7	6	ProbeTrack	1404	SCS215g	733709.451124	733709.452008	8	0.013328	60	10	60-180	60	146	GapExp	0	12	3	3	0	target	0	613	13.328	13.325	13.332
ProbeTrack7	6	ProbeTrack	1404	SCS215g	733709.451124	733709.452077	8	0.013328	60	10	60-180	60	129	GapExp	0	13	3	6	0	target	0	707	13.328	13.318	13.338
ProbeTrack7	6	ProbeTrack	1404	SCS215g	733709.451124	733709.452143	8	0.013328	60	10	60-180	60	82	GapExp	0	14	3	6	1	target	1	627	13.328	13.322	13.335
ProbeTrack7	6	ProbeTrack	1404	SCS215g	733709.451124	733709.452213	8	0.013328	60	10	60-180	60	141	GapExp	0	15	3	96	1	target	1	480	13.328	13.323	13.332
ProbeTrack7	6	ProbeTrack	1404	SCS215g	733709.451124	733709.452295	8	0.013328	60	10	60-180	60	83	GapExp	0	16	3	6	0	distractor	1	560	13.328	13.322	13.333
ProbeTrack7	6	ProbeTrack	1404	SCS215g	733709.451124	733709.452356	8	0.013328	60	10	60-180	60	145	GapExp	0	17	3	3	0	distractor	1	507	13.328	13.324	13.333
ProbeTrack7	6	ProbeTrack	1404	SCS215g	733709.451124	733709.452491	8	0.013328	60	10	60-180	60	124	GapExp	0	18	3	3	1	target	1	587	13.328	13.323	13.333
ProbeTrack7	6	ProbeTrack	1404	SCS215g	733709.451124	733709.452563	8	0.013328	60	10	60-180	60	65	GapExp	0	19	3	0	0	distractor	1	720	13.328	13.327	13.330
ProbeTrack7	6	ProbeTrack	1404	SCS215g	733709.451124	733709.452628	8	0.013328	60	10	60-180	60	178	GapExp	0	20	3	3	0	distractor	1	613	13.328	13.324	13.332
ProbeTrack7	6	ProbeTrack	1404	SCS215g	733709.451124	733709.452705	8	0.013328	60	10	60-180	60	124	GapExp	0	21	3	6	0	distractor	1	880	13.328	13.326	13.331
ProbeTrack7	6	ProbeTrack	1404	SCS215g	733709.451124	733709.452795	8	0.013328	60	10	60-180	60	101	GapExp	0	22	3	0	1	target	1	400	13.328	13.321	13.335
ProbeTrack7	6	ProbeTrack	1404	SCS215g	733709.451124	733709.452881	8	0.013328	60	10	60-180	60	71	GapExp	0	23	3	6	1	target	1	600	13.328	13.322	13.334
ProbeTrack7	6	ProbeTrack	1404	SCS215g	733709.451124	733709.452943	8	0.013328	60	10	60-180	60	123	GapExp	0	24	3	96	1	target	1	483	13.328	13.324	13.332
ProbeTrack7	6	ProbeTrack	1404	SCS215g	733709.451124	733709.453022	8	0.013328	60	10	60-180	60	173	GapExp	0	25	3	6	1	target	1	533	13.328	13.323	13.333
ProbeTrack7	6	ProbeTrack	1404	SCS215g	733709.451124	733709.453095	8	0.013328	60	10	60-180	60	127	GapExp	0	26	3	3	1	distractor	0	693	13.328	13.326	13.331
ProbeTrack7	6	ProbeTrack	1404	SCS215g	733709.451124	733709.453162	8	0.013328	60	10	60-180	60	72	GapExp	0	27	3	96	0	distractor	1	547	13.328	13.324	13.332
ProbeTrack7	6	ProbeTrack	1404	SCS215g	733709.451124	733709.453298	8	0.013328	60	10	60-180	60	80	GapExp	0	28	3	6	0	distractor	1	680	13.328	13.327	13.330
ProbeTrack7	6	ProbeTrack	1404	SCS215g	733709.451124	733709.453366	8	0.013328	60	10	60-180	60	90	GapExp	0	29	3	96	1	target	1	520	13.328	13.324	13.332
ProbeTrack7	6	ProbeTrack	1404	SCS215g	733709.451124	733709.453440	8	0.013328	60	10	60-180	60	98	GapExp	0	30	3	6	0	distractor	1	520	13.328	13.327	13.330
ProbeTrack7	6	ProbeTrack	1404	SCS215g	733709.451124	733709.453500	8	0.013328	60	10	60-180	60	129	GapExp	0	31	3	0	1	target	1	493	13.328	13.325	13.331
ProbeTrack7	6	ProbeTrack	1404	SCS215g	733709.451124	733709.453567	8	0.013328	60	10	60-180	60	150	GapExp	0	32	3	96	1	target	1	533	13.328	13.322	13.334
ProbeTrack7	6	ProbeTrack	1404	SCS215g	733709.451124	733709.453653	8	0.013328	60	10	60-180	60	107	GapExp	0	33	3	96	1	target	1	507	13.328	13.323	13.332
ProbeTrack7	6	ProbeTrack	1404	SCS215g	733709.451124	733709.453730	8	0.013328	60	10	60-180	60	114	GapExp	0	34	3	96	1	distractor	0	560	13.328	13.324	13.332
ProbeTrack7	6	ProbeTrack	1404	SCS215g	733709.451124	733709.453807	8	0.013328	60	10	60-180	60	108	GapExp	0	35	3	3	1	target	1	600	13.328	13.323	13.332
ProbeTrack7	6	ProbeTrack	1404	SCS215g	733709.451124	733709.453869	8	0.013328	60	10	60-180	60	61	GapExp	0	36	3	6	0	distractor	1	573	13.328	13.321	13.335
ProbeTrack7	6	ProbeTrack	1404	SCS215g	733709.451124	733709.453926	8	0.013328	60	10	60-180	60	152	GapExp	0	37	3	0	1	distractor	0	480	13.328	13.323	13.332
ProbeTrack7	6	ProbeTrack	1404	SCS215g	733709.451124	733709.453999	8	0.013328	60	10	60-180	60	163	GapExp	0	38	3	3	1	target	1	507	13.328	13.325	13.331
ProbeTrack7	6	ProbeTrack	1404	SCS215g	733709.451124	733709.454075	8	0.013328	60	10	60-180	60	113	GapExp	0	39	3	0	0	target	0	973	13.328	13.324	13.331
ProbeTrack7	6	ProbeTrack	1404	SCS215g	733709.451124	733709.454142	8	0.013328	60	10	60-180	60	85	GapExp	0	40	3	0	1	distractor	0	667	13.328	13.327	13.330
ProbeTrack7	6	ProbeTrack	1404	SCS215g	733709.451124	733709.454202	8	0.013328	60	10	60-180	60	131	GapExp	0	41	3	6	0	distractor	1	667	13.328	13.325	13.331
ProbeTrack7	6	ProbeTrack	1404	SCS215g	733709.451124	733709.454273	8	0.013328	60	10	60-180	60	170	GapExp	0	42	3	3	0	target	0	694	13.328	13.323	13.332
ProbeTrack7	6	ProbeTrack	1404	SCS215g	733709.451124	733709.454374	8	0.013328	60	10	60-180	60	161	GapExp	0	43	3	96	0	distractor	1	600	13.328	13.323	13.333
ProbeTrack7	6	ProbeTrack	1404	SCS215g	733709.451124	733709.454477	8	0.013328	60	10	60-180	60	106	GapExp	0	44	3	6	1	target	1	707	13.328	13.321	13.334
ProbeTrack7	6	ProbeTrack	1404	SCS215g	733709.451124	733709.454542	8	0.013328	60	10	60-180	60	106	GapExp	0	45	3	0	0	distractor	1	547	13.328	13.320	13.335
ProbeTrack7	6	ProbeTrack	1404	SCS215g	733709.451124	733709.454608	8	0.013328	60	10	60-180	60	67	GapExp	0	46	3	6	1	distractor	0	560	13.328	13.322	13.333
ProbeTrack7	6	ProbeTrack	1404	SCS215g	733709.451124	733709.454709	8	0.013328	60	10	60-180	60	115	GapExp	0	47	3	96	1	target	1	573	13.328	13.325	13.331
ProbeTrack7	6	ProbeTrack	1404	SCS215g	733709.451124	733709.454792	8	0.013328	60	10	60-180	60	149	GapExp	0	48	3	3	1	target	1	440	13.328	13.324	13.332
ProbeTrack7	6	ProbeTrack	1404	SCS215g	733709.451124	733709.454859	8	0.013328	60	10	60-180	60	100	GapExp	0	49	3	3	1	target	1	667	13.328	13.322	13.334
ProbeTrack7	6	ProbeTrack	1404	SCS215g	733709.451124	733709.454919	8	0.013328	60	10	60-180	60	62	GapExp	0	50	3	96	1	target	1	653	13.328	13.323	13.332
ProbeTrack7	6	ProbeTrack	1404	SCS215g	733709.451124	733709.454988	8	0.013328	60	10	60-180	60	130	GapExp	0	51	3	96	0	distractor	1	533	13.328	13.322	13.336
ProbeTrack7	6	ProbeTrack	1404	SCS215g	733709.451124	733709.455066	8	0.013328	60	10	60-180	60	158	GapExp	0	52	3	96	0	distractor	1	520	13.328	13.324	13.332
ProbeTrack7	6	ProbeTrack	1404	SCS215g	733709.451124	733709.455149	8	0.013328	60	10	60-180	60	122	GapExp	0	53	3	6	1	target	1	493	13.328	13.322	13.333
ProbeTrack7	6	ProbeTrack	1404	SCS215g	733709.451124	733709.455217	8	0.013328	60	10	60-180	60	98	GapExp	0	54	3	3	0	distractor	1	667	13.328	13.324	13.332
ProbeTrack7	6	ProbeTrack	1404	SCS215g	733709.451124	733709.455280	8	0.013328	60	10	60-180	60	77	GapExp	0	55	3	3	1	target	1	533	13.328	13.325	13.332
ProbeTrack7	6	ProbeTrack	1404	SCS215g	733709.451124	733709.455337	8	0.013328	60	10	60-180	60	144	GapExp	0	56	3	6	1	target	1	493	13.328	13.323	13.333
ProbeTrack7	6	ProbeTrack	1404	SCS215g	733709.451124	733709.455404	8	0.013328	60	10	60-180	60	65	GapExp	0	57	3	0	1	target	1	480	13.328	13.327	13.330
ProbeTrack7	6	ProbeTrack	1404	SCS215g	733709.451124	733709.455457	8	0.013328	60	10	60-180	60	86	GapExp	0	58	3	0	0	target	0	627	13.328	13.318	13.338
ProbeTrack7	6	ProbeTrack	1404	SCS215g	733709.451124	733709.455517	8	0.013328	60	10	60-180	60	76	GapExp	0	59	3	3	0	distractor	1	600	13.328	13.325	13.331
ProbeTrack7	6	ProbeTrack	1404	SCS215g	733709.451124	733709.455573	8	0.013328	60	10	60-180	60	64	GapExp	0	60	3	96	1	target	1	640	13.328	13.324	13.333
ProbeTrack7	6	ProbeTrack	1404	SCS215g	733709.451124	733709.455642	8	0.013328	60	10	60-180	60	113	GapExp	0	61	3	0	1	target	1	667	13.328	13.324	13.332
ProbeTrack7	6	ProbeTrack	1404	SCS215g	733709.451124	733709.455706	8	0.013328	60	10	60-180	60	70	GapExp	0	62	3	0	1	target	1	533	13.328	13.323	13.333
ProbeTrack7	6	ProbeTrack	1404	SCS215g	733709.451124	733709.455759	8	0.013328	60	10	60-180	60	121	GapExp	0	63	3	3	1	target	1	440	13.328	13.324	13.332
ProbeTrack7	6	ProbeTrack	1404	SCS215g	733709.451124	733709.455820	8	0.013328	60	10	60-180	60	131	GapExp	0	64	3	96	0	distractor	1	640	13.328	13.316	13.341
ProbeTrack7	6	ProbeTrack	1404	SCS215g	733709.451124	733709.455900	8	0.013328	60	10	60-180	60	177	GapExp	0	65	3	3	1	target	1	440	13.328	13.323	13.332
ProbeTrack7	6	ProbeTrack	1404	SCS215g	733709.451124	733709.455971	8	0.013328	60	10	60-180	60	66	GapExp	0	66	3	3	1	target	1	613	13.328	13.322	13.334
ProbeTrack7	6	ProbeTrack	1404	SCS215g	733709.451124	733709.456024	8	0.013328	60	10	60-180	60	164	GapExp	0	67	3	6	0	distractor	1	573	13.328	13.324	13.332
ProbeTrack7	6	ProbeTrack	1404	SCS215g	733709.451124	733709.456094	8	0.013328	60	10	60-180	60	139	GapExp	0	68	3	3	0	distractor	1	547	13.328	13.323	13.333
ProbeTrack7	6	ProbeTrack	1404	SCS215g	733709.451124	733709.456160	8	0.013328	60	10	60-180	60	141	GapExp	0	69	3	0	0	target	0	947	13.328	13.323	13.333
ProbeTrack7	6	ProbeTrack	1404	SCS215g	733709.451124	733709.456232	8	0.013328	60	10	60-180	60	156	GapExp	0	70	3	0	1	distractor	0	840	13.328	13.315	13.341
ProbeTrack7	6	ProbeTrack	1404	SCS215g	733709.451124	733709.456303	8	0.013328	60	10	60-180	60	87	GapExp	0	71	3	0	1	target	1	493	13.328	13.327	13.330
ProbeTrack7	6	ProbeTrack	1404	SCS215g	733709.451124	733709.456360	8	0.013328	60	10	60-180	60	168	GapExp	0	72	3	0	0	distractor	1	533	13.328	13.323	13.333
ProbeTrack7	6	ProbeTrack	1404	SCS215g	733709.451124	733709.456432	8	0.013328	60	10	60-180	60	164	GapExp	0	73	3	0	1	distractor	0	920	13.328	13.321	13.335
ProbeTrack7	6	ProbeTrack	1404	SCS215g	733709.451124	733709.456513	8	0.013328	60	10	60-180	60	119	GapExp	0	74	3	0	0	target	0	653	13.328	13.324	13.332
ProbeTrack7	6	ProbeTrack	1404	SCS215g	733709.451124	733709.456577	8	0.013328	60	10	60-180	60	171	GapExp	0	75	3	96	0	target	0	640	13.328	13.323	13.333
ProbeTrack7	6	ProbeTrack	1404	SCS215g	733709.451124	733709.456665	8	0.013328	60	10	60-180	60	165	GapExp	0	76	3	3	1	target	1	680	13.328	13.324	13.333
ProbeTrack7	6	ProbeTrack	1404	SCS215g	733709.451124	733709.456740	8	0.013328	60	10	60-180	60	158	GapExp	0	77	3	0	0	target	0	693	13.328	13.324	13.332
ProbeTrack7	6	ProbeTrack	1404	SCS215g	733709.451124	733709.456812	8	0.013328	60	10	60-180	60	128	GapExp	0	78	3	0	1	target	1	573	13.328	13.323	13.333
ProbeTrack7	6	ProbeTrack	1404	SCS215g	733709.451124	733709.456879	8	0.013328	60	10	60-180	60	124	GapExp	0	79	3	3	1	distractor	0	627	13.328	13.324	13.332
ProbeTrack7	6	ProbeTrack	1404	SCS215g	733709.451124	733709.456945	8	0.013328	60	10	60-180	60	113	GapExp	0	80	3	3	0	distractor	1	627	13.328	13.323	13.333
ProbeTrack7	6	ProbeTrack	1404	SCS215g	733709.451124	733709.457018	8	0.013328	60	10	60-180	60	129	GapExp	0	81	3	96	1	target	1	454	13.328	13.294	13.362
ProbeTrack7	6	ProbeTrack	1404	SCS215g	733709.451124	733709.457103	8	0.013328	60	10	60-180	60	133	GapExp	0	82	3	3	0	distractor	1	840	13.328	13.323	13.333
ProbeTrack7	6	ProbeTrack	1404	SCS215g	733709.451124	733709.457172	8	0.013328	60	10	60-180	60	129	GapExp	0	83	3	6	1	target	1	893	13.328	13.320	13.336
ProbeTrack7	6	ProbeTrack	1404	SCS215g	733709.451124	733709.457242	8	0.013328	60	10	60-180	60	157	GapExp	0	84	3	3	0	distractor	1	547	13.328	13.323	13.333
ProbeTrack7	6	ProbeTrack	1404	SCS215g	733709.451124	733709.457310	8	0.013328	60	10	60-180	60	141	GapExp	0	85	3	3	0	distractor	1	627	13.328	13.323	13.332
ProbeTrack7	6	ProbeTrack	1404	SCS215g	733709.451124	733709.457381	8	0.013328	60	10	60-180	60	63	GapExp	0	86	3	0	0	distractor	1	653	13.328	13.325	13.331
ProbeTrack7	6	ProbeTrack	1404	SCS215g	733709.451124	733709.457454	8	0.013328	60	10	60-180	60	135	GapExp	0	87	3	6	0	distractor	1	573	13.328	13.324	13.332
ProbeTrack7	6	ProbeTrack	1404	SCS215g	733709.451124	733709.457529	8	0.013328	60	10	60-180	60	148	GapExp	0	88	3	96	0	distractor	1	440	13.328	13.324	13.331
ProbeTrack7	6	ProbeTrack	1404	SCS215g	733709.451124	733709.457611	8	0.013328	60	10	60-180	60	122	GapExp	0	89	3	3	1	distractor	0	720	13.328	13.324	13.332
ProbeTrack7	6	ProbeTrack	1404	SCS215g	733709.451124	733709.457680	8	0.013328	60	10	60-180	60	156	GapExp	0	90	3	0	1	target	1	520	13.328	13.324	13.332
ProbeTrack7	6	ProbeTrack	1404	SCS215g	733709.451124	733709.457752	8	0.013328	60	10	60-180	60	163	GapExp	0	91	3	6	1	target	1	480	13.328	13.323	13.333
ProbeTrack7	6	ProbeTrack	1404	SCS215g	733709.451124	733709.457821	8	0.013328	60	10	60-180	60	153	GapExp	0	92	3	3	0	distractor	1	667	13.328	13.326	13.330
ProbeTrack7	6	ProbeTrack	1404	SCS215g	733709.451124	733709.457892	8	0.013328	60	10	60-180	60	118	GapExp	0	93	3	6	0	distractor	1	720	13.328	13.323	13.332
ProbeTrack7	6	ProbeTrack	1404	SCS215g	733709.451124	733709.457959	8	0.013328	60	10	60-180	60	155	GapExp	0	94	3	96	0	distractor	1	493	13.328	13.324	13.331
ProbeTrack7	6	ProbeTrack	1404	SCS215g	733709.451124	733709.458043	8	0.013328	60	10	60-180	60	135	GapExp	0	95	3	96	0	distractor	1	573	13.328	13.323	13.333
ProbeTrack7	6	ProbeTrack	1404	SCS215g	733709.451124	733709.458135	8	0.013328	60	10	60-180	60	93	GapExp	0	96	3	96	0	distractor	1	573	13.328	13.323	13.333
ProbeTrack7	6	ProbeTrack	1404	SCS215g	733709.451124	733709.458229	8	0.013328	60	10	60-180	60	156	GapExp	0	97	3	6	1	target	1	693	13.328	13.323	13.333
ProbeTrack7	6	ProbeTrack	1404	SCS215g	733709.451124	733709.458311	8	0.013328	60	10	60-180	60	180	GapExp	0	98	3	6	1	target	1	600	13.328	13.324	13.333
ProbeTrack7	6	ProbeTrack	1404	SCS215g	733709.451124	733709.458394	8	0.013328	60	10	60-180	60	144	GapExp	0	99	3	96	1	target	1	493	13.328	13.323	13.333
ProbeTrack7	6	ProbeTrack	1404	SCS215g	733709.451124	733709.458474	8	0.013328	60	10	60-180	60	113	GapExp	0	100	3	0	0	distractor	1	707	13.328	13.321	13.335
ProbeTrack7	6	ProbeTrack	1404	SCS215g	733709.451124	733709.458541	8	0.013328	60	10	60-180	60	94	GapExp	0	101	3	0	0	target	0	800	13.328	13.327	13.330
ProbeTrack7	6	ProbeTrack	1404	SCS215g	733709.451124	733709.458604	8	0.013328	60	10	60-180	60	105	GapExp	0	102	3	6	0	distractor	1	600	13.328	13.327	13.330
ProbeTrack7	6	ProbeTrack	1404	SCS215g	733709.451124	733709.458666	8	0.013328	60	10	60-180	60	174	GapExp	0	103	3	6	0	distractor	1	613	13.328	13.324	13.332
ProbeTrack7	6	ProbeTrack	1404	SCS215g	733709.451124	733709.458742	8	0.013328	60	10	60-180	60	88	GapExp	0	104	3	96	1	distractor	0	547	13.328	13.324	13.332
ProbeTrack7	6	ProbeTrack	1404	SCS215g	733709.451124	733709.458813	8	0.013328	60	10	60-180	60	141	GapExp	0	105	3	96	0	distractor	1	400	13.328	13.324	13.332
ProbeTrack7	6	ProbeTrack	1404	SCS215g	733709.451124	733709.458900	8	0.013328	60	10	60-180	60	168	GapExp	0	106	3	6	0	distractor	1	613	13.328	13.324	13.332
ProbeTrack7	6	ProbeTrack	1404	SCS215g	733709.451124	733709.458973	8	0.013328	60	10	60-180	60	139	GapExp	0	107	3	96	1	target	1	627	13.328	13.323	13.334
ProbeTrack7	6	ProbeTrack	1404	SCS215g	733709.451124	733709.459058	8	0.013328	60	10	60-180	60	135	GapExp	0	108	3	3	0	distractor	1	507	13.328	13.323	13.334
ProbeTrack7	6	ProbeTrack	1404	SCS215g	733709.451124	733709.459130	8	0.013328	60	10	60-180	60	107	GapExp	0	109	3	6	1	target	1	827	13.328	13.324	13.332
ProbeTrack7	6	ProbeTrack	1404	SCS215g	733709.451124	733709.459198	8	0.013328	60	10	60-180	60	119	GapExp	0	110	3	0	0	distractor	1	493	13.328	13.326	13.330
ProbeTrack7	6	ProbeTrack	1404	SCS215g	733709.451124	733709.459259	8	0.013328	60	10	60-180	60	116	GapExp	0	111	3	96	1	target	1	494	13.328	13.324	13.331
ProbeTrack7	6	ProbeTrack	1404	SCS215g	733709.451124	733709.459336	8	0.013328	60	10	60-180	60	103	GapExp	0	112	3	96	0	distractor	1	547	13.328	13.324	13.332
ProbeTrack7	6	ProbeTrack	1404	SCS215g	733709.451124	733709.459413	8	0.013328	60	10	60-180	60	120	GapExp	0	113	3	3	1	target	1	520	13.328	13.323	13.334
ProbeTrack7	6	ProbeTrack	1404	SCS215g	733709.451124	733709.459515	8	0.013328	60	10	60-180	60	135	GapExp	0	114	3	96	0	distractor	1	680	13.328	13.324	13.332
ProbeTrack7	6	ProbeTrack	1404	SCS215g	733709.451124	733709.459597	8	0.013328	60	10	60-180	60	78	GapExp	0	115	3	3	0	distractor	1	933	13.328	13.326	13.330
ProbeTrack7	6	ProbeTrack	1404	SCS215g	733709.451124	733709.459658	8	0.013328	60	10	60-180	60	116	GapExp	0	116	3	0	0	distractor	1	800	13.328	13.324	13.332
ProbeTrack7	6	ProbeTrack	1404	SCS215g	733709.451124	733709.459721	8	0.013328	60	10	60-180	60	149	GapExp	0	117	3	3	0	distractor	1	653	13.328	13.325	13.332
ProbeTrack7	6	ProbeTrack	1404	SCS215g	733709.451124	733709.459789	8	0.013328	60	10	60-180	60	125	GapExp	0	118	3	0	1	target	1	933	13.328	13.324	13.332
ProbeTrack7	6	ProbeTrack	1404	SCS215g	733709.451124	733709.459873	8	0.013328	60	10	60-180	60	114	GapExp	0	119	3	6	1	target	1	627	13.328	13.324	13.333
ProbeTrack7	6	ProbeTrack	1404	SCS215g	733709.451124	733709.459937	8	0.013328	60	10	60-180	60	88	GapExp	0	120	3	96	0	target	0	533	13.328	13.324	13.332
ProbeTrack7	6	ProbeTrack	1404	SCS215g	733709.451124	733709.460008	8	0.013328	60	10	60-180	60	135	GapExp	0	121	3	3	1	target	1	627	13.328	13.325	13.330
ProbeTrack7	6	ProbeTrack	1404	SCS215g	733709.451124	733709.460081	8	0.013328	60	10	60-180	60	163	GapExp	0	122	3	6	1	target	1	920	13.328	13.324	13.333
ProbeTrack7	6	ProbeTrack	1404	SCS215g	733709.451124	733709.460159	8	0.013328	60	10	60-180	60	174	GapExp	0	123	3	0	1	distractor	0	533	13.328	13.324	13.333
ProbeTrack7	6	ProbeTrack	1404	SCS215g	733709.451124	733709.460229	8	0.013328	60	10	60-180	60	166	GapExp	0	124	3	96	0	distractor	1	2013	13.328	13.324	13.332
ProbeTrack7	6	ProbeTrack	1404	SCS215g	733709.451124	733709.460364	8	0.013328	60	10	60-180	60	152	GapExp	0	125	3	6	0	distractor	1	573	13.328	13.323	13.333
