exp	sub	code	rev	comp	runtime	trialtime	nstim	refreshdur	cuedur	gapdur	gapOnsetRange	durPostProbe	gapOnsetTime	blocktype	prac	trial	ntargets	soa	probeTarget	resp	acc	rt	meanFrameDur	minFrameDur	maxFrameDur
ProbeTrack7	11	ProbeTrack	1406	SCS215f	733716.391292	733716.394077	8	0.013328	60	0	60-180	60	66	NoGap	1	1	4	6	0	38	-3	17367	13.328	13.323	13.333
ProbeTrack7	11	ProbeTrack	1406	SCS215f	733716.391292	733716.394621	8	0.013328	60	0	60-180	60	107	NoGap	1	2	4	0	0	distractor	1	1746	13.328	13.322	13.332
ProbeTrack7	11	ProbeTrack	1406	SCS215f	733716.391292	733716.394739	8	0.013328	60	0	60-180	60	64	NoGap	1	3	4	96	0	distractor	1	960	13.328	13.323	13.332
ProbeTrack7	11	ProbeTrack	1406	SCS215f	733716.391292	733716.394885	8	0.013328	60	0	60-180	60	122	NoGap	1	4	4	3	1	distractor	0	653	13.328	13.315	13.341
ProbeTrack7	11	ProbeTrack	1406	SCS215f	733716.391292	733716.395114	8	0.013328	60	0	60-180	60	144	NoGap	1	5	4	96	0	distractor	1	667	13.328	13.319	13.337
ProbeTrack7	11	ProbeTrack	1406	SCS215f	733716.391292	733716.395233	8	0.013328	60	0	60-180	60	75	NoGap	1	6	4	96	1	target	1	653	13.328	13.323	13.335
ProbeTrack7	11	ProbeTrack	1406	SCS215f	733716.391292	733716.395340	8	0.013328	60	0	60-180	60	98	NoGap	1	7	4	3	0	distractor	1	640	13.328	13.322	13.333
ProbeTrack7	11	ProbeTrack	1406	SCS215f	733716.391292	733716.395419	8	0.013328	60	0	60-180	60	95	NoGap	1	8	4	3	1	target	1	520	13.328	13.323	13.334
ProbeTrack7	11	ProbeTrack	1406	SCS215f	733716.391292	733716.395491	8	0.013328	60	0	60-180	60	85	NoGap	1	9	4	0	0	distractor	1	493	13.328	13.323	13.332
ProbeTrack7	11	ProbeTrack	1406	SCS215f	733716.391292	733716.395568	8	0.013328	60	0	60-180	60	108	NoGap	1	10	4	6	0	distractor	1	334	13.328	13.323	13.332
ProbeTrack7	11	ProbeTrack	1406	SCS215f	733716.391292	733716.395640	8	0.013328	60	0	60-180	60	104	NoGap	1	11	4	0	1	distractor	0	587	13.328	13.325	13.332
ProbeTrack7	11	ProbeTrack	1406	SCS215f	733716.391292	733716.395716	8	0.013328	60	0	60-180	60	129	NoGap	1	12	4	3	1	distractor	0	440	13.328	13.323	13.333
ProbeTrack7	11	ProbeTrack	1406	SCS215f	733716.391292	733716.395792	8	0.013328	60	0	60-180	60	99	NoGap	1	13	4	96	1	target	1	493	13.328	13.324	13.332
ProbeTrack7	11	ProbeTrack	1406	SCS215f	733716.391292	733716.395882	8	0.013328	60	0	60-180	60	107	NoGap	1	14	4	3	0	distractor	1	454	13.328	13.325	13.332
ProbeTrack7	11	ProbeTrack	1406	SCS215f	733716.391292	733716.395967	8	0.013328	60	0	60-180	60	135	NoGap	1	15	4	96	0	target	0	320	13.328	13.321	13.334
ProbeTrack7	11	ProbeTrack	1406	SCS215f	733716.391292	733716.396064	8	0.013328	60	0	60-180	60	92	NoGap	1	16	4	0	1	target	1	573	13.328	13.324	13.332
ProbeTrack7	11	ProbeTrack	1406	SCS215f	733716.391292	733716.396134	8	0.013328	60	0	60-180	60	72	NoGap	1	17	4	96	1	target	1	533	13.328	13.323	13.333
ProbeTrack7	11	ProbeTrack	1406	SCS215f	733716.391292	733716.396214	8	0.013328	60	0	60-180	60	160	NoGap	1	18	4	3	0	distractor	1	747	13.328	13.322	13.333
ProbeTrack7	11	ProbeTrack	1406	SCS215f	733716.391292	733716.396297	8	0.013328	60	0	60-180	60	165	NoGap	1	19	4	0	1	target	1	560	13.328	13.322	13.333
ProbeTrack7	11	ProbeTrack	1406	SCS215f	733716.391292	733716.396373	8	0.013328	60	0	60-180	60	66	NoGap	1	20	4	0	1	multi	-2	467	13.328	13.324	13.331
ProbeTrack7	11	ProbeTrack	1406	SCS215f	733716.391292	733716.396441	8	0.013328	60	0	60-180	60	95	NoGap	1	21	4	96	0	distractor	1	467	13.328	13.324	13.333
ProbeTrack7	11	ProbeTrack	1406	SCS215f	733716.391292	733716.396558	8	0.013328	60	0	60-180	60	122	NoGap	1	22	4	6	0	distractor	1	707	13.328	13.299	13.356
ProbeTrack7	11	ProbeTrack	1406	SCS215f	733716.391292	733716.396632	8	0.013328	60	0	60-180	60	77	NoGap	1	23	4	6	0	distractor	1	493	13.328	13.324	13.331
ProbeTrack7	11	ProbeTrack	1406	SCS215f	733716.391292	733716.396693	8	0.013328	60	0	60-180	60	76	NoGap	1	24	4	0	0	target	0	480	13.328	13.324	13.331
ProbeTrack7	11	ProbeTrack	1406	SCS215f	733716.391292	733716.396753	8	0.013328	60	0	60-180	60	169	NoGap	1	25	4	6	0	distractor	1	573	13.328	13.322	13.333
ProbeTrack7	11	ProbeTrack	1406	SCS215f	733716.391292	733716.396837	8	0.013328	60	0	60-180	60	124	NoGap	1	26	4	3	0	distractor	1	613	13.328	13.323	13.333
ProbeTrack7	11	ProbeTrack	1406	SCS215f	733716.391292	733716.396912	8	0.013328	60	0	60-180	60	164	NoGap	1	27	4	6	0	distractor	1	667	13.328	13.323	13.333
ProbeTrack7	11	ProbeTrack	1406	SCS215f	733716.391292	733716.396989	8	0.013328	60	0	60-180	60	108	NoGap	1	28	4	96	0	distractor	1	547	13.328	13.323	13.333
ProbeTrack7	11	ProbeTrack	1406	SCS215f	733716.391292	733716.397070	8	0.013328	60	0	60-180	60	172	NoGap	1	29	4	96	1	target	1	960	13.328	13.321	13.334
ProbeTrack7	11	ProbeTrack	1406	SCS215f	733716.391292	733716.397168	8	0.013328	60	0	60-180	60	82	NoGap	1	30	4	3	1	distractor	0	547	13.328	13.325	13.330
ProbeTrack7	11	ProbeTrack	1406	SCS215f	733716.391292	733716.397258	8	0.013328	60	0	60-180	60	83	NoGap	1	31	4	96	0	distractor	1	573	13.328	13.319	13.336
ProbeTrack7	11	ProbeTrack	1406	SCS215f	733716.391292	733716.397336	8	0.013328	60	0	60-180	60	112	NoGap	1	32	4	3	1	target	1	707	13.328	13.323	13.332
ProbeTrack7	11	ProbeTrack	1406	SCS215f	733716.391292	733716.397409	8	0.013328	60	0	60-180	60	74	NoGap	1	33	4	6	1	target	1	867	13.328	13.317	13.339
ProbeTrack7	11	ProbeTrack	1406	SCS215f	733716.391292	733716.397475	8	0.013328	60	0	60-180	60	105	NoGap	1	34	4	6	1	target	1	574	13.328	13.315	13.341
ProbeTrack7	11	ProbeTrack	1406	SCS215f	733716.391292	733716.397549	8	0.013328	60	0	60-180	60	79	NoGap	1	35	4	96	0	distractor	1	573	13.328	13.323	13.334
ProbeTrack7	11	ProbeTrack	1406	SCS215f	733716.391292	733716.397626	8	0.013328	60	0	60-180	60	132	NoGap	1	36	4	3	1	target	1	493	13.328	13.324	13.333
ProbeTrack7	11	ProbeTrack	1406	SCS215f	733716.391292	733716.397696	8	0.013328	60	0	60-180	60	70	NoGap	1	37	4	3	0	distractor	1	613	13.328	13.326	13.330
ProbeTrack7	11	ProbeTrack	1406	SCS215f	733716.391292	733716.397756	8	0.013328	60	0	60-180	60	72	NoGap	1	38	4	0	0	distractor	1	493	13.328	13.323	13.334
ProbeTrack7	11	ProbeTrack	1406	SCS215f	733716.391292	733716.397823	8	0.013328	60	0	60-180	60	130	NoGap	1	39	4	6	1	target	1	640	13.328	13.317	13.338
ProbeTrack7	11	ProbeTrack	1406	SCS215f	733716.391292	733716.397898	8	0.013328	60	0	60-180	60	89	NoGap	1	40	4	0	0	distractor	1	493	13.328	13.323	13.333
ProbeTrack7	11	ProbeTrack	1406	SCS215f	733716.391292	733716.397960	8	0.013328	60	0	60-180	60	96	NoGap	1	41	4	0	0	distractor	1	547	13.328	13.322	13.333
ProbeTrack7	11	ProbeTrack	1406	SCS215f	733716.391292	733716.398025	8	0.013328	60	0	60-180	60	104	NoGap	1	42	4	3	1	target	1	360	13.328	13.322	13.333
ProbeTrack7	11	ProbeTrack	1406	SCS215f	733716.391292	733716.398088	8	0.013328	60	0	60-180	60	173	NoGap	1	43	4	6	1	target	1	427	13.328	13.323	13.332
ProbeTrack7	11	ProbeTrack	1406	SCS215f	733716.391292	733716.398168	8	0.013328	60	0	60-180	60	61	NoGap	1	44	4	96	1	target	1	440	13.328	13.324	13.333
ProbeTrack7	11	ProbeTrack	1406	SCS215f	733716.391292	733716.398243	8	0.013328	60	0	60-180	60	129	NoGap	1	45	4	6	0	distractor	1	520	13.328	13.318	13.337
ProbeTrack7	11	ProbeTrack	1406	SCS215f	733716.391292	733716.398313	8	0.013328	60	0	60-180	60	170	NoGap	1	46	4	0	0	distractor	1	613	13.328	13.301	13.356
ProbeTrack7	11	ProbeTrack	1406	SCS215f	733716.391292	733716.398390	8	0.013328	60	0	60-180	60	125	NoGap	1	47	4	0	1	target	1	427	13.328	13.323	13.333
ProbeTrack7	11	ProbeTrack	1406	SCS215f	733716.391292	733716.398462	8	0.013328	60	0	60-180	60	160	NoGap	1	48	4	3	0	target	0	507	13.328	13.322	13.333
ProbeTrack7	11	ProbeTrack	1406	SCS215f	733716.391292	733716.398539	8	0.013328	60	0	60-180	60	71	NoGap	1	49	4	96	1	target	1	600	13.328	13.321	13.334
ProbeTrack7	11	ProbeTrack	1406	SCS215f	733716.391292	733716.398617	8	0.013328	60	0	60-180	60	116	NoGap	1	50	4	6	1	target	1	534	13.328	13.322	13.334
ProbeTrack7	11	ProbeTrack	1406	SCS215f	733716.400246	733716.400666	8	0.013328	60	10	60-180	60	88	GapPrac	1	1	3	3	0	distractor	1	933	13.328	13.323	13.332
ProbeTrack7	11	ProbeTrack	1406	SCS215f	733716.400246	733716.400753	8	0.013328	60	10	60-180	60	94	GapPrac	1	2	3	96	1	target	1	547	13.328	13.323	13.332
ProbeTrack7	11	ProbeTrack	1406	SCS215f	733716.400246	733716.400867	8	0.013328	60	10	60-180	60	136	GapPrac	1	3	3	0	0	distractor	1	813	13.328	13.325	13.330
ProbeTrack7	11	ProbeTrack	1406	SCS215f	733716.400246	733716.400965	8	0.013328	60	10	60-180	60	171	GapPrac	1	4	3	6	0	distractor	1	680	13.328	13.325	13.332
ProbeTrack7	11	ProbeTrack	1406	SCS215f	733716.400246	733716.401060	8	0.013328	60	10	60-180	60	162	GapPrac	1	5	3	6	0	target	0	787	13.328	13.323	13.333
ProbeTrack7	11	ProbeTrack	1406	SCS215f	733716.400246	733716.401143	8	0.013328	60	10	60-180	60	99	GapPrac	1	6	3	0	0	distractor	1	267	13.328	13.318	13.338
ProbeTrack7	11	ProbeTrack	1406	SCS215f	733716.400246	733716.401207	8	0.013328	60	10	60-180	60	150	GapPrac	1	7	3	96	1	target	1	680	13.328	13.323	13.333
ProbeTrack7	11	ProbeTrack	1406	SCS215f	733716.400246	733716.401299	8	0.013328	60	10	60-180	60	64	GapPrac	1	8	3	3	1	target	1	560	13.328	13.324	13.332
ProbeTrack7	11	ProbeTrack	1406	SCS215f	733716.400246	733716.401359	8	0.013328	60	10	60-180	60	175	GapPrac	1	9	3	3	0	target	0	667	13.328	13.323	13.333
ProbeTrack7	11	ProbeTrack	1406	SCS215f	733716.400246	733716.401439	8	0.013328	60	10	60-180	60	113	GapPrac	1	10	3	96	0	distractor	1	560	13.328	13.321	13.334
ProbeTrack7	11	ProbeTrack	1406	SCS215f	733716.400246	733716.401521	8	0.013328	60	10	60-180	60	163	GapPrac	1	11	3	6	1	target	1	507	13.328	13.313	13.343
ProbeTrack7	11	ProbeTrack	1406	SCS215f	733716.400246	733716.401602	8	0.013328	60	10	60-180	60	139	GapPrac	1	12	3	96	0	target	0	840	13.328	13.312	13.343
ProbeTrack7	11	ProbeTrack	1406	SCS215f	733716.400246	733716.401693	8	0.013328	60	10	60-180	60	122	GapPrac	1	13	3	3	1	target	1	587	13.328	13.323	13.333
ProbeTrack7	11	ProbeTrack	1406	SCS215f	733716.400246	733716.401762	8	0.013328	60	10	60-180	60	90	GapPrac	1	14	3	3	0	target	0	627	13.328	13.322	13.333
ProbeTrack7	11	ProbeTrack	1406	SCS215f	733716.400246	733716.401828	8	0.013328	60	10	60-180	60	98	GapPrac	1	15	3	6	0	distractor	1	853	13.328	13.322	13.333
ProbeTrack7	11	ProbeTrack	1406	SCS215f	733716.400246	733716.401899	8	0.013328	60	10	60-180	60	146	GapPrac	1	16	3	0	0	distractor	1	667	13.328	13.323	13.332
ProbeTrack7	11	ProbeTrack	1406	SCS215f	733716.400246	733716.401972	8	0.013328	60	10	60-180	60	154	GapPrac	1	17	3	96	1	distractor	0	587	13.328	13.291	13.365
ProbeTrack7	11	ProbeTrack	1406	SCS215f	733716.400246	733716.402061	8	0.013328	60	10	60-180	60	137	GapPrac	1	18	3	6	1	target	1	440	13.328	13.318	13.338
ProbeTrack7	11	ProbeTrack	1406	SCS215f	733716.400246	733716.402132	8	0.013328	60	10	60-180	60	178	GapPrac	1	19	3	0	1	target	1	493	13.328	13.323	13.333
ProbeTrack7	11	ProbeTrack	1406	SCS215f	733716.400246	733716.402208	8	0.013328	60	10	60-180	60	106	GapPrac	1	20	3	0	1	target	1	414	13.328	13.323	13.333
ProbeTrack7	11	ProbeTrack	1406	SCS215f	733716.403705	733716.403823	8	0.013328	60	10	60-180	60	93	GapPrac	1	1	3	6	1	target	1	547	13.328	13.312	13.343
ProbeTrack7	11	ProbeTrack	1406	SCS215f	733716.403705	733716.403900	8	0.013328	60	10	60-180	60	142	GapPrac	1	2	3	96	1	target	1	680	13.328	13.323	13.332
ProbeTrack7	11	ProbeTrack	1406	SCS215f	733716.403705	733716.403990	8	0.013328	60	10	60-180	60	93	GapPrac	1	3	3	0	1	target	1	560	13.328	13.324	13.331
ProbeTrack7	11	ProbeTrack	1406	SCS215f	733716.403705	733716.404057	8	0.013328	60	10	60-180	60	152	GapPrac	1	4	3	6	0	distractor	1	613	13.328	13.322	13.333
ProbeTrack7	11	ProbeTrack	1406	SCS215f	733716.403705	733716.404136	8	0.013328	60	10	60-180	60	166	GapPrac	1	5	3	96	0	distractor	1	640	13.328	13.322	13.333
ProbeTrack7	11	ProbeTrack	1406	SCS215f	733716.403705	733716.404230	8	0.013328	60	10	60-180	60	95	GapPrac	1	6	3	6	1	target	1	507	13.328	13.323	13.332
ProbeTrack7	11	ProbeTrack	1406	SCS215f	733716.403705	733716.404298	8	0.013328	60	10	60-180	60	87	GapPrac	1	7	3	3	0	distractor	1	454	13.328	13.323	13.333
ProbeTrack7	11	ProbeTrack	1406	SCS215f	733716.403705	733716.404362	8	0.013328	60	10	60-180	60	117	GapPrac	1	8	3	3	0	distractor	1	533	13.328	13.324	13.332
ProbeTrack7	11	ProbeTrack	1406	SCS215f	733716.403705	733716.404433	8	0.013328	60	10	60-180	60	119	GapPrac	1	9	3	3	1	target	1	347	13.328	13.322	13.333
ProbeTrack7	11	ProbeTrack	1406	SCS215f	733716.403705	733716.404502	8	0.013328	60	10	60-180	60	61	GapPrac	1	10	3	96	1	distractor	0	560	13.328	13.313	13.343
ProbeTrack7	11	ProbeTrack	1406	SCS215f	733716.403705	733716.404578	8	0.013328	60	10	60-180	60	157	GapPrac	1	11	3	6	0	distractor	1	493	13.328	13.324	13.333
ProbeTrack7	11	ProbeTrack	1406	SCS215f	733716.403705	733716.404652	8	0.013328	60	10	60-180	60	71	GapPrac	1	12	3	96	1	target	1	547	13.328	13.324	13.332
ProbeTrack7	11	ProbeTrack	1406	SCS215f	733716.403705	733716.404733	8	0.013328	60	10	60-180	60	117	GapPrac	1	13	3	0	0	distractor	1	507	13.328	13.326	13.330
ProbeTrack7	11	ProbeTrack	1406	SCS215f	733716.403705	733716.404804	8	0.013328	60	10	60-180	60	95	GapPrac	1	14	3	96	0	distractor	1	533	13.328	13.322	13.333
ProbeTrack7	11	ProbeTrack	1406	SCS215f	733716.403705	733716.404885	8	0.013328	60	10	60-180	60	164	GapPrac	1	15	3	3	1	target	1	440	13.328	13.315	13.341
ProbeTrack7	11	ProbeTrack	1406	SCS215f	733716.403705	733716.404958	8	0.013328	60	10	60-180	60	98	GapPrac	1	16	3	6	0	distractor	1	480	13.328	13.323	13.334
ProbeTrack7	11	ProbeTrack	1406	SCS215f	733716.403705	733716.405028	8	0.013328	60	10	60-180	60	114	GapPrac	1	17	3	0	1	target	1	547	13.328	13.323	13.332
ProbeTrack7	11	ProbeTrack	1406	SCS215f	733716.403705	733716.405096	8	0.013328	60	10	60-180	60	65	GapPrac	1	18	3	0	0	distractor	1	533	13.328	13.324	13.332
ProbeTrack7	11	ProbeTrack	1406	SCS215f	733716.403705	733716.405158	8	0.013328	60	10	60-180	60	169	GapPrac	1	19	3	6	1	target	1	493	13.328	13.325	13.332
ProbeTrack7	11	ProbeTrack	1406	SCS215f	733716.403705	733716.405237	8	0.013328	60	10	60-180	60	89	GapPrac	1	20	3	0	1	target	1	414	13.328	13.323	13.331
ProbeTrack7	11	ProbeTrack	1406	SCS215f	733716.406067	733716.406327	8	0.013328	60	10	60-180	60	126	GapExp	1	1	3	3	1	target	1	360	13.328	13.319	13.339
ProbeTrack7	11	ProbeTrack	1406	SCS215f	733716.406067	733716.406403	8	0.013328	60	10	60-180	60	98	GapExp	1	2	3	3	0	distractor	1	440	13.328	13.314	13.342
ProbeTrack7	11	ProbeTrack	1406	SCS215f	733716.406067	733716.406467	8	0.013328	60	10	60-180	60	64	GapExp	1	3	3	6	0	distractor	1	347	13.328	13.320	13.337
ProbeTrack7	11	ProbeTrack	1406	SCS215f	733716.406067	733716.406526	8	0.013328	60	10	60-180	60	99	GapExp	1	4	3	0	0	distractor	1	493	13.328	13.323	13.332
ProbeTrack7	11	ProbeTrack	1406	SCS215f	733716.406067	733716.406648	8	0.013328	60	10	60-180	60	161	GapExp	1	5	3	96	1	distractor	0	280	13.328	13.323	13.331
ProbeTrack7	11	ProbeTrack	1406	SCS215f	733716.406067	733716.406737	8	0.013328	60	10	60-180	60	106	GapExp	0	6	3	0	1	distractor	0	733	13.328	13.324	13.333
ProbeTrack7	11	ProbeTrack	1406	SCS215f	733716.406067	733716.406805	8	0.013328	60	10	60-180	60	65	GapExp	0	7	3	6	1	target	1	480	13.328	13.324	13.330
ProbeTrack7	11	ProbeTrack	1406	SCS215f	733716.406067	733716.406864	8	0.013328	60	10	60-180	60	148	GapExp	0	8	3	0	0	distractor	1	640	13.328	13.322	13.333
ProbeTrack7	11	ProbeTrack	1406	SCS215f	733716.406067	733716.406937	8	0.013328	60	10	60-180	60	89	GapExp	0	9	3	96	0	distractor	1	307	13.328	13.321	13.334
ProbeTrack7	11	ProbeTrack	1406	SCS215f	733716.406067	733716.407010	8	0.013328	60	10	60-180	60	109	GapExp	0	10	3	96	0	distractor	1	374	13.328	13.324	13.333
ProbeTrack7	11	ProbeTrack	1406	SCS215f	733716.406067	733716.407089	8	0.013328	60	10	60-180	60	151	GapExp	0	11	3	6	1	distractor	0	533	13.328	13.322	13.334
ProbeTrack7	11	ProbeTrack	1406	SCS215f	733716.406067	733716.407162	8	0.013328	60	10	60-180	60	167	GapExp	0	12	3	6	0	distractor	1	467	13.328	13.325	13.332
ProbeTrack7	11	ProbeTrack	1406	SCS215f	733716.406067	733716.407236	8	0.013328	60	10	60-180	60	64	GapExp	0	13	3	3	1	distractor	0	414	13.328	13.324	13.331
ProbeTrack7	11	ProbeTrack	1406	SCS215f	733716.406067	733716.407295	8	0.013328	60	10	60-180	60	141	GapExp	0	14	3	6	1	target	1	573	13.328	13.323	13.334
ProbeTrack7	11	ProbeTrack	1406	SCS215f	733716.406067	733716.407369	8	0.013328	60	10	60-180	60	102	GapExp	0	15	3	0	1	target	1	533	13.328	13.323	13.331
ProbeTrack7	11	ProbeTrack	1406	SCS215f	733716.406067	733716.407434	8	0.013328	60	10	60-180	60	83	GapExp	0	16	3	96	1	target	1	787	13.328	13.322	13.333
ProbeTrack7	11	ProbeTrack	1406	SCS215f	733716.406067	733716.407513	8	0.013328	60	10	60-180	60	142	GapExp	0	17	3	96	1	distractor	0	560	13.328	13.324	13.331
ProbeTrack7	11	ProbeTrack	1406	SCS215f	733716.406067	733716.407599	8	0.013328	60	10	60-180	60	167	GapExp	0	18	3	0	0	distractor	1	560	13.328	13.323	13.333
ProbeTrack7	11	ProbeTrack	1406	SCS215f	733716.406067	733716.407674	8	0.013328	60	10	60-180	60	86	GapExp	0	19	3	6	0	distractor	1	467	13.328	13.324	13.332
ProbeTrack7	11	ProbeTrack	1406	SCS215f	733716.406067	733716.407739	8	0.013328	60	10	60-180	60	103	GapExp	0	20	3	0	0	target	0	627	13.328	13.324	13.333
ProbeTrack7	11	ProbeTrack	1406	SCS215f	733716.406067	733716.407803	8	0.013328	60	10	60-180	60	118	GapExp	0	21	3	3	1	target	1	480	13.328	13.323	13.332
ProbeTrack7	11	ProbeTrack	1406	SCS215f	733716.406067	733716.407869	8	0.013328	60	10	60-180	60	108	GapExp	0	22	3	96	0	distractor	1	480	13.328	13.321	13.334
ProbeTrack7	11	ProbeTrack	1406	SCS215f	733716.406067	733716.407959	8	0.013328	60	10	60-180	60	106	GapExp	0	23	3	6	0	distractor	1	467	13.328	13.324	13.331
ProbeTrack7	11	ProbeTrack	1406	SCS215f	733716.406067	733716.408023	8	0.013328	60	10	60-180	60	80	GapExp	0	24	3	96	1	target	1	440	13.328	13.324	13.332
ProbeTrack7	11	ProbeTrack	1406	SCS215f	733716.406067	733716.408097	8	0.013328	60	10	60-180	60	151	GapExp	0	25	3	6	0	target	0	667	13.328	13.321	13.336
ProbeTrack7	11	ProbeTrack	1406	SCS215f	733716.406067	733716.408172	8	0.013328	60	10	60-180	60	140	GapExp	0	26	3	0	0	distractor	1	467	13.328	13.323	13.333
ProbeTrack7	11	ProbeTrack	1406	SCS215f	733716.406067	733716.408260	8	0.013328	60	10	60-180	60	118	GapExp	0	27	3	0	0	distractor	1	520	13.328	13.324	13.332
ProbeTrack7	11	ProbeTrack	1406	SCS215f	733716.406067	733716.408327	8	0.013328	60	10	60-180	60	66	GapExp	0	28	3	96	1	target	1	453	13.328	13.323	13.332
ProbeTrack7	11	ProbeTrack	1406	SCS215f	733716.406067	733716.408400	8	0.013328	60	10	60-180	60	132	GapExp	0	29	3	96	0	distractor	1	560	13.328	13.323	13.333
ProbeTrack7	11	ProbeTrack	1406	SCS215f	733716.406067	733716.408504	8	0.013328	60	10	60-180	60	72	GapExp	0	30	3	3	1	target	1	493	13.328	13.323	13.333
ProbeTrack7	11	ProbeTrack	1406	SCS215f	733716.406067	733716.408564	8	0.013328	60	10	60-180	60	114	GapExp	0	31	3	0	1	target	1	427	13.328	13.323	13.333
ProbeTrack7	11	ProbeTrack	1406	SCS215f	733716.406067	733716.408634	8	0.013328	60	10	60-180	60	64	GapExp	0	32	3	3	1	target	1	414	13.328	13.324	13.331
ProbeTrack7	11	ProbeTrack	1406	SCS215f	733716.406067	733716.408693	8	0.013328	60	10	60-180	60	113	GapExp	0	33	3	3	1	target	1	453	13.328	13.324	13.332
ProbeTrack7	11	ProbeTrack	1406	SCS215f	733716.406067	733716.408767	8	0.013328	60	10	60-180	60	173	GapExp	0	34	3	96	1	distractor	0	294	13.328	13.325	13.331
ProbeTrack7	11	ProbeTrack	1406	SCS215f	733716.406067	733716.408856	8	0.013328	60	10	60-180	60	73	GapExp	0	35	3	96	1	target	1	547	13.328	13.326	13.330
ProbeTrack7	11	ProbeTrack	1406	SCS215f	733716.406067	733716.408931	8	0.013328	60	10	60-180	60	74	GapExp	0	36	3	6	0	distractor	1	467	13.328	13.322	13.333
ProbeTrack7	11	ProbeTrack	1406	SCS215f	733716.406067	733716.408994	8	0.013328	60	10	60-180	60	96	GapExp	0	37	3	6	1	target	1	400	13.328	13.325	13.330
ProbeTrack7	11	ProbeTrack	1406	SCS215f	733716.406067	733716.409057	8	0.013328	60	10	60-180	60	158	GapExp	0	38	3	96	0	target	0	360	13.328	13.323	13.333
ProbeTrack7	11	ProbeTrack	1406	SCS215f	733716.406067	733716.409146	8	0.013328	60	10	60-180	60	115	GapExp	0	39	3	3	0	distractor	1	480	13.328	13.323	13.333
ProbeTrack7	11	ProbeTrack	1406	SCS215f	733716.406067	733716.409210	8	0.013328	60	10	60-180	60	169	GapExp	0	40	3	6	0	distractor	1	454	13.328	13.323	13.331
ProbeTrack7	11	ProbeTrack	1406	SCS215f	733716.406067	733716.409284	8	0.013328	60	10	60-180	60	168	GapExp	0	41	3	0	1	distractor	0	467	13.328	13.325	13.332
ProbeTrack7	11	ProbeTrack	1406	SCS215f	733716.406067	733716.409366	8	0.013328	60	10	60-180	60	92	GapExp	0	42	3	3	1	target	1	507	13.328	13.324	13.332
ProbeTrack7	11	ProbeTrack	1406	SCS215f	733716.406067	733716.409430	8	0.013328	60	10	60-180	60	149	GapExp	0	43	3	6	0	distractor	1	587	13.328	13.324	13.331
ProbeTrack7	11	ProbeTrack	1406	SCS215f	733716.406067	733716.409502	8	0.013328	60	10	60-180	60	162	GapExp	0	44	3	96	0	distractor	1	440	13.328	13.322	13.333
ProbeTrack7	11	ProbeTrack	1406	SCS215f	733716.406067	733716.409590	8	0.013328	60	10	60-180	60	87	GapExp	0	45	3	3	0	distractor	1	827	13.328	13.324	13.331
ProbeTrack7	11	ProbeTrack	1406	SCS215f	733716.406067	733716.409657	8	0.013328	60	10	60-180	60	121	GapExp	0	46	3	96	1	target	1	454	13.328	13.323	13.333
ProbeTrack7	11	ProbeTrack	1406	SCS215f	733716.406067	733716.409740	8	0.013328	60	10	60-180	60	73	GapExp	0	47	3	96	1	target	1	560	13.328	13.323	13.333
ProbeTrack7	11	ProbeTrack	1406	SCS215f	733716.406067	733716.409815	8	0.013328	60	10	60-180	60	110	GapExp	0	48	3	6	0	target	0	587	13.328	13.317	13.339
ProbeTrack7	11	ProbeTrack	1406	SCS215f	733716.406067	733716.409883	8	0.013328	60	10	60-180	60	90	GapExp	0	49	3	0	0	target	0	640	13.328	13.323	13.332
ProbeTrack7	11	ProbeTrack	1406	SCS215f	733716.406067	733716.409946	8	0.013328	60	10	60-180	60	179	GapExp	0	50	3	3	1	target	1	507	13.328	13.323	13.333
ProbeTrack7	11	ProbeTrack	1406	SCS215f	733716.406067	733716.410022	8	0.013328	60	10	60-180	60	81	GapExp	0	51	3	6	0	distractor	1	507	13.328	13.316	13.339
ProbeTrack7	11	ProbeTrack	1406	SCS215f	733716.406067	733716.410085	8	0.013328	60	10	60-180	60	174	GapExp	0	52	3	0	0	distractor	1	587	13.328	13.322	13.333
ProbeTrack7	11	ProbeTrack	1406	SCS215f	733716.406067	733716.410164	8	0.013328	60	10	60-180	60	122	GapExp	0	53	3	6	1	target	1	693	13.328	13.321	13.334
ProbeTrack7	11	ProbeTrack	1406	SCS215f	733716.406067	733716.410235	8	0.013328	60	10	60-180	60	115	GapExp	0	54	3	96	1	distractor	0	254	13.328	13.322	13.333
ProbeTrack7	11	ProbeTrack	1406	SCS215f	733716.406067	733716.410315	8	0.013328	60	10	60-180	60	126	GapExp	0	55	3	96	0	distractor	1	573	13.328	13.311	13.345
ProbeTrack7	11	ProbeTrack	1406	SCS215f	733716.406067	733716.410398	8	0.013328	60	10	60-180	60	179	GapExp	0	56	3	96	1	distractor	0	374	13.328	13.325	13.331
ProbeTrack7	11	ProbeTrack	1406	SCS215f	733716.406067	733716.410490	8	0.013328	60	10	60-180	60	70	GapExp	0	57	3	0	0	target	0	627	13.328	13.324	13.333
ProbeTrack7	11	ProbeTrack	1406	SCS215f	733716.406067	733716.410552	8	0.013328	60	10	60-180	60	72	GapExp	0	58	3	0	1	target	1	547	13.328	13.319	13.336
ProbeTrack7	11	ProbeTrack	1406	SCS215f	733716.406067	733716.410610	8	0.013328	60	10	60-180	60	143	GapExp	0	59	3	3	0	distractor	1	560	13.328	13.324	13.333
ProbeTrack7	11	ProbeTrack	1406	SCS215f	733716.406067	733716.410682	8	0.013328	60	10	60-180	60	157	GapExp	0	60	3	96	0	target	0	720	13.328	13.324	13.332
ProbeTrack7	11	ProbeTrack	1406	SCS215f	733716.406067	733716.410772	8	0.013328	60	10	60-180	60	176	GapExp	0	61	3	3	0	distractor	1	867	13.328	13.324	13.331
ProbeTrack7	11	ProbeTrack	1406	SCS215f	733716.406067	733716.410852	8	0.013328	60	10	60-180	60	100	GapExp	0	62	3	3	1	target	1	893	13.328	13.323	13.332
ProbeTrack7	11	ProbeTrack	1406	SCS215f	733716.406067	733716.410922	8	0.013328	60	10	60-180	60	173	GapExp	0	63	3	3	0	distractor	1	707	13.328	13.323	13.332
ProbeTrack7	11	ProbeTrack	1406	SCS215f	733716.406067	733716.411003	8	0.013328	60	10	60-180	60	103	GapExp	0	64	3	6	1	distractor	0	920	13.328	13.324	13.332
ProbeTrack7	11	ProbeTrack	1406	SCS215f	733716.406067	733716.411073	8	0.013328	60	10	60-180	60	128	GapExp	0	65	3	0	1	target	1	547	13.328	13.321	13.335
ProbeTrack7	11	ProbeTrack	1406	SCS215f	733716.406067	733716.411146	8	0.013328	60	10	60-180	60	74	GapExp	0	66	3	96	0	target	0	627	13.328	13.324	13.332
ProbeTrack7	11	ProbeTrack	1406	SCS215f	733716.406067	733716.411222	8	0.013328	60	10	60-180	60	120	GapExp	0	67	3	96	0	target	0	760	13.328	13.323	13.332
ProbeTrack7	11	ProbeTrack	1406	SCS215f	733716.406067	733716.411306	8	0.013328	60	10	60-180	60	143	GapExp	0	68	3	3	0	distractor	1	760	13.328	13.320	13.336
ProbeTrack7	11	ProbeTrack	1406	SCS215f	733716.406067	733716.411380	8	0.013328	60	10	60-180	60	161	GapExp	0	69	3	6	1	target	1	520	13.328	13.320	13.336
ProbeTrack7	11	ProbeTrack	1406	SCS215f	733716.406067	733716.411455	8	0.013328	60	10	60-180	60	165	GapExp	0	70	3	0	1	target	1	560	13.328	13.314	13.342
ProbeTrack7	11	ProbeTrack	1406	SCS215f	733716.406067	733716.411528	8	0.013328	60	10	60-180	60	93	GapExp	0	71	3	3	0	distractor	1	560	13.328	13.324	13.332
ProbeTrack7	11	ProbeTrack	1406	SCS215f	733716.406067	733716.411596	8	0.013328	60	10	60-180	60	157	GapExp	0	72	3	96	1	target	1	440	13.328	13.323	13.332
ProbeTrack7	11	ProbeTrack	1406	SCS215f	733716.406067	733716.411687	8	0.013328	60	10	60-180	60	121	GapExp	0	73	3	3	0	distractor	1	414	13.328	13.321	13.334
ProbeTrack7	11	ProbeTrack	1406	SCS215f	733716.406067	733716.411753	8	0.013328	60	10	60-180	60	152	GapExp	0	74	3	96	0	distractor	1	560	13.328	13.323	13.333
ProbeTrack7	11	ProbeTrack	1406	SCS215f	733716.406067	733716.411840	8	0.013328	60	10	60-180	60	145	GapExp	0	75	3	3	0	distractor	1	494	13.328	13.325	13.331
ProbeTrack7	11	ProbeTrack	1406	SCS215f	733716.406067	733716.411911	8	0.013328	60	10	60-180	60	162	GapExp	0	76	3	0	0	distractor	1	400	13.328	13.323	13.332
ProbeTrack7	11	ProbeTrack	1406	SCS215f	733716.406067	733716.411983	8	0.013328	60	10	60-180	60	66	GapExp	0	77	3	96	1	target	1	414	13.328	13.323	13.331
ProbeTrack7	11	ProbeTrack	1406	SCS215f	733716.406067	733716.412056	8	0.013328	60	10	60-180	60	134	GapExp	0	78	3	0	1	target	1	507	13.328	13.322	13.333
ProbeTrack7	11	ProbeTrack	1406	SCS215f	733716.406067	733716.412124	8	0.013328	60	10	60-180	60	115	GapExp	0	79	3	3	0	distractor	1	400	13.328	13.324	13.332
ProbeTrack7	11	ProbeTrack	1406	SCS215f	733716.406067	733716.412190	8	0.013328	60	10	60-180	60	89	GapExp	0	80	3	0	0	distractor	1	640	13.328	13.315	13.340
ProbeTrack7	11	ProbeTrack	1406	SCS215f	733716.406067	733716.412253	8	0.013328	60	10	60-180	60	65	GapExp	0	81	3	96	0	distractor	1	573	13.328	13.315	13.340
ProbeTrack7	11	ProbeTrack	1406	SCS215f	733716.406067	733716.412327	8	0.013328	60	10	60-180	60	68	GapExp	0	82	3	6	1	target	1	400	13.328	13.324	13.331
ProbeTrack7	11	ProbeTrack	1406	SCS215f	733716.406067	733716.412385	8	0.013328	60	10	60-180	60	146	GapExp	0	83	3	3	0	distractor	1	467	13.328	13.323	13.332
ProbeTrack7	11	ProbeTrack	1406	SCS215f	733716.406067	733716.412456	8	0.013328	60	10	60-180	60	77	GapExp	0	84	3	6	1	target	1	440	13.328	13.324	13.331
ProbeTrack7	11	ProbeTrack	1406	SCS215f	733716.406067	733716.412518	8	0.013328	60	10	60-180	60	136	GapExp	0	85	3	0	0	distractor	1	947	13.328	13.318	13.337
ProbeTrack7	11	ProbeTrack	1406	SCS215f	733716.406067	733716.412591	8	0.013328	60	10	60-180	60	172	GapExp	0	86	3	96	0	distractor	1	520	13.328	13.324	13.333
ProbeTrack7	11	ProbeTrack	1406	SCS215f	733716.406067	733716.412688	8	0.013328	60	10	60-180	60	153	GapExp	0	87	3	96	1	target	1	520	13.328	13.314	13.341
ProbeTrack7	11	ProbeTrack	1406	SCS215f	733716.406067	733716.412778	8	0.013328	60	10	60-180	60	61	GapExp	0	88	3	3	1	target	1	453	13.328	13.326	13.330
ProbeTrack7	11	ProbeTrack	1406	SCS215f	733716.406067	733716.412836	8	0.013328	60	10	60-180	60	157	GapExp	0	89	3	6	1	distractor	0	454	13.328	13.317	13.338
ProbeTrack7	11	ProbeTrack	1406	SCS215f	733716.406067	733716.412912	8	0.013328	60	10	60-180	60	61	GapExp	0	90	3	6	0	distractor	1	454	13.328	13.323	13.332
ProbeTrack7	11	ProbeTrack	1406	SCS215f	733716.406067	733716.412970	8	0.013328	60	10	60-180	60	71	GapExp	0	91	3	0	1	target	1	480	13.328	13.317	13.339
ProbeTrack7	11	ProbeTrack	1406	SCS215f	733716.406067	733716.413032	8	0.013328	60	10	60-180	60	132	GapExp	0	92	3	0	1	distractor	0	427	13.328	13.324	13.331
ProbeTrack7	11	ProbeTrack	1406	SCS215f	733716.406067	733716.413104	8	0.013328	60	10	60-180	60	144	GapExp	0	93	3	6	0	target	0	680	13.328	13.323	13.331
ProbeTrack7	11	ProbeTrack	1406	SCS215f	733716.406067	733716.413178	8	0.013328	60	10	60-180	60	121	GapExp	0	94	3	0	0	distractor	1	533	13.328	13.323	13.333
ProbeTrack7	11	ProbeTrack	1406	SCS215f	733716.406067	733716.413249	8	0.013328	60	10	60-180	60	107	GapExp	0	95	3	96	0	distractor	1	454	13.328	13.323	13.334
ProbeTrack7	11	ProbeTrack	1406	SCS215f	733716.406067	733716.413328	8	0.013328	60	10	60-180	60	79	GapExp	0	96	3	6	1	target	1	600	13.328	13.324	13.333
ProbeTrack7	11	ProbeTrack	1406	SCS215f	733716.406067	733716.413391	8	0.013328	60	10	60-180	60	147	GapExp	0	97	3	3	1	target	1	454	13.328	13.325	13.331
ProbeTrack7	11	ProbeTrack	1406	SCS215f	733716.406067	733716.413461	8	0.013328	60	10	60-180	60	140	GapExp	0	98	3	6	0	distractor	1	467	13.328	13.322	13.333
ProbeTrack7	11	ProbeTrack	1406	SCS215f	733716.406067	733716.413531	8	0.013328	60	10	60-180	60	148	GapExp	0	99	3	3	0	distractor	1	374	13.328	13.322	13.334
ProbeTrack7	11	ProbeTrack	1406	SCS215f	733716.406067	733716.413608	8	0.013328	60	10	60-180	60	154	GapExp	0	100	3	0	1	distractor	0	467	13.328	13.322	13.333
ProbeTrack7	11	ProbeTrack	1406	SCS215f	733716.406067	733716.413682	8	0.013328	60	10	60-180	60	105	GapExp	0	101	3	3	0	distractor	1	374	13.328	13.323	13.333
ProbeTrack7	11	ProbeTrack	1406	SCS215f	733716.406067	733716.414341	8	0.013328	60	10	60-180	60	110	GapExp	0	102	3	0	1	target	1	507	13.328	13.313	13.342
ProbeTrack7	11	ProbeTrack	1406	SCS215f	733716.406067	733716.414409	8	0.013328	60	10	60-180	60	155	GapExp	0	103	3	0	0	distractor	1	454	13.328	13.323	13.332
ProbeTrack7	11	ProbeTrack	1406	SCS215f	733716.406067	733716.414483	8	0.013328	60	10	60-180	60	172	GapExp	0	104	3	6	0	distractor	1	813	13.328	13.323	13.333
ProbeTrack7	11	ProbeTrack	1406	SCS215f	733716.406067	733716.414564	8	0.013328	60	10	60-180	60	117	GapExp	0	105	3	0	1	distractor	0	600	13.328	13.323	13.332
ProbeTrack7	11	ProbeTrack	1406	SCS215f	733716.406067	733716.414631	8	0.013328	60	10	60-180	60	174	GapExp	0	106	3	0	0	distractor	1	414	13.328	13.322	13.334
ProbeTrack7	11	ProbeTrack	1406	SCS215f	733716.406067	733716.414705	8	0.013328	60	10	60-180	60	133	GapExp	0	107	3	3	0	distractor	1	427	13.328	13.323	13.332
ProbeTrack7	11	ProbeTrack	1406	SCS215f	733716.406067	733716.414774	8	0.013328	60	10	60-180	60	135	GapExp	0	108	3	3	1	target	1	467	13.328	13.323	13.332
ProbeTrack7	11	ProbeTrack	1406	SCS215f	733716.406067	733716.414842	8	0.013328	60	10	60-180	60	123	GapExp	0	109	3	3	1	distractor	0	453	13.328	13.324	13.332
ProbeTrack7	11	ProbeTrack	1406	SCS215f	733716.406067	733716.414908	8	0.013328	60	10	60-180	60	77	GapExp	0	110	3	0	1	target	1	533	13.328	13.324	13.334
ProbeTrack7	11	ProbeTrack	1406	SCS215f	733716.406067	733716.414971	8	0.013328	60	10	60-180	60	117	GapExp	0	111	3	6	0	distractor	1	693	13.328	13.323	13.331
ProbeTrack7	11	ProbeTrack	1406	SCS215f	733716.406067	733716.415040	8	0.013328	60	10	60-180	60	167	GapExp	0	112	3	0	1	target	1	587	13.328	13.322	13.333
ProbeTrack7	11	ProbeTrack	1406	SCS215f	733716.406067	733716.415115	8	0.013328	60	10	60-180	60	65	GapExp	0	113	3	3	1	target	1	427	13.328	13.323	13.334
ProbeTrack7	11	ProbeTrack	1406	SCS215f	733716.406067	733716.415173	8	0.013328	60	10	60-180	60	159	GapExp	0	114	3	6	1	target	1	613	13.328	13.323	13.333
ProbeTrack7	11	ProbeTrack	1406	SCS215f	733716.406067	733716.415248	8	0.013328	60	10	60-180	60	88	GapExp	0	115	3	96	0	distractor	1	480	13.328	13.324	13.332
ProbeTrack7	11	ProbeTrack	1406	SCS215f	733716.406067	733716.415325	8	0.013328	60	10	60-180	60	172	GapExp	0	116	3	3	0	distractor	1	560	13.328	13.323	13.331
ProbeTrack7	11	ProbeTrack	1406	SCS215f	733716.406067	733716.415401	8	0.013328	60	10	60-180	60	157	GapExp	0	117	3	3	1	distractor	0	440	13.328	13.326	13.330
ProbeTrack7	11	ProbeTrack	1406	SCS215f	733716.406067	733716.415473	8	0.013328	60	10	60-180	60	105	GapExp	0	118	3	6	0	distractor	1	440	13.328	13.323	13.333
ProbeTrack7	11	ProbeTrack	1406	SCS215f	733716.406067	733716.415536	8	0.013328	60	10	60-180	60	127	GapExp	0	119	3	6	1	target	1	400	13.328	13.322	13.334
ProbeTrack7	11	ProbeTrack	1406	SCS215f	733716.406067	733716.415603	8	0.013328	60	10	60-180	60	157	GapExp	0	120	3	96	1	target	1	254	13.328	13.322	13.333
ProbeTrack7	11	ProbeTrack	1406	SCS215f	733716.406067	733716.415693	8	0.013328	60	10	60-180	60	151	GapExp	0	121	3	96	1	target	1	360	13.328	13.324	13.333
ProbeTrack7	11	ProbeTrack	1406	SCS215f	733716.406067	733716.415778	8	0.013328	60	10	60-180	60	135	GapExp	0	122	3	3	1	target	1	400	13.328	13.304	13.352
ProbeTrack7	11	ProbeTrack	1406	SCS215f	733716.406067	733716.415846	8	0.013328	60	10	60-180	60	102	GapExp	0	123	3	0	0	distractor	1	454	13.328	13.324	13.333
ProbeTrack7	11	ProbeTrack	1406	SCS215f	733716.406067	733716.415913	8	0.013328	60	10	60-180	60	76	GapExp	0	124	3	6	1	target	1	387	13.328	13.324	13.332
ProbeTrack7	11	ProbeTrack	1406	SCS215f	733716.406067	733716.415972	8	0.013328	60	10	60-180	60	87	GapExp	0	125	3	6	1	target	1	360	13.328	13.326	13.330
ProbeTrack7	11	ProbeTrack	1406	SCS215f	733716.418435	733716.418647	8	0.013328	60	10	60-180	60	132	GapPrac	1	1	4	6	1	target	1	720	13.328	13.321	13.334
ProbeTrack7	11	ProbeTrack	1406	SCS215f	733716.418435	733716.418733	8	0.013328	60	10	60-180	60	67	GapPrac	1	2	4	3	0	distractor	1	374	13.328	13.322	13.332
ProbeTrack7	11	ProbeTrack	1406	SCS215f	733716.418435	733716.418793	8	0.013328	60	10	60-180	60	109	GapPrac	1	3	4	6	0	target	0	427	13.328	13.322	13.334
ProbeTrack7	11	ProbeTrack	1406	SCS215f	733716.418435	733716.418859	8	0.013328	60	10	60-180	60	166	GapPrac	1	4	4	0	1	distractor	0	547	13.328	13.325	13.331
ProbeTrack7	11	ProbeTrack	1406	SCS215f	733716.418435	733716.418935	8	0.013328	60	10	60-180	60	164	GapPrac	1	5	4	6	1	target	1	534	13.328	13.322	13.334
ProbeTrack7	11	ProbeTrack	1406	SCS215f	733716.418435	733716.419009	8	0.013328	60	10	60-180	60	126	GapPrac	1	6	4	96	0	distractor	1	280	13.328	13.324	13.333
ProbeTrack7	11	ProbeTrack	1406	SCS215f	733716.418435	733716.419089	8	0.013328	60	10	60-180	60	152	GapPrac	1	7	4	6	0	distractor	1	454	13.328	13.305	13.350
ProbeTrack7	11	ProbeTrack	1406	SCS215f	733716.418435	733716.419168	8	0.013328	60	10	60-180	60	110	GapPrac	1	8	4	6	1	target	1	773	13.328	13.323	13.332
ProbeTrack7	11	ProbeTrack	1406	SCS215f	733716.418435	733716.419241	8	0.013328	60	10	60-180	60	150	GapPrac	1	9	4	3	1	distractor	0	587	13.328	13.323	13.332
ProbeTrack7	11	ProbeTrack	1406	SCS215f	733716.418435	733716.419314	8	0.013328	60	10	60-180	60	89	GapPrac	1	10	4	96	1	target	1	520	13.328	13.323	13.332
ProbeTrack7	11	ProbeTrack	1406	SCS215f	733716.418435	733716.419390	8	0.013328	60	10	60-180	60	97	GapPrac	1	11	4	6	0	distractor	1	467	13.328	13.322	13.333
ProbeTrack7	11	ProbeTrack	1406	SCS215f	733716.418435	733716.419454	8	0.013328	60	10	60-180	60	170	GapPrac	1	12	4	0	0	distractor	1	414	13.328	13.322	13.332
ProbeTrack7	11	ProbeTrack	1406	SCS215f	733716.418435	733716.419527	8	0.013328	60	10	60-180	60	142	GapPrac	1	13	4	0	1	target	1	573	13.328	13.323	13.333
ProbeTrack7	11	ProbeTrack	1406	SCS215f	733716.418435	733716.419600	8	0.013328	60	10	60-180	60	93	GapPrac	1	14	4	0	1	target	1	547	13.328	13.318	13.338
ProbeTrack7	11	ProbeTrack	1406	SCS215f	733716.418435	733716.419664	8	0.013328	60	10	60-180	60	120	GapPrac	1	15	4	3	1	target	1	374	13.328	13.326	13.330
ProbeTrack7	11	ProbeTrack	1406	SCS215f	733716.418435	733716.419729	8	0.013328	60	10	60-180	60	119	GapPrac	1	16	4	0	0	distractor	1	533	13.328	13.321	13.334
ProbeTrack7	11	ProbeTrack	1406	SCS215f	733716.418435	733716.419795	8	0.013328	60	10	60-180	60	136	GapPrac	1	17	4	96	1	target	1	560	13.328	13.319	13.335
ProbeTrack7	11	ProbeTrack	1406	SCS215f	733716.418435	733716.419879	8	0.013328	60	10	60-180	60	86	GapPrac	1	18	4	3	0	distractor	1	507	13.328	13.325	13.332
ProbeTrack7	11	ProbeTrack	1406	SCS215f	733716.418435	733716.419941	8	0.013328	60	10	60-180	60	150	GapPrac	1	19	4	3	0	distractor	1	533	13.328	13.323	13.333
ProbeTrack7	11	ProbeTrack	1406	SCS215f	733716.418435	733716.420014	8	0.013328	60	10	60-180	60	120	GapPrac	1	20	4	96	0	distractor	1	507	13.328	13.322	13.333
ProbeTrack7	11	ProbeTrack	1406	SCS215f	733716.421050	733716.421323	8	0.013328	60	10	60-180	60	88	GapExp	1	1	4	3	1	distractor	0	400	13.328	13.326	13.331
ProbeTrack7	11	ProbeTrack	1406	SCS215f	733716.421050	733716.421393	8	0.013328	60	10	60-180	60	77	GapExp	1	2	4	6	0	distractor	1	493	13.328	13.324	13.333
ProbeTrack7	11	ProbeTrack	1406	SCS215f	733716.421050	733716.421457	8	0.013328	60	10	60-180	60	84	GapExp	1	3	4	96	1	target	1	454	13.328	13.316	13.339
ProbeTrack7	11	ProbeTrack	1406	SCS215f	733716.421050	733716.421562	8	0.013328	60	10	60-180	60	67	GapExp	1	4	4	96	0	target	0	600	13.328	13.322	13.334
ProbeTrack7	11	ProbeTrack	1406	SCS215f	733716.421050	733716.421647	8	0.013328	60	10	60-180	60	162	GapExp	1	5	4	0	0	distractor	1	533	13.328	13.318	13.337
ProbeTrack7	11	ProbeTrack	1406	SCS215f	733716.421050	733716.421794	8	0.013328	60	10	60-180	60	166	GapExp	0	6	4	3	1	target	1	507	13.328	13.319	13.336
ProbeTrack7	11	ProbeTrack	1406	SCS215f	733716.421050	733716.421873	8	0.013328	60	10	60-180	60	64	GapExp	0	7	4	3	1	target	1	454	13.328	13.325	13.331
ProbeTrack7	11	ProbeTrack	1406	SCS215f	733716.421050	733716.421937	8	0.013328	60	10	60-180	60	156	GapExp	0	8	4	6	0	distractor	1	560	13.328	13.323	13.332
ProbeTrack7	11	ProbeTrack	1406	SCS215f	733716.421050	733716.422013	8	0.013328	60	10	60-180	60	72	GapExp	0	9	4	6	0	distractor	1	547	13.328	13.318	13.339
ProbeTrack7	11	ProbeTrack	1406	SCS215f	733716.421050	733716.422079	8	0.013328	60	10	60-180	60	155	GapExp	0	10	4	6	1	target	1	560	13.328	13.322	13.334
ProbeTrack7	11	ProbeTrack	1406	SCS215f	733716.421050	733716.422154	8	0.013328	60	10	60-180	60	127	GapExp	0	11	4	6	0	distractor	1	440	13.328	13.325	13.330
ProbeTrack7	11	ProbeTrack	1406	SCS215f	733716.421050	733716.422221	8	0.013328	60	10	60-180	60	116	GapExp	0	12	4	96	1	target	1	467	13.328	13.322	13.333
ProbeTrack7	11	ProbeTrack	1406	SCS215f	733716.421050	733716.422309	8	0.013328	60	10	60-180	60	175	GapExp	0	13	4	0	1	target	1	547	13.328	13.325	13.330
ProbeTrack7	11	ProbeTrack	1406	SCS215f	733716.421050	733716.422392	8	0.013328	60	10	60-180	60	70	GapExp	0	14	4	0	1	target	1	360	13.328	13.322	13.333
ProbeTrack7	11	ProbeTrack	1406	SCS215f	733716.421050	733716.422449	8	0.013328	60	10	60-180	60	108	GapExp	0	15	4	96	0	target	0	427	13.328	13.322	13.333
ProbeTrack7	11	ProbeTrack	1406	SCS215f	733716.421050	733716.422530	8	0.013328	60	10	60-180	60	155	GapExp	0	16	4	6	1	target	1	454	13.328	13.323	13.333
ProbeTrack7	11	ProbeTrack	1406	SCS215f	733716.421050	733716.422602	8	0.013328	60	10	60-180	60	169	GapExp	0	17	4	0	0	distractor	1	533	13.328	13.326	13.330
ProbeTrack7	11	ProbeTrack	1406	SCS215f	733716.421050	733716.422677	8	0.013328	60	10	60-180	60	92	GapExp	0	18	4	96	0	distractor	1	707	13.328	13.324	13.332
ProbeTrack7	11	ProbeTrack	1406	SCS215f	733716.421050	733716.422773	8	0.013328	60	10	60-180	60	126	GapExp	0	19	4	6	1	distractor	0	787	13.328	13.324	13.331
ProbeTrack7	11	ProbeTrack	1406	SCS215f	733716.421050	733716.422845	8	0.013328	60	10	60-180	60	121	GapExp	0	20	4	0	0	target	0	680	13.328	13.322	13.334
ProbeTrack7	11	ProbeTrack	1406	SCS215f	733716.421050	733716.422913	8	0.013328	60	10	60-180	60	144	GapExp	0	21	4	3	0	distractor	1	653	13.328	13.322	13.335
ProbeTrack7	11	ProbeTrack	1406	SCS215f	733716.421050	733716.422986	8	0.013328	60	10	60-180	60	157	GapExp	0	22	4	3	0	distractor	1	613	13.328	13.324	13.331
ProbeTrack7	11	ProbeTrack	1406	SCS215f	733716.421050	733716.423062	8	0.013328	60	10	60-180	60	157	GapExp	0	23	4	3	1	target	1	573	13.328	13.324	13.333
ProbeTrack7	11	ProbeTrack	1406	SCS215f	733716.421050	733716.423137	8	0.013328	60	10	60-180	60	64	GapExp	0	24	4	0	0	distractor	1	613	13.328	13.322	13.334
ProbeTrack7	11	ProbeTrack	1406	SCS215f	733716.421050	733716.423200	8	0.013328	60	10	60-180	60	71	GapExp	0	25	4	96	0	distractor	1	560	13.328	13.322	13.333
ProbeTrack7	11	ProbeTrack	1406	SCS215f	733716.421050	733716.423276	8	0.013328	60	10	60-180	60	127	GapExp	0	26	4	3	1	distractor	0	800	13.328	13.323	13.333
ProbeTrack7	11	ProbeTrack	1406	SCS215f	733716.421050	733716.423349	8	0.013328	60	10	60-180	60	84	GapExp	0	27	4	3	0	distractor	1	587	13.328	13.321	13.334
ProbeTrack7	11	ProbeTrack	1406	SCS215f	733716.421050	733716.423411	8	0.013328	60	10	60-180	60	132	GapExp	0	28	4	6	0	distractor	1	773	13.328	13.321	13.335
ProbeTrack7	11	ProbeTrack	1406	SCS215f	733716.421050	733716.423483	8	0.013328	60	10	60-180	60	139	GapExp	0	29	4	96	1	target	1	520	13.328	13.322	13.334
ProbeTrack7	11	ProbeTrack	1406	SCS215f	733716.421050	733716.423569	8	0.013328	60	10	60-180	60	139	GapExp	0	30	4	6	1	distractor	0	547	13.328	13.324	13.332
ProbeTrack7	11	ProbeTrack	1406	SCS215f	733716.421050	733716.423645	8	0.013328	60	10	60-180	60	174	GapExp	0	31	4	6	0	distractor	1	533	13.328	13.322	13.334
ProbeTrack7	11	ProbeTrack	1406	SCS215f	733716.421050	733716.423721	8	0.013328	60	10	60-180	60	62	GapExp	0	32	4	96	0	distractor	1	493	13.328	13.322	13.332
ProbeTrack7	11	ProbeTrack	1406	SCS215f	733716.421050	733716.423793	8	0.013328	60	10	60-180	60	76	GapExp	0	33	4	0	0	distractor	1	507	13.328	13.323	13.333
ProbeTrack7	11	ProbeTrack	1406	SCS215f	733716.421050	733716.423854	8	0.013328	60	10	60-180	60	63	GapExp	0	34	4	0	0	target	0	667	13.328	13.327	13.330
ProbeTrack7	11	ProbeTrack	1406	SCS215f	733716.421050	733716.423914	8	0.013328	60	10	60-180	60	109	GapExp	0	35	4	3	0	distractor	1	547	13.328	13.324	13.332
ProbeTrack7	11	ProbeTrack	1406	SCS215f	733716.421050	733716.423980	8	0.013328	60	10	60-180	60	106	GapExp	0	36	4	3	0	distractor	1	573	13.328	13.323	13.333
ProbeTrack7	11	ProbeTrack	1406	SCS215f	733716.421050	733716.424045	8	0.013328	60	10	60-180	60	163	GapExp	0	37	4	96	1	distractor	0	840	13.328	13.323	13.333
ProbeTrack7	11	ProbeTrack	1406	SCS215f	733716.421050	733716.424141	8	0.013328	60	10	60-180	60	150	GapExp	0	38	4	3	0	distractor	1	680	13.328	13.324	13.332
ProbeTrack7	11	ProbeTrack	1406	SCS215f	733716.421050	733716.424215	8	0.013328	60	10	60-180	60	66	GapExp	0	39	4	3	0	target	0	773	13.328	13.323	13.333
ProbeTrack7	11	ProbeTrack	1406	SCS215f	733716.421050	733716.424277	8	0.013328	60	10	60-180	60	78	GapExp	0	40	4	0	1	target	1	520	13.328	13.323	13.332
ProbeTrack7	11	ProbeTrack	1406	SCS215f	733716.421050	733716.424339	8	0.013328	60	10	60-180	60	178	GapExp	0	41	4	0	1	target	1	760	13.328	13.323	13.332
ProbeTrack7	11	ProbeTrack	1406	SCS215f	733716.421050	733716.424417	8	0.013328	60	10	60-180	60	162	GapExp	0	42	4	3	0	distractor	1	547	13.328	13.323	13.333
ProbeTrack7	11	ProbeTrack	1406	SCS215f	733716.421050	733716.424490	8	0.013328	60	10	60-180	60	153	GapExp	0	43	4	96	0	target	0	587	13.328	13.322	13.333
ProbeTrack7	11	ProbeTrack	1406	SCS215f	733716.421050	733716.424578	8	0.013328	60	10	60-180	60	154	GapExp	0	44	4	6	1	target	1	533	13.328	13.323	13.332
ProbeTrack7	11	ProbeTrack	1406	SCS215f	733716.421050	733716.424652	8	0.013328	60	10	60-180	60	129	GapExp	0	45	4	0	0	distractor	1	507	13.328	13.317	13.338
ProbeTrack7	11	ProbeTrack	1406	SCS215f	733716.421050	733716.424725	8	0.013328	60	10	60-180	60	96	GapExp	0	46	4	0	1	target	1	480	13.328	13.326	13.330
ProbeTrack7	11	ProbeTrack	1406	SCS215f	733716.421050	733716.424789	8	0.013328	60	10	60-180	60	117	GapExp	0	47	4	0	1	target	1	467	13.328	13.320	13.337
ProbeTrack7	11	ProbeTrack	1406	SCS215f	733716.421050	733716.424856	8	0.013328	60	10	60-180	60	91	GapExp	0	48	4	3	1	target	1	387	13.328	13.326	13.330
ProbeTrack7	11	ProbeTrack	1406	SCS215f	733716.421050	733716.424917	8	0.013328	60	10	60-180	60	86	GapExp	0	49	4	3	1	target	1	374	13.328	13.323	13.333
ProbeTrack7	11	ProbeTrack	1406	SCS215f	733716.421050	733716.424979	8	0.013328	60	10	60-180	60	89	GapExp	0	50	4	96	1	target	1	547	13.328	13.322	13.332
ProbeTrack7	11	ProbeTrack	1406	SCS215f	733716.421050	733716.425056	8	0.013328	60	10	60-180	60	168	GapExp	0	51	4	96	1	target	1	467	13.328	13.318	13.337
ProbeTrack7	11	ProbeTrack	1406	SCS215f	733716.421050	733716.425147	8	0.013328	60	10	60-180	60	139	GapExp	0	52	4	96	1	target	1	374	13.328	13.323	13.333
ProbeTrack7	11	ProbeTrack	1406	SCS215f	733716.421050	733716.425230	8	0.013328	60	10	60-180	60	133	GapExp	0	53	4	6	0	target	0	467	13.328	13.326	13.330
ProbeTrack7	11	ProbeTrack	1406	SCS215f	733716.421050	733716.425301	8	0.013328	60	10	60-180	60	73	GapExp	0	54	4	6	0	distractor	1	520	13.328	13.325	13.330
ProbeTrack7	11	ProbeTrack	1406	SCS215f	733716.421050	733716.425377	8	0.013328	60	10	60-180	60	124	GapExp	0	55	4	6	1	distractor	0	680	13.328	13.326	13.330
ProbeTrack7	11	ProbeTrack	1406	SCS215f	733716.421050	733716.425447	8	0.013328	60	10	60-180	60	133	GapExp	0	56	4	0	0	target	0	627	13.328	13.324	13.331
ProbeTrack7	11	ProbeTrack	1406	SCS215f	733716.421050	733716.425517	8	0.013328	60	10	60-180	60	93	GapExp	0	57	4	3	1	target	1	547	13.328	13.315	13.341
ProbeTrack7	11	ProbeTrack	1406	SCS215f	733716.421050	733716.425582	8	0.013328	60	10	60-180	60	98	GapExp	0	58	4	6	1	target	1	427	13.328	13.323	13.332
ProbeTrack7	11	ProbeTrack	1406	SCS215f	733716.421050	733716.425645	8	0.013328	60	10	60-180	60	103	GapExp	0	59	4	0	1	target	1	387	13.328	13.324	13.334
ProbeTrack7	11	ProbeTrack	1406	SCS215f	733716.421050	733716.425709	8	0.013328	60	10	60-180	60	166	GapExp	0	60	4	3	0	target	0	440	13.328	13.324	13.332
ProbeTrack7	11	ProbeTrack	1406	SCS215f	733716.421050	733716.425782	8	0.013328	60	10	60-180	60	77	GapExp	0	61	4	0	0	target	0	454	13.328	13.324	13.331
ProbeTrack7	11	ProbeTrack	1406	SCS215f	733716.421050	733716.425840	8	0.013328	60	10	60-180	60	113	GapExp	0	62	4	3	0	distractor	1	600	13.328	13.323	13.333
ProbeTrack7	11	ProbeTrack	1406	SCS215f	733716.421050	733716.425907	8	0.013328	60	10	60-180	60	130	GapExp	0	63	4	3	0	distractor	1	480	13.328	13.323	13.333
ProbeTrack7	11	ProbeTrack	1406	SCS215f	733716.421050	733716.425975	8	0.013328	60	10	60-180	60	172	GapExp	0	64	4	96	1	target	1	613	13.328	13.322	13.333
ProbeTrack7	11	ProbeTrack	1406	SCS215f	733716.421050	733716.426066	8	0.013328	60	10	60-180	60	147	GapExp	0	65	4	0	0	distractor	1	600	13.328	13.318	13.338
ProbeTrack7	11	ProbeTrack	1406	SCS215f	733716.421050	733716.426137	8	0.013328	60	10	60-180	60	87	GapExp	0	66	4	96	1	target	1	493	13.328	13.323	13.333
ProbeTrack7	11	ProbeTrack	1406	SCS215f	733716.421050	733716.426215	8	0.013328	60	10	60-180	60	67	GapExp	0	67	4	3	1	target	1	400	13.328	13.326	13.330
ProbeTrack7	11	ProbeTrack	1406	SCS215f	733716.421050	733716.426273	8	0.013328	60	10	60-180	60	94	GapExp	0	68	4	96	0	target	0	374	13.328	13.325	13.332
ProbeTrack7	11	ProbeTrack	1406	SCS215f	733716.421050	733716.426350	8	0.013328	60	10	60-180	60	87	GapExp	0	69	4	96	0	distractor	1	520	13.328	13.313	13.341
ProbeTrack7	11	ProbeTrack	1406	SCS215f	733716.421050	733716.426426	8	0.013328	60	10	60-180	60	176	GapExp	0	70	4	96	1	target	1	493	13.328	13.323	13.332
ProbeTrack7	11	ProbeTrack	1406	SCS215f	733716.421050	733716.426523	8	0.013328	60	10	60-180	60	155	GapExp	0	71	4	0	0	distractor	1	454	13.328	13.319	13.337
ProbeTrack7	11	ProbeTrack	1406	SCS215f	733716.421050	733716.426598	8	0.013328	60	10	60-180	60	143	GapExp	0	72	4	6	1	target	1	414	13.328	13.322	13.333
ProbeTrack7	11	ProbeTrack	1406	SCS215f	733716.421050	733716.426669	8	0.013328	60	10	60-180	60	64	GapExp	0	73	4	0	0	distractor	1	454	13.328	13.323	13.334
ProbeTrack7	11	ProbeTrack	1406	SCS215f	733716.421050	733716.426727	8	0.013328	60	10	60-180	60	122	GapExp	0	74	4	96	1	target	1	467	13.328	13.324	13.332
ProbeTrack7	11	ProbeTrack	1406	SCS215f	733716.421050	733716.426808	8	0.013328	60	10	60-180	60	162	GapExp	0	75	4	6	1	target	1	520	13.328	13.318	13.338
ProbeTrack7	11	ProbeTrack	1406	SCS215f	733716.421050	733716.426883	8	0.013328	60	10	60-180	60	153	GapExp	0	76	4	0	1	target	1	627	13.328	13.324	13.332
ProbeTrack7	11	ProbeTrack	1406	SCS215f	733716.421050	733716.426956	8	0.013328	60	10	60-180	60	116	GapExp	0	77	4	96	0	target	0	827	13.328	13.301	13.356
ProbeTrack7	11	ProbeTrack	1406	SCS215f	733716.421050	733716.427041	8	0.013328	60	10	60-180	60	175	GapExp	0	78	4	0	1	distractor	0	440	13.328	13.324	13.332
ProbeTrack7	11	ProbeTrack	1406	SCS215f	733716.421050	733716.427115	8	0.013328	60	10	60-180	60	98	GapExp	0	79	4	3	1	target	1	467	13.328	13.319	13.338
ProbeTrack7	11	ProbeTrack	1406	SCS215f	733716.421050	733716.427177	8	0.013328	60	10	60-180	60	90	GapExp	0	80	4	3	0	distractor	1	547	13.328	13.320	13.336
ProbeTrack7	11	ProbeTrack	1406	SCS215f	733716.421050	733716.427239	8	0.013328	60	10	60-180	60	145	GapExp	0	81	4	6	0	distractor	1	720	13.328	13.324	13.333
ProbeTrack7	11	ProbeTrack	1406	SCS215f	733716.421050	733716.427313	8	0.013328	60	10	60-180	60	164	GapExp	0	82	4	3	1	target	1	400	13.328	13.321	13.334
ProbeTrack7	11	ProbeTrack	1406	SCS215f	733716.421050	733716.427385	8	0.013328	60	10	60-180	60	62	GapExp	0	83	4	6	0	distractor	1	720	13.328	13.324	13.332
ProbeTrack7	11	ProbeTrack	1406	SCS215f	733716.421050	733716.427452	8	0.013328	60	10	60-180	60	164	GapExp	0	84	4	6	1	target	1	573	13.328	13.323	13.332
ProbeTrack7	11	ProbeTrack	1406	SCS215f	733716.421050	733716.427528	8	0.013328	60	10	60-180	60	102	GapExp	0	85	4	96	1	target	1	440	13.328	13.323	13.333
ProbeTrack7	11	ProbeTrack	1406	SCS215f	733716.421050	733716.427605	8	0.013328	60	10	60-180	60	79	GapExp	0	86	4	6	1	target	1	480	13.328	13.323	13.332
ProbeTrack7	11	ProbeTrack	1406	SCS215f	733716.421050	733716.427671	8	0.013328	60	10	60-180	60	162	GapExp	0	87	4	3	0	distractor	1	693	13.328	13.322	13.333
ProbeTrack7	11	ProbeTrack	1406	SCS215f	733716.421050	733716.427752	8	0.013328	60	10	60-180	60	81	GapExp	0	88	4	6	0	distractor	1	507	13.328	13.324	13.331
ProbeTrack7	11	ProbeTrack	1406	SCS215f	733716.421050	733716.427815	8	0.013328	60	10	60-180	60	133	GapExp	0	89	4	0	1	target	1	573	13.328	13.322	13.333
ProbeTrack7	11	ProbeTrack	1406	SCS215f	733716.421050	733716.427885	8	0.013328	60	10	60-180	60	112	GapExp	0	90	4	6	0	distractor	1	493	13.328	13.324	13.331
ProbeTrack7	11	ProbeTrack	1406	SCS215f	733716.421050	733716.427951	8	0.013328	60	10	60-180	60	136	GapExp	0	91	4	96	1	target	1	614	13.328	13.321	13.333
ProbeTrack7	11	ProbeTrack	1406	SCS215f	733716.421050	733716.428037	8	0.013328	60	10	60-180	60	154	GapExp	0	92	4	96	1	target	1	507	13.328	13.318	13.337
ProbeTrack7	11	ProbeTrack	1406	SCS215f	733716.421050	733716.428125	8	0.013328	60	10	60-180	60	71	GapExp	0	93	4	6	0	distractor	1	520	13.328	13.324	13.331
ProbeTrack7	11	ProbeTrack	1406	SCS215f	733716.421050	733716.428185	8	0.013328	60	10	60-180	60	119	GapExp	0	94	4	6	0	distractor	1	414	13.328	13.323	13.332
ProbeTrack7	11	ProbeTrack	1406	SCS215f	733716.421050	733716.428252	8	0.013328	60	10	60-180	60	92	GapExp	0	95	4	0	1	target	1	787	13.328	13.323	13.331
ProbeTrack7	11	ProbeTrack	1406	SCS215f	733716.421050	733716.428319	8	0.013328	60	10	60-180	60	109	GapExp	0	96	4	3	1	distractor	0	747	13.328	13.322	13.333
ProbeTrack7	11	ProbeTrack	1406	SCS215f	733716.421050	733716.428387	8	0.013328	60	10	60-180	60	150	GapExp	0	97	4	6	0	target	0	480	13.328	13.325	13.331
ProbeTrack7	11	ProbeTrack	1406	SCS215f	733716.421050	733716.428458	8	0.013328	60	10	60-180	60	104	GapExp	0	98	4	96	0	distractor	1	653	13.328	13.322	13.333
ProbeTrack7	11	ProbeTrack	1406	SCS215f	733716.421050	733716.428539	8	0.013328	60	10	60-180	60	78	GapExp	0	99	4	3	0	distractor	1	653	13.328	13.315	13.342
ProbeTrack7	11	ProbeTrack	1406	SCS215f	733716.421050	733716.428603	8	0.013328	60	10	60-180	60	166	GapExp	0	100	4	6	1	target	1	480	13.328	13.323	13.334
ProbeTrack7	11	ProbeTrack	1406	SCS215f	733716.421050	733716.428681	8	0.013328	60	10	60-180	60	151	GapExp	0	101	4	0	0	distractor	1	760	13.328	13.322	13.334
ProbeTrack7	11	ProbeTrack	1406	SCS215f	733716.421050	733716.428756	8	0.013328	60	10	60-180	60	133	GapExp	0	102	4	0	1	target	1	533	13.328	13.323	13.331
ProbeTrack7	11	ProbeTrack	1406	SCS215f	733716.421050	733716.428824	8	0.013328	60	10	60-180	60	133	GapExp	0	103	4	0	1	target	1	414	13.328	13.323	13.332
ProbeTrack7	11	ProbeTrack	1406	SCS215f	733716.421050	733716.428891	8	0.013328	60	10	60-180	60	131	GapExp	0	104	4	96	0	target	0	320	13.328	13.322	13.334
ProbeTrack7	11	ProbeTrack	1406	SCS215f	733716.421050	733716.428973	8	0.013328	60	10	60-180	60	143	GapExp	0	105	4	96	0	distractor	1	520	13.328	13.323	13.333
ProbeTrack7	11	ProbeTrack	1406	SCS215f	733716.421050	733716.429059	8	0.013328	60	10	60-180	60	171	GapExp	0	106	4	0	0	distractor	1	667	13.328	13.322	13.334
ProbeTrack7	11	ProbeTrack	1406	SCS215f	733716.421050	733716.429136	8	0.013328	60	10	60-180	60	122	GapExp	0	107	4	3	1	target	1	560	13.328	13.320	13.335
ProbeTrack7	11	ProbeTrack	1406	SCS215f	733716.421050	733716.429205	8	0.013328	60	10	60-180	60	157	GapExp	0	108	4	3	1	target	1	520	13.328	13.323	13.334
ProbeTrack7	11	ProbeTrack	1406	SCS215f	733716.421050	733716.429278	8	0.013328	60	10	60-180	60	88	GapExp	0	109	4	96	1	target	1	454	13.328	13.323	13.332
ProbeTrack7	11	ProbeTrack	1406	SCS215f	733716.421050	733716.429355	8	0.013328	60	10	60-180	60	96	GapExp	0	110	4	3	1	target	1	467	13.328	13.323	13.333
ProbeTrack7	11	ProbeTrack	1406	SCS215f	733716.421050	733716.429418	8	0.013328	60	10	60-180	60	89	GapExp	0	111	4	6	1	target	1	414	13.328	13.322	13.332
ProbeTrack7	11	ProbeTrack	1406	SCS215f	733716.421050	733716.429480	8	0.013328	60	10	60-180	60	84	GapExp	0	112	4	0	0	distractor	1	680	13.328	13.318	13.337
ProbeTrack7	11	ProbeTrack	1406	SCS215f	733716.421050	733716.429543	8	0.013328	60	10	60-180	60	146	GapExp	0	113	4	96	0	target	0	374	13.328	13.311	13.343
ProbeTrack7	11	ProbeTrack	1406	SCS215f	733716.421050	733716.429629	8	0.013328	60	10	60-180	60	160	GapExp	0	114	4	3	0	distractor	1	493	13.328	13.323	13.332
ProbeTrack7	11	ProbeTrack	1406	SCS215f	733716.421050	733716.429702	8	0.013328	60	10	60-180	60	123	GapExp	0	115	4	0	1	target	1	573	13.328	13.322	13.334
ProbeTrack7	11	ProbeTrack	1406	SCS215f	733716.421050	733716.429769	8	0.013328	60	10	60-180	60	178	GapExp	0	116	4	0	1	distractor	0	533	13.328	13.325	13.331
ProbeTrack7	11	ProbeTrack	1406	SCS215f	733716.421050	733716.429847	8	0.013328	60	10	60-180	60	87	GapExp	0	117	4	0	0	target	0	880	13.328	13.322	13.333
ProbeTrack7	11	ProbeTrack	1406	SCS215f	733716.421050	733716.429913	8	0.013328	60	10	60-180	60	144	GapExp	0	118	4	6	1	target	1	467	13.328	13.320	13.335
ProbeTrack7	11	ProbeTrack	1406	SCS215f	733716.421050	733716.429984	8	0.013328	60	10	60-180	60	61	GapExp	0	119	4	6	1	distractor	0	733	13.328	13.322	13.335
ProbeTrack7	11	ProbeTrack	1406	SCS215f	733716.421050	733716.430045	8	0.013328	60	10	60-180	60	85	GapExp	0	120	4	6	0	distractor	1	480	13.328	13.323	13.333
ProbeTrack7	11	ProbeTrack	1406	SCS215f	733716.421050	733716.430108	8	0.013328	60	10	60-180	60	66	GapExp	0	121	4	96	0	distractor	1	640	13.328	13.318	13.338
ProbeTrack7	11	ProbeTrack	1406	SCS215f	733716.421050	733716.430182	8	0.013328	60	10	60-180	60	155	GapExp	0	122	4	96	0	distractor	1	613	13.328	13.322	13.333
ProbeTrack7	11	ProbeTrack	1406	SCS215f	733716.421050	733716.430271	8	0.013328	60	10	60-180	60	177	GapExp	0	123	4	3	1	target	1	507	13.328	13.323	13.332
ProbeTrack7	11	ProbeTrack	1406	SCS215f	733716.421050	733716.430346	8	0.013328	60	10	60-180	60	108	GapExp	0	124	4	96	0	distractor	1	640	13.328	13.325	13.331
ProbeTrack7	11	ProbeTrack	1406	SCS215f	733716.421050	733716.430429	8	0.013328	60	10	60-180	60	178	GapExp	0	125	4	96	1	target	1	507	13.328	13.324	13.333
