exp	sub	code	rev	comp	runtime	trialtime	nstim	refreshdur	cuedur	gapdur	gapOnsetRange	durPostProbe	gapOnsetTime	blocktype	prac	trial	ntargets	soa	probeTarget	resp	acc	rt	meanFrameDur	minFrameDur	maxFrameDur
ProbeTrack7	8	ProbeTrack	1406	SCS215b	733716.341697	733716.342413	8	0.013328	60	0	60-180	60	177	NoGap	1	1	4	96	1	target	1	1160	13.328	13.292	13.364
ProbeTrack7	8	ProbeTrack	1406	SCS215b	733716.341697	733716.342566	8	0.013328	60	0	60-180	60	123	NoGap	1	2	4	6	0	target	0	1066	13.328	13.293	13.367
ProbeTrack7	8	ProbeTrack	1406	SCS215b	733716.341697	733716.342750	8	0.013328	60	0	60-180	60	86	NoGap	1	3	4	0	1	distractor	0	733	13.328	13.293	13.363
ProbeTrack7	8	ProbeTrack	1406	SCS215b	733716.341697	733716.342835	8	0.013328	60	0	60-180	60	109	NoGap	1	4	4	3	0	target	0	613	13.328	13.293	13.363
ProbeTrack7	8	ProbeTrack	1406	SCS215b	733716.341697	733716.342921	8	0.013328	60	0	60-180	60	123	NoGap	1	5	4	3	1	target	1	627	13.328	13.293	13.363
ProbeTrack7	8	ProbeTrack	1406	SCS215b	733716.341697	733716.343195	8	0.013328	60	0	60-180	60	83	NoGap	1	6	4	0	0	distractor	1	707	13.328	13.293	13.363
ProbeTrack7	8	ProbeTrack	1406	SCS215b	733716.341697	733716.343275	8	0.013328	60	0	60-180	60	158	NoGap	1	7	4	6	1	target	1	547	13.328	13.293	13.363
ProbeTrack7	8	ProbeTrack	1406	SCS215b	733716.341697	733716.343359	8	0.013328	60	0	60-180	60	169	NoGap	1	8	4	3	0	target	0	440	13.328	13.293	13.363
ProbeTrack7	8	ProbeTrack	1406	SCS215b	733716.341697	733716.343444	8	0.013328	60	0	60-180	60	165	NoGap	1	9	4	6	1	distractor	0	613	13.328	13.293	13.363
ProbeTrack7	8	ProbeTrack	1406	SCS215b	733716.341697	733716.343527	8	0.013328	60	0	60-180	60	69	NoGap	1	10	4	96	0	target	0	747	13.328	13.293	13.363
ProbeTrack7	8	ProbeTrack	1406	SCS215b	733716.341697	733716.343611	8	0.013328	60	0	60-180	60	114	NoGap	1	11	4	3	1	distractor	0	747	13.328	13.290	13.363
ProbeTrack7	8	ProbeTrack	1406	SCS215b	733716.341697	733716.343689	8	0.013328	60	0	60-180	60	113	NoGap	1	12	4	0	1	target	1	427	13.328	13.293	13.363
ProbeTrack7	8	ProbeTrack	1406	SCS215b	733716.341697	733716.343760	8	0.013328	60	0	60-180	60	85	NoGap	1	13	4	0	0	distractor	1	667	13.328	13.293	13.363
ProbeTrack7	8	ProbeTrack	1406	SCS215b	733716.341697	733716.343826	8	0.013328	60	0	60-180	60	149	NoGap	1	14	4	6	1	target	1	387	13.328	13.293	13.363
ProbeTrack7	8	ProbeTrack	1406	SCS215b	733716.341697	733716.343906	8	0.013328	60	0	60-180	60	73	NoGap	1	15	4	3	0	32	-3	773	13.328	13.291	13.366
ProbeTrack7	8	ProbeTrack	1406	SCS215b	733716.341697	733716.343972	8	0.013328	60	0	60-180	60	65	NoGap	1	16	4	96	1	target	1	387	13.328	13.293	13.363
ProbeTrack7	8	ProbeTrack	1406	SCS215b	733716.341697	733716.344048	8	0.013328	60	0	60-180	60	149	NoGap	1	17	4	3	0	distractor	1	827	13.328	13.291	13.365
ProbeTrack7	8	ProbeTrack	1406	SCS215b	733716.341697	733716.344128	8	0.013328	60	0	60-180	60	118	NoGap	1	18	4	0	0	distractor	1	720	13.328	13.293	13.363
ProbeTrack7	8	ProbeTrack	1406	SCS215b	733716.341697	733716.344197	8	0.013328	60	0	60-180	60	148	NoGap	1	19	4	3	1	target	1	467	13.328	13.293	13.363
ProbeTrack7	8	ProbeTrack	1406	SCS215b	733716.341697	733716.344272	8	0.013328	60	0	60-180	60	129	NoGap	1	20	4	96	0	distractor	1	573	13.328	13.293	13.366
ProbeTrack7	8	ProbeTrack	1406	SCS215b	733716.341697	733716.344357	8	0.013328	60	0	60-180	60	137	NoGap	1	21	4	96	1	target	1	600	13.328	13.293	13.363
ProbeTrack7	8	ProbeTrack	1406	SCS215b	733716.341697	733716.344447	8	0.013328	60	0	60-180	60	147	NoGap	1	22	4	6	1	target	1	387	13.328	13.293	13.363
ProbeTrack7	8	ProbeTrack	1406	SCS215b	733716.341697	733716.344521	8	0.013328	60	0	60-180	60	93	NoGap	1	23	4	6	1	target	1	653	13.328	13.292	13.363
ProbeTrack7	8	ProbeTrack	1406	SCS215b	733716.341697	733716.344589	8	0.013328	60	0	60-180	60	113	NoGap	1	24	4	0	1	target	1	560	13.328	13.293	13.363
ProbeTrack7	8	ProbeTrack	1406	SCS215b	733716.341697	733716.344657	8	0.013328	60	0	60-180	60	88	NoGap	1	25	4	96	1	target	1	520	13.328	13.293	13.364
ProbeTrack7	8	ProbeTrack	1406	SCS215b	733716.341697	733716.344734	8	0.013328	60	0	60-180	60	93	NoGap	1	26	4	0	1	distractor	0	693	13.328	13.293	13.363
ProbeTrack7	8	ProbeTrack	1406	SCS215b	733716.341697	733716.344826	8	0.013328	60	0	60-180	60	125	NoGap	1	27	4	0	1	target	1	453	13.328	13.293	13.363
ProbeTrack7	8	ProbeTrack	1406	SCS215b	733716.341697	733716.344897	8	0.013328	60	0	60-180	60	166	NoGap	1	28	4	6	0	distractor	1	587	13.328	13.292	13.363
ProbeTrack7	8	ProbeTrack	1406	SCS215b	733716.341697	733716.344980	8	0.013328	60	0	60-180	60	89	NoGap	1	29	4	6	0	target	0	573	13.328	13.293	13.363
ProbeTrack7	8	ProbeTrack	1406	SCS215b	733716.341697	733716.345046	8	0.013328	60	0	60-180	60	61	NoGap	1	30	4	0	0	distractor	1	693	13.328	13.293	13.363
ProbeTrack7	8	ProbeTrack	1406	SCS215b	733716.341697	733716.345113	8	0.013328	60	0	60-180	60	70	NoGap	1	31	4	3	0	distractor	1	760	13.328	13.293	13.363
ProbeTrack7	8	ProbeTrack	1406	SCS215b	733716.341697	733716.345178	8	0.013328	60	0	60-180	60	124	NoGap	1	32	4	6	1	target	1	560	13.328	13.293	13.363
ProbeTrack7	8	ProbeTrack	1406	SCS215b	733716.341697	733716.345253	8	0.013328	60	0	60-180	60	136	NoGap	1	33	4	0	0	distractor	1	613	13.328	13.293	13.363
ProbeTrack7	8	ProbeTrack	1406	SCS215b	733716.341697	733716.345325	8	0.013328	60	0	60-180	60	82	NoGap	1	34	4	96	1	target	1	653	13.328	13.293	13.363
ProbeTrack7	8	ProbeTrack	1406	SCS215b	733716.341697	733716.345405	8	0.013328	60	0	60-180	60	168	NoGap	1	35	4	3	0	distractor	1	760	13.328	13.293	13.363
ProbeTrack7	8	ProbeTrack	1406	SCS215b	733716.341697	733716.345486	8	0.013328	60	0	60-180	60	103	NoGap	1	36	4	3	1	target	1	480	13.328	13.292	13.363
ProbeTrack7	8	ProbeTrack	1406	SCS215b	733716.341697	733716.345552	8	0.013328	60	0	60-180	60	61	NoGap	1	37	4	3	0	distractor	1	613	13.328	13.291	13.363
ProbeTrack7	8	ProbeTrack	1406	SCS215b	733716.341697	733716.345613	8	0.013328	60	0	60-180	60	109	NoGap	1	38	4	0	1	distractor	0	613	13.328	13.293	13.363
ProbeTrack7	8	ProbeTrack	1406	SCS215b	733716.341697	733716.345685	8	0.013328	60	0	60-180	60	61	NoGap	1	39	4	3	1	target	1	587	13.328	13.293	13.363
ProbeTrack7	8	ProbeTrack	1406	SCS215b	733716.341697	733716.345747	8	0.013328	60	0	60-180	60	150	NoGap	1	40	4	96	0	distractor	1	640	13.328	13.292	13.363
ProbeTrack7	8	ProbeTrack	1406	SCS215b	733716.341697	733716.345835	8	0.013328	60	0	60-180	60	178	NoGap	1	41	4	0	0	distractor	1	667	13.328	13.290	13.365
ProbeTrack7	8	ProbeTrack	1406	SCS215b	733716.341697	733716.345915	8	0.013328	60	0	60-180	60	124	NoGap	1	42	4	6	0	distractor	1	587	13.328	13.105	13.551
ProbeTrack7	8	ProbeTrack	1406	SCS215b	733716.341697	733716.345986	8	0.013328	60	0	60-180	60	81	NoGap	1	43	4	96	1	target	1	493	13.328	13.293	13.363
ProbeTrack7	8	ProbeTrack	1406	SCS215b	733716.341697	733716.346061	8	0.013328	60	0	60-180	60	160	NoGap	1	44	4	3	1	distractor	0	1013	13.328	13.293	13.364
ProbeTrack7	8	ProbeTrack	1406	SCS215b	733716.341697	733716.346140	8	0.013328	60	0	60-180	60	88	NoGap	1	45	4	6	1	target	1	480	13.328	13.293	13.363
ProbeTrack7	8	ProbeTrack	1406	SCS215b	733716.341697	733716.346209	8	0.013328	60	0	60-180	60	65	NoGap	1	46	4	6	0	distractor	1	667	13.328	13.293	13.363
ProbeTrack7	8	ProbeTrack	1406	SCS215b	733716.341697	733716.346270	8	0.013328	60	0	60-180	60	82	NoGap	1	47	4	96	0	target	0	640	13.328	13.293	13.364
ProbeTrack7	8	ProbeTrack	1406	SCS215b	733716.341697	733716.346345	8	0.013328	60	0	60-180	60	94	NoGap	1	48	4	96	0	distractor	1	587	13.328	13.293	13.363
ProbeTrack7	8	ProbeTrack	1406	SCS215b	733716.341697	733716.346444	8	0.013328	60	0	60-180	60	125	NoGap	1	49	4	6	0	target	0	720	13.328	13.293	13.363
ProbeTrack7	8	ProbeTrack	1406	SCS215b	733716.341697	733716.346518	8	0.013328	60	0	60-180	60	78	NoGap	1	50	4	96	0	distractor	1	653	13.328	13.293	13.363
ProbeTrack7	8	ProbeTrack	1406	SCS215b	733716.348184	733716.348292	8	0.013328	60	10	60-180	60	70	GapPrac	1	1	4	96	0	distractor	1	773	13.328	13.293	13.363
ProbeTrack7	8	ProbeTrack	1406	SCS215b	733716.348184	733716.348389	8	0.013328	60	10	60-180	60	155	GapPrac	1	2	4	96	1	target	1	800	13.328	13.293	13.363
ProbeTrack7	8	ProbeTrack	1406	SCS215b	733716.348184	733716.348518	8	0.013328	60	10	60-180	60	111	GapPrac	1	3	4	6	1	target	1	747	13.328	13.293	13.363
ProbeTrack7	8	ProbeTrack	1406	SCS215b	733716.348184	733716.348593	8	0.013328	60	10	60-180	60	132	GapPrac	1	4	4	0	0	target	0	707	13.328	13.293	13.363
ProbeTrack7	8	ProbeTrack	1406	SCS215b	733716.348184	733716.348671	8	0.013328	60	10	60-180	60	68	GapPrac	1	5	4	6	1	target	1	520	13.328	13.293	13.363
ProbeTrack7	8	ProbeTrack	1406	SCS215b	733716.348184	733716.348735	8	0.013328	60	10	60-180	60	152	GapPrac	1	6	4	3	0	target	0	720	13.328	13.290	13.363
ProbeTrack7	8	ProbeTrack	1406	SCS215b	733716.348184	733716.348826	8	0.013328	60	10	60-180	60	82	GapPrac	1	7	4	3	1	target	1	653	13.328	13.292	13.363
ProbeTrack7	8	ProbeTrack	1406	SCS215b	733716.348184	733716.348895	8	0.013328	60	10	60-180	60	96	GapPrac	1	8	4	0	1	target	1	840	13.328	13.293	13.363
ProbeTrack7	8	ProbeTrack	1406	SCS215b	733716.348184	733716.348963	8	0.013328	60	10	60-180	60	160	GapPrac	1	9	4	96	0	distractor	1	800	13.328	13.293	13.363
ProbeTrack7	8	ProbeTrack	1406	SCS215b	733716.348184	733716.349057	8	0.013328	60	10	60-180	60	161	GapPrac	1	10	4	96	1	target	1	827	13.328	13.293	13.363
ProbeTrack7	8	ProbeTrack	1406	SCS215b	733716.348184	733716.349153	8	0.013328	60	10	60-180	60	110	GapPrac	1	11	4	0	0	target	0	853	13.328	13.293	13.363
ProbeTrack7	8	ProbeTrack	1406	SCS215b	733716.348184	733716.349227	8	0.013328	60	10	60-180	60	164	GapPrac	1	12	4	3	1	target	1	640	13.328	13.293	13.363
ProbeTrack7	8	ProbeTrack	1406	SCS215b	733716.348184	733716.349311	8	0.013328	60	10	60-180	60	158	GapPrac	1	13	4	3	0	distractor	1	960	13.328	13.293	13.363
ProbeTrack7	8	ProbeTrack	1406	SCS215b	733716.348184	733716.349397	8	0.013328	60	10	60-180	60	136	GapPrac	1	14	4	96	0	target	0	787	13.328	13.293	13.363
ProbeTrack7	8	ProbeTrack	1406	SCS215b	733716.348184	733716.349491	8	0.013328	60	10	60-180	60	97	GapPrac	1	15	4	6	1	target	1	693	13.328	13.293	13.364
ProbeTrack7	8	ProbeTrack	1406	SCS215b	733716.348184	733716.349560	8	0.013328	60	10	60-180	60	175	GapPrac	1	16	4	0	0	target	0	813	13.328	13.293	13.363
ProbeTrack7	8	ProbeTrack	1406	SCS215b	733716.348184	733716.349645	8	0.013328	60	10	60-180	60	108	GapPrac	1	17	4	0	1	target	1	667	13.328	13.293	13.363
ProbeTrack7	8	ProbeTrack	1406	SCS215b	733716.348184	733716.349713	8	0.013328	60	10	60-180	60	128	GapPrac	1	18	4	96	1	distractor	0	720	13.328	13.293	13.363
ProbeTrack7	8	ProbeTrack	1406	SCS215b	733716.348184	733716.349801	8	0.013328	60	10	60-180	60	99	GapPrac	1	19	4	6	0	distractor	1	867	13.328	13.293	13.363
ProbeTrack7	8	ProbeTrack	1406	SCS215b	733716.348184	733716.349871	8	0.013328	60	10	60-180	60	124	GapPrac	1	20	4	6	0	target	0	667	13.328	13.293	13.363
ProbeTrack7	8	ProbeTrack	1406	SCS215b	733716.350662	733716.350742	8	0.013321	60	10	60-180	60	133	GapPrac	1	1	4	0	0	distractor	1	773	13.328	13.290	13.366
ProbeTrack7	8	ProbeTrack	1406	SCS215b	733716.350662	733716.350825	8	0.013321	60	10	60-180	60	166	GapPrac	1	2	4	3	0	distractor	1	520	13.328	13.293	13.363
ProbeTrack7	8	ProbeTrack	1406	SCS215b	733716.350662	733716.350911	8	0.013321	60	10	60-180	60	89	GapPrac	1	3	4	96	1	target	1	933	13.328	13.293	13.363
ProbeTrack7	8	ProbeTrack	1406	SCS215b	733716.350662	733716.350998	8	0.013321	60	10	60-180	60	118	GapPrac	1	4	4	0	1	distractor	0	747	13.328	13.293	13.363
ProbeTrack7	8	ProbeTrack	1406	SCS215b	733716.350662	733716.351073	8	0.013321	60	10	60-180	60	75	GapPrac	1	5	4	96	0	distractor	1	720	13.328	13.289	13.367
ProbeTrack7	8	ProbeTrack	1406	SCS215b	733716.350662	733716.351153	8	0.013321	60	10	60-180	60	175	GapPrac	1	6	4	0	1	distractor	0	853	13.328	13.293	13.363
ProbeTrack7	8	ProbeTrack	1406	SCS215b	733716.350662	733716.351235	8	0.013321	60	10	60-180	60	105	GapPrac	1	7	4	6	0	distractor	1	667	13.328	13.289	13.363
ProbeTrack7	8	ProbeTrack	1406	SCS215b	733716.350662	733716.351305	8	0.013321	60	10	60-180	60	118	GapPrac	1	8	4	96	0	distractor	1	1040	13.328	13.293	13.364
ProbeTrack7	8	ProbeTrack	1406	SCS215b	733716.350662	733716.351393	8	0.013321	60	10	60-180	60	130	GapPrac	1	9	4	0	0	distractor	1	680	13.328	13.293	13.364
ProbeTrack7	8	ProbeTrack	1406	SCS215b	733716.350662	733716.351469	8	0.013321	60	10	60-180	60	91	GapPrac	1	10	4	96	1	target	1	653	13.328	13.293	13.363
ProbeTrack7	8	ProbeTrack	1406	SCS215b	733716.350662	733716.351554	8	0.013321	60	10	60-180	60	146	GapPrac	1	11	4	3	0	distractor	1	547	13.328	13.293	13.363
ProbeTrack7	8	ProbeTrack	1406	SCS215b	733716.350662	733716.351634	8	0.013321	60	10	60-180	60	69	GapPrac	1	12	4	96	1	distractor	0	680	13.328	13.290	13.363
ProbeTrack7	8	ProbeTrack	1406	SCS215b	733716.350662	733716.351711	8	0.013321	60	10	60-180	60	141	GapPrac	1	13	4	0	1	target	1	560	13.328	13.293	13.363
ProbeTrack7	8	ProbeTrack	1406	SCS215b	733716.350662	733716.351787	8	0.013321	60	10	60-180	60	169	GapPrac	1	14	4	6	0	distractor	1	507	13.328	13.293	13.364
ProbeTrack7	8	ProbeTrack	1406	SCS215b	733716.350662	733716.351870	8	0.013321	60	10	60-180	60	134	GapPrac	1	15	4	6	1	target	1	587	13.328	13.293	13.363
ProbeTrack7	8	ProbeTrack	1406	SCS215b	733716.350662	733716.351945	8	0.013321	60	10	60-180	60	150	GapPrac	1	16	4	3	1	distractor	0	467	13.328	13.293	13.363
ProbeTrack7	8	ProbeTrack	1406	SCS215b	733716.350662	733716.352017	8	0.013321	60	10	60-180	60	102	GapPrac	1	17	4	0	0	distractor	1	773	13.328	13.293	13.363
ProbeTrack7	8	ProbeTrack	1406	SCS215b	733716.350662	733716.352089	8	0.013321	60	10	60-180	60	157	GapPrac	1	18	4	6	1	target	1	533	13.328	13.293	13.363
ProbeTrack7	8	ProbeTrack	1406	SCS215b	733716.350662	733716.352170	8	0.013321	60	10	60-180	60	171	GapPrac	1	19	4	3	0	target	0	507	13.328	13.293	13.363
ProbeTrack7	8	ProbeTrack	1406	SCS215b	733716.350662	733716.352250	8	0.013321	60	10	60-180	60	121	GapPrac	1	20	4	3	1	target	1	707	13.328	13.293	13.363
ProbeTrack7	8	ProbeTrack	1406	SCS215b	733716.353449	733716.353651	8	0.013327	60	10	60-180	60	71	GapExp	1	1	4	96	1	target	1	747	13.328	13.293	13.363
ProbeTrack7	8	ProbeTrack	1406	SCS215b	733716.353449	733716.353736	8	0.013327	60	10	60-180	60	135	GapExp	1	2	4	6	0	distractor	1	733	13.328	13.293	13.363
ProbeTrack7	8	ProbeTrack	1406	SCS215b	733716.353449	733716.353810	8	0.013327	60	10	60-180	60	69	GapExp	1	3	4	96	0	distractor	1	653	13.328	13.293	13.363
ProbeTrack7	8	ProbeTrack	1406	SCS215b	733716.353449	733716.353889	8	0.013327	60	10	60-180	60	148	GapExp	1	4	4	0	0	distractor	1	693	13.328	13.292	13.364
ProbeTrack7	8	ProbeTrack	1406	SCS215b	733716.353449	733716.353965	8	0.013327	60	10	60-180	60	94	GapExp	1	5	4	3	0	distractor	1	640	13.328	13.291	13.363
ProbeTrack7	8	ProbeTrack	1406	SCS215b	733716.353449	733716.354034	8	0.013327	60	10	60-180	60	103	GapExp	0	6	4	3	0	distractor	1	667	13.328	13.292	13.363
ProbeTrack7	8	ProbeTrack	1406	SCS215b	733716.353449	733716.354103	8	0.013327	60	10	60-180	60	123	GapExp	0	7	4	0	1	target	1	587	13.328	13.293	13.363
ProbeTrack7	8	ProbeTrack	1406	SCS215b	733716.353449	733716.354178	8	0.013327	60	10	60-180	60	92	GapExp	0	8	4	96	0	distractor	1	773	13.328	13.293	13.367
ProbeTrack7	8	ProbeTrack	1406	SCS215b	733716.353449	733716.354263	8	0.013327	60	10	60-180	60	165	GapExp	0	9	4	96	1	target	1	867	13.328	13.290	13.366
ProbeTrack7	8	ProbeTrack	1406	SCS215b	733716.353449	733716.354360	8	0.013327	60	10	60-180	60	162	GapExp	0	10	4	0	1	distractor	0	707	13.328	13.292	13.363
ProbeTrack7	8	ProbeTrack	1406	SCS215b	733716.353449	733716.354443	8	0.013327	60	10	60-180	60	170	GapExp	0	11	4	6	0	target	0	587	13.328	13.293	13.368
ProbeTrack7	8	ProbeTrack	1406	SCS215b	733716.353449	733716.354521	8	0.013327	60	10	60-180	60	87	GapExp	0	12	4	0	0	distractor	1	733	13.328	13.293	13.363
ProbeTrack7	8	ProbeTrack	1406	SCS215b	733716.353449	733716.354588	8	0.013327	60	10	60-180	60	167	GapExp	0	13	4	6	1	target	1	560	13.328	13.293	13.363
ProbeTrack7	8	ProbeTrack	1406	SCS215b	733716.353449	733716.354666	8	0.013327	60	10	60-180	60	168	GapExp	0	14	4	96	1	target	1	667	13.328	13.293	13.363
ProbeTrack7	8	ProbeTrack	1406	SCS215b	733716.353449	733716.354758	8	0.013327	60	10	60-180	60	84	GapExp	0	15	4	0	1	target	1	773	13.328	13.293	13.363
ProbeTrack7	8	ProbeTrack	1406	SCS215b	733716.353449	733716.354824	8	0.013327	60	10	60-180	60	155	GapExp	0	16	4	3	0	target	0	573	13.328	13.293	13.364
ProbeTrack7	8	ProbeTrack	1406	SCS215b	733716.353449	733716.354901	8	0.013327	60	10	60-180	60	128	GapExp	0	17	4	0	1	target	1	720	13.328	13.293	13.364
ProbeTrack7	8	ProbeTrack	1406	SCS215b	733716.353449	733716.354973	8	0.013327	60	10	60-180	60	75	GapExp	0	18	4	0	0	distractor	1	627	13.328	13.293	13.363
ProbeTrack7	8	ProbeTrack	1406	SCS215b	733716.353449	733716.355035	8	0.013327	60	10	60-180	60	100	GapExp	0	19	4	6	1	target	1	414	13.328	13.293	13.363
ProbeTrack7	8	ProbeTrack	1406	SCS215b	733716.353449	733716.355100	8	0.013327	60	10	60-180	60	139	GapExp	0	20	4	0	0	distractor	1	694	13.328	13.290	13.366
ProbeTrack7	8	ProbeTrack	1406	SCS215b	733716.353449	733716.355173	8	0.013327	60	10	60-180	60	103	GapExp	0	21	4	6	1	target	1	867	13.328	13.293	13.363
ProbeTrack7	8	ProbeTrack	1406	SCS215b	733716.353449	733716.355259	8	0.013327	60	10	60-180	60	155	GapExp	0	22	4	0	1	distractor	0	667	13.328	13.292	13.363
ProbeTrack7	8	ProbeTrack	1406	SCS215b	733716.353449	733716.355337	8	0.013327	60	10	60-180	60	136	GapExp	0	23	4	3	0	distractor	1	587	13.328	13.293	13.363
ProbeTrack7	8	ProbeTrack	1406	SCS215b	733716.353449	733716.355410	8	0.013327	60	10	60-180	60	166	GapExp	0	24	4	0	0	distractor	1	627	13.328	13.293	13.363
ProbeTrack7	8	ProbeTrack	1406	SCS215b	733716.353449	733716.355488	8	0.013327	60	10	60-180	60	102	GapExp	0	25	4	3	1	target	1	560	13.328	13.293	13.363
ProbeTrack7	8	ProbeTrack	1406	SCS215b	733716.353449	733716.355563	8	0.013327	60	10	60-180	60	157	GapExp	0	26	4	6	1	target	1	507	13.328	13.292	13.363
ProbeTrack7	8	ProbeTrack	1406	SCS215b	733716.353449	733716.355639	8	0.013327	60	10	60-180	60	134	GapExp	0	27	4	6	0	distractor	1	494	13.328	13.292	13.364
ProbeTrack7	8	ProbeTrack	1406	SCS215b	733716.353449	733716.355719	8	0.013327	60	10	60-180	60	178	GapExp	0	28	4	6	1	target	1	627	13.328	13.293	13.364
ProbeTrack7	8	ProbeTrack	1406	SCS215b	733716.353449	733716.355808	8	0.013327	60	10	60-180	60	91	GapExp	0	29	4	6	0	target	0	587	13.328	13.293	13.363
ProbeTrack7	8	ProbeTrack	1406	SCS215b	733716.353449	733716.355872	8	0.013327	60	10	60-180	60	126	GapExp	0	30	4	96	0	target	0	760	13.328	13.293	13.363
ProbeTrack7	8	ProbeTrack	1406	SCS215b	733716.353449	733716.355963	8	0.013327	60	10	60-180	60	168	GapExp	0	31	4	3	0	target	0	720	13.328	13.293	13.363
ProbeTrack7	8	ProbeTrack	1406	SCS215b	733716.353449	733716.356041	8	0.013327	60	10	60-180	60	163	GapExp	0	32	4	96	0	target	0	867	13.328	13.287	13.364
ProbeTrack7	8	ProbeTrack	1406	SCS215b	733716.353449	733716.356134	8	0.013327	60	10	60-180	60	73	GapExp	0	33	4	6	0	target	0	1026	13.328	13.293	13.363
ProbeTrack7	8	ProbeTrack	1406	SCS215b	733716.353449	733716.356202	8	0.013327	60	10	60-180	60	106	GapExp	0	34	4	3	0	distractor	1	653	13.328	13.293	13.363
ProbeTrack7	8	ProbeTrack	1406	SCS215b	733716.353449	733716.356271	8	0.013327	60	10	60-180	60	162	GapExp	0	35	4	0	1	target	1	747	13.328	13.293	13.363
ProbeTrack7	8	ProbeTrack	1406	SCS215b	733716.353449	733716.356347	8	0.013327	60	10	60-180	60	99	GapExp	0	36	4	0	0	distractor	1	773	13.328	13.293	13.363
ProbeTrack7	8	ProbeTrack	1406	SCS215b	733716.353449	733716.356418	8	0.013327	60	10	60-180	60	173	GapExp	0	37	4	0	1	target	1	547	13.328	13.289	13.367
ProbeTrack7	8	ProbeTrack	1406	SCS215b	733716.353449	733716.356500	8	0.013327	60	10	60-180	60	72	GapExp	0	38	4	96	0	distractor	1	627	13.328	13.293	13.363
ProbeTrack7	8	ProbeTrack	1406	SCS215b	733716.353449	733716.356579	8	0.013327	60	10	60-180	60	131	GapExp	0	39	4	3	1	target	1	547	13.328	13.293	13.363
ProbeTrack7	8	ProbeTrack	1406	SCS215b	733716.353449	733716.356651	8	0.013327	60	10	60-180	60	82	GapExp	0	40	4	96	1	target	1	573	13.328	13.293	13.364
ProbeTrack7	8	ProbeTrack	1406	SCS215b	733716.353449	733716.356731	8	0.013327	60	10	60-180	60	136	GapExp	0	41	4	96	0	target	0	627	13.328	13.293	13.363
ProbeTrack7	8	ProbeTrack	1406	SCS215b	733716.353449	733716.356849	8	0.013327	60	10	60-180	60	114	GapExp	0	42	4	3	0	distractor	1	653	13.328	13.293	13.363
ProbeTrack7	8	ProbeTrack	1406	SCS215b	733716.353449	733716.356919	8	0.013327	60	10	60-180	60	117	GapExp	0	43	4	6	1	target	1	573	13.328	13.293	13.363
ProbeTrack7	8	ProbeTrack	1406	SCS215b	733716.353449	733716.356987	8	0.013327	60	10	60-180	60	109	GapExp	0	44	4	0	0	target	0	573	13.328	13.292	13.363
ProbeTrack7	8	ProbeTrack	1406	SCS215b	733716.353449	733716.357054	8	0.013327	60	10	60-180	60	158	GapExp	0	45	4	6	1	target	1	547	13.328	13.293	13.363
ProbeTrack7	8	ProbeTrack	1406	SCS215b	733716.353449	733716.357129	8	0.013327	60	10	60-180	60	180	GapExp	0	46	4	0	1	target	1	627	13.328	13.293	13.363
ProbeTrack7	8	ProbeTrack	1406	SCS215b	733716.353449	733716.357209	8	0.013327	60	10	60-180	60	82	GapExp	0	47	4	96	1	target	1	667	13.328	13.293	13.363
ProbeTrack7	8	ProbeTrack	1406	SCS215b	733716.353449	733716.357290	8	0.013327	60	10	60-180	60	88	GapExp	0	48	4	3	1	target	1	573	13.328	13.293	13.363
ProbeTrack7	8	ProbeTrack	1406	SCS215b	733716.353449	733716.357375	8	0.013327	60	10	60-180	60	115	GapExp	0	49	4	6	0	target	0	747	13.328	13.292	13.365
ProbeTrack7	8	ProbeTrack	1406	SCS215b	733716.353449	733716.357444	8	0.013327	60	10	60-180	60	147	GapExp	0	50	4	96	0	distractor	1	733	13.328	13.292	13.364
ProbeTrack7	8	ProbeTrack	1406	SCS215b	733716.353449	733716.357534	8	0.013327	60	10	60-180	60	71	GapExp	0	51	4	3	1	target	1	613	13.328	13.293	13.366
ProbeTrack7	8	ProbeTrack	1406	SCS215b	733716.353449	733716.357596	8	0.013327	60	10	60-180	60	114	GapExp	0	52	4	0	0	target	0	520	13.328	13.293	13.363
ProbeTrack7	8	ProbeTrack	1406	SCS215b	733716.353449	733716.357663	8	0.013327	60	10	60-180	60	158	GapExp	0	53	4	6	1	target	1	520	13.328	13.293	13.363
ProbeTrack7	8	ProbeTrack	1406	SCS215b	733716.353449	733716.357740	8	0.013327	60	10	60-180	60	64	GapExp	0	54	4	96	1	target	1	573	13.328	13.293	13.363
ProbeTrack7	8	ProbeTrack	1406	SCS215b	733716.353449	733716.357815	8	0.013327	60	10	60-180	60	108	GapExp	0	55	4	6	1	target	1	413	13.328	13.293	13.366
ProbeTrack7	8	ProbeTrack	1406	SCS215b	733716.353449	733716.357890	8	0.013327	60	10	60-180	60	76	GapExp	0	56	4	96	0	distractor	1	547	13.328	13.293	13.363
ProbeTrack7	8	ProbeTrack	1406	SCS215b	733716.353449	733716.357966	8	0.013327	60	10	60-180	60	113	GapExp	0	57	4	3	0	target	0	440	13.328	13.293	13.363
ProbeTrack7	8	ProbeTrack	1406	SCS215b	733716.353449	733716.358033	8	0.013327	60	10	60-180	60	160	GapExp	0	58	4	3	1	target	1	573	13.328	13.292	13.363
ProbeTrack7	8	ProbeTrack	1406	SCS215b	733716.353449	733716.358109	8	0.013327	60	10	60-180	60	111	GapExp	0	59	4	3	0	distractor	1	587	13.328	13.293	13.363
ProbeTrack7	8	ProbeTrack	1406	SCS215b	733716.353449	733716.358180	8	0.013327	60	10	60-180	60	95	GapExp	0	60	4	3	0	distractor	1	720	13.328	13.293	13.363
ProbeTrack7	8	ProbeTrack	1406	SCS215b	733716.353449	733716.358247	8	0.013327	60	10	60-180	60	121	GapExp	0	61	4	6	0	distractor	1	680	13.328	13.292	13.363
ProbeTrack7	8	ProbeTrack	1406	SCS215b	733716.353449	733716.358318	8	0.013327	60	10	60-180	60	94	GapExp	0	62	4	0	1	target	1	653	13.328	13.293	13.363
ProbeTrack7	8	ProbeTrack	1406	SCS215b	733716.353449	733716.358384	8	0.013327	60	10	60-180	60	158	GapExp	0	63	4	96	1	target	1	667	13.328	13.293	13.363
ProbeTrack7	8	ProbeTrack	1406	SCS215b	733716.353449	733716.358488	8	0.013327	60	10	60-180	60	132	GapExp	0	64	4	96	0	distractor	1	867	13.328	13.293	13.363
ProbeTrack7	8	ProbeTrack	1406	SCS215b	733716.353449	733716.358580	8	0.013327	60	10	60-180	60	97	GapExp	0	65	4	3	0	distractor	1	653	13.328	13.293	13.363
ProbeTrack7	8	ProbeTrack	1406	SCS215b	733716.353449	733716.358647	8	0.013327	60	10	60-180	60	118	GapExp	0	66	4	0	0	distractor	1	720	13.328	13.289	13.364
ProbeTrack7	8	ProbeTrack	1406	SCS215b	733716.353449	733716.358717	8	0.013327	60	10	60-180	60	108	GapExp	0	67	4	6	0	distractor	1	587	13.328	13.293	13.363
ProbeTrack7	8	ProbeTrack	1406	SCS215b	733716.353449	733716.358785	8	0.013327	60	10	60-180	60	157	GapExp	0	68	4	3	1	target	1	600	13.328	13.293	13.363
ProbeTrack7	8	ProbeTrack	1406	SCS215b	733716.353449	733716.358860	8	0.013327	60	10	60-180	60	176	GapExp	0	69	4	96	1	target	1	480	13.328	13.293	13.363
ProbeTrack7	8	ProbeTrack	1406	SCS215b	733716.353449	733716.358959	8	0.013327	60	10	60-180	60	110	GapExp	0	70	4	96	0	distractor	1	720	13.328	13.286	13.363
ProbeTrack7	8	ProbeTrack	1406	SCS215b	733716.353449	733716.359042	8	0.013327	60	10	60-180	60	135	GapExp	0	71	4	3	0	distractor	1	680	13.328	13.293	13.363
ProbeTrack7	8	ProbeTrack	1406	SCS215b	733716.353449	733716.359116	8	0.013327	60	10	60-180	60	141	GapExp	0	72	4	0	0	distractor	1	720	13.328	13.293	13.363
ProbeTrack7	8	ProbeTrack	1406	SCS215b	733716.353449	733716.359223	8	0.013327	60	10	60-180	60	100	GapExp	0	73	4	96	0	distractor	1	640	13.328	13.293	13.363
ProbeTrack7	8	ProbeTrack	1406	SCS215b	733716.353449	733716.359304	8	0.013327	60	10	60-180	60	94	GapExp	0	74	4	96	0	target	0	707	13.328	13.289	13.363
ProbeTrack7	8	ProbeTrack	1406	SCS215b	733716.353449	733716.359392	8	0.013327	60	10	60-180	60	135	GapExp	0	75	4	96	1	target	1	560	13.328	13.290	13.363
ProbeTrack7	8	ProbeTrack	1406	SCS215b	733716.353449	733716.359480	8	0.013327	60	10	60-180	60	162	GapExp	0	76	4	3	0	target	0	427	13.328	13.293	13.363
ProbeTrack7	8	ProbeTrack	1406	SCS215b	733716.353449	733716.359555	8	0.013327	60	10	60-180	60	180	GapExp	0	77	4	6	1	target	1	653	13.328	13.292	13.363
ProbeTrack7	8	ProbeTrack	1406	SCS215b	733716.353449	733716.359637	8	0.013327	60	10	60-180	60	97	GapExp	0	78	4	3	1	target	1	560	13.328	13.293	13.363
ProbeTrack7	8	ProbeTrack	1406	SCS215b	733716.353449	733716.359703	8	0.013327	60	10	60-180	60	97	GapExp	0	79	4	3	1	target	1	600	13.328	13.293	13.363
ProbeTrack7	8	ProbeTrack	1406	SCS215b	733716.353449	733716.359775	8	0.013327	60	10	60-180	60	147	GapExp	0	80	4	3	1	distractor	0	827	13.328	13.293	13.363
ProbeTrack7	8	ProbeTrack	1406	SCS215b	733716.353449	733716.359852	8	0.013327	60	10	60-180	60	112	GapExp	0	81	4	96	1	distractor	0	773	13.328	13.293	13.363
ProbeTrack7	8	ProbeTrack	1406	SCS215b	733716.353449	733716.359940	8	0.013327	60	10	60-180	60	94	GapExp	0	82	4	3	1	target	1	560	13.328	13.292	13.369
ProbeTrack7	8	ProbeTrack	1406	SCS215b	733716.353449	733716.360012	8	0.013327	60	10	60-180	60	146	GapExp	0	83	4	6	0	distractor	1	640	13.328	13.293	13.363
ProbeTrack7	8	ProbeTrack	1406	SCS215b	733716.353449	733716.360090	8	0.013327	60	10	60-180	60	155	GapExp	0	84	4	6	0	distractor	1	733	13.328	13.293	13.363
ProbeTrack7	8	ProbeTrack	1406	SCS215b	733716.353449	733716.360170	8	0.013327	60	10	60-180	60	163	GapExp	0	85	4	6	1	distractor	0	640	13.328	13.293	13.363
ProbeTrack7	8	ProbeTrack	1406	SCS215b	733716.353449	733716.360251	8	0.013327	60	10	60-180	60	112	GapExp	0	86	4	0	0	distractor	1	680	13.328	13.293	13.363
ProbeTrack7	8	ProbeTrack	1406	SCS215b	733716.353449	733716.360323	8	0.013327	60	10	60-180	60	91	GapExp	0	87	4	6	0	distractor	1	827	13.328	13.293	13.363
ProbeTrack7	8	ProbeTrack	1406	SCS215b	733716.353449	733716.360391	8	0.013327	60	10	60-180	60	164	GapExp	0	88	4	3	1	target	1	520	13.328	13.293	13.363
ProbeTrack7	8	ProbeTrack	1406	SCS215b	733716.353449	733716.360482	8	0.013327	60	10	60-180	60	157	GapExp	0	89	4	0	1	target	1	600	13.328	13.293	13.363
ProbeTrack7	8	ProbeTrack	1406	SCS215b	733716.353449	733716.360563	8	0.013327	60	10	60-180	60	89	GapExp	0	90	4	6	1	target	1	600	13.328	13.292	13.364
ProbeTrack7	8	ProbeTrack	1406	SCS215b	733716.353449	733716.360628	8	0.013327	60	10	60-180	60	130	GapExp	0	91	4	96	0	target	0	653	13.328	13.293	13.366
ProbeTrack7	8	ProbeTrack	1406	SCS215b	733716.353449	733716.360716	8	0.013327	60	10	60-180	60	90	GapExp	0	92	4	0	0	distractor	1	800	13.328	13.293	13.363
ProbeTrack7	8	ProbeTrack	1406	SCS215b	733716.353449	733716.360785	8	0.013327	60	10	60-180	60	162	GapExp	0	93	4	96	0	target	0	467	13.328	13.293	13.363
ProbeTrack7	8	ProbeTrack	1406	SCS215b	733716.353449	733716.360876	8	0.013327	60	10	60-180	60	78	GapExp	0	94	4	0	1	target	1	667	13.328	13.293	13.363
ProbeTrack7	8	ProbeTrack	1406	SCS215b	733716.353449	733716.360948	8	0.013327	60	10	60-180	60	148	GapExp	0	95	4	6	1	target	1	813	13.328	13.293	13.363
ProbeTrack7	8	ProbeTrack	1406	SCS215b	733716.353449	733716.361026	8	0.013327	60	10	60-180	60	130	GapExp	0	96	4	6	0	target	0	560	13.328	13.293	13.363
ProbeTrack7	8	ProbeTrack	1406	SCS215b	733716.353449	733716.361097	8	0.013327	60	10	60-180	60	139	GapExp	0	97	4	96	1	target	1	840	13.328	13.291	13.363
ProbeTrack7	8	ProbeTrack	1406	SCS215b	733716.353449	733716.361188	8	0.013327	60	10	60-180	60	108	GapExp	0	98	4	0	1	target	1	760	13.328	13.290	13.363
ProbeTrack7	8	ProbeTrack	1406	SCS215b	733716.353449	733716.361259	8	0.013327	60	10	60-180	60	129	GapExp	0	99	4	0	0	target	0	547	13.328	13.293	13.363
ProbeTrack7	8	ProbeTrack	1406	SCS215b	733716.353449	733716.361329	8	0.013327	60	10	60-180	60	167	GapExp	0	100	4	96	1	target	1	613	13.328	13.293	13.363
ProbeTrack7	8	ProbeTrack	1406	SCS215b	733716.353449	733716.361427	8	0.013327	60	10	60-180	60	91	GapExp	0	101	4	96	1	distractor	0	667	13.328	13.293	13.363
ProbeTrack7	8	ProbeTrack	1406	SCS215b	733716.353449	733716.361509	8	0.013327	60	10	60-180	60	151	GapExp	0	102	4	3	0	target	0	520	13.328	13.293	13.363
ProbeTrack7	8	ProbeTrack	1406	SCS215b	733716.353449	733716.361583	8	0.013327	60	10	60-180	60	167	GapExp	0	103	4	0	1	target	1	493	13.328	13.292	13.363
ProbeTrack7	8	ProbeTrack	1406	SCS215b	733716.353449	733716.361659	8	0.013327	60	10	60-180	60	165	GapExp	0	104	4	6	1	target	1	507	13.328	13.293	13.363
ProbeTrack7	8	ProbeTrack	1406	SCS215b	733716.353449	733716.361735	8	0.013327	60	10	60-180	60	157	GapExp	0	105	4	96	1	distractor	0	520	13.328	13.293	13.363
ProbeTrack7	8	ProbeTrack	1406	SCS215b	733716.353449	733716.361829	8	0.013327	60	10	60-180	60	110	GapExp	0	106	4	96	1	target	1	387	13.328	13.289	13.363
ProbeTrack7	8	ProbeTrack	1406	SCS215b	733716.353449	733716.361915	8	0.013327	60	10	60-180	60	132	GapExp	0	107	4	96	0	distractor	1	520	13.328	13.293	13.364
ProbeTrack7	8	ProbeTrack	1406	SCS215b	733716.353449	733716.362018	8	0.013327	60	10	60-180	60	140	GapExp	0	108	4	0	0	target	0	640	13.328	13.293	13.363
ProbeTrack7	8	ProbeTrack	1406	SCS215b	733716.353449	733716.362091	8	0.013327	60	10	60-180	60	148	GapExp	0	109	4	6	0	distractor	1	573	13.328	13.293	13.363
ProbeTrack7	8	ProbeTrack	1406	SCS215b	733716.353449	733716.362167	8	0.013327	60	10	60-180	60	75	GapExp	0	110	4	6	0	target	0	481	13.328	13.269	13.386
ProbeTrack7	8	ProbeTrack	1406	SCS215b	733716.353449	733716.362232	8	0.013327	60	10	60-180	60	137	GapExp	0	111	4	96	1	target	1	600	13.328	13.293	13.365
ProbeTrack7	8	ProbeTrack	1406	SCS215b	733716.353449	733716.362319	8	0.013327	60	10	60-180	60	107	GapExp	0	112	4	0	1	target	1	693	13.328	13.293	13.363
ProbeTrack7	8	ProbeTrack	1406	SCS215b	733716.353449	733716.362394	8	0.013327	60	10	60-180	60	71	GapExp	0	113	4	3	1	target	1	573	13.328	13.293	13.363
ProbeTrack7	8	ProbeTrack	1406	SCS215b	733716.353449	733716.362456	8	0.013327	60	10	60-180	60	82	GapExp	0	114	4	3	0	distractor	1	680	13.328	13.293	13.363
ProbeTrack7	8	ProbeTrack	1406	SCS215b	733716.353449	733716.362522	8	0.013327	60	10	60-180	60	121	GapExp	0	115	4	6	0	distractor	1	853	13.328	13.289	13.363
ProbeTrack7	8	ProbeTrack	1406	SCS215b	733716.353449	733716.362596	8	0.013327	60	10	60-180	60	95	GapExp	0	116	4	3	1	distractor	0	733	13.328	13.289	13.363
ProbeTrack7	8	ProbeTrack	1406	SCS215b	733716.353449	733716.362665	8	0.013327	60	10	60-180	60	161	GapExp	0	117	4	6	1	target	1	547	13.328	13.293	13.363
ProbeTrack7	8	ProbeTrack	1406	SCS215b	733716.353449	733716.362744	8	0.013327	60	10	60-180	60	177	GapExp	0	118	4	0	1	target	1	413	13.328	13.293	13.363
ProbeTrack7	8	ProbeTrack	1406	SCS215b	733716.353449	733716.362824	8	0.013327	60	10	60-180	60	112	GapExp	0	119	4	0	0	distractor	1	653	13.328	13.293	13.364
ProbeTrack7	8	ProbeTrack	1406	SCS215b	733716.353449	733716.362894	8	0.013327	60	10	60-180	60	126	GapExp	0	120	4	3	1	target	1	494	13.328	13.292	13.363
ProbeTrack7	8	ProbeTrack	1406	SCS215b	733716.353449	733716.362974	8	0.013327	60	10	60-180	60	108	GapExp	0	121	4	96	0	distractor	1	747	13.328	13.221	13.401
ProbeTrack7	8	ProbeTrack	1406	SCS215b	733716.353449	733716.363061	8	0.013327	60	10	60-180	60	160	GapExp	0	122	4	6	0	distractor	1	600	13.328	13.293	13.363
ProbeTrack7	8	ProbeTrack	1406	SCS215b	733716.353449	733716.363143	8	0.013327	60	10	60-180	60	126	GapExp	0	123	4	3	0	distractor	1	680	13.328	13.289	13.366
ProbeTrack7	8	ProbeTrack	1406	SCS215b	733716.353449	733716.363216	8	0.013327	60	10	60-180	60	180	GapExp	0	124	4	0	0	distractor	1	747	13.328	13.293	13.364
ProbeTrack7	8	ProbeTrack	1406	SCS215b	733716.353449	733716.363300	8	0.013327	60	10	60-180	60	104	GapExp	0	125	4	3	1	target	1	573	13.328	13.293	13.363
ProbeTrack7	8	ProbeTrack	1406	SCS215b	733716.364008	733716.364175	8	0.013328	60	10	60-180	60	93	GapPrac	1	1	3	6	1	target	1	507	13.328	13.293	13.363
ProbeTrack7	8	ProbeTrack	1406	SCS215b	733716.364008	733716.364251	8	0.013328	60	10	60-180	60	91	GapPrac	1	2	3	0	0	target	0	414	13.328	13.293	13.363
ProbeTrack7	8	ProbeTrack	1406	SCS215b	733716.364008	733716.364314	8	0.013328	60	10	60-180	60	96	GapPrac	1	3	3	96	1	target	1	600	13.328	13.290	13.363
ProbeTrack7	8	ProbeTrack	1406	SCS215b	733716.364008	733716.364413	8	0.013328	60	10	60-180	60	120	GapPrac	1	4	3	3	1	target	1	493	13.328	13.293	13.364
ProbeTrack7	8	ProbeTrack	1406	SCS215b	733716.364008	733716.364484	8	0.013328	60	10	60-180	60	139	GapPrac	1	5	3	6	0	distractor	1	613	13.328	13.293	13.363
ProbeTrack7	8	ProbeTrack	1406	SCS215b	733716.364008	733716.364559	8	0.013328	60	10	60-180	60	168	GapPrac	1	6	3	0	0	multi	-2	653	13.328	13.293	13.363
ProbeTrack7	8	ProbeTrack	1406	SCS215b	733716.364008	733716.364638	8	0.013328	60	10	60-180	60	167	GapPrac	1	7	3	3	1	target	1	680	13.328	13.293	13.363
ProbeTrack7	8	ProbeTrack	1406	SCS215b	733716.364008	733716.364720	8	0.013328	60	10	60-180	60	130	GapPrac	1	8	3	0	1	target	1	533	13.328	13.293	13.363
ProbeTrack7	8	ProbeTrack	1406	SCS215b	733716.364008	733716.364793	8	0.013328	60	10	60-180	60	65	GapPrac	1	9	3	96	1	target	1	600	13.328	13.288	13.363
ProbeTrack7	8	ProbeTrack	1406	SCS215b	733716.364008	733716.364868	8	0.013328	60	10	60-180	60	141	GapPrac	1	10	3	3	0	target	0	987	13.328	13.293	13.363
ProbeTrack7	8	ProbeTrack	1406	SCS215b	733716.364008	733716.364952	8	0.013328	60	10	60-180	60	101	GapPrac	1	11	3	6	1	distractor	0	707	13.328	13.293	13.364
ProbeTrack7	8	ProbeTrack	1406	SCS215b	733716.364008	733716.365022	8	0.013328	60	10	60-180	60	65	GapPrac	1	12	3	3	0	target	0	600	13.328	13.293	13.363
ProbeTrack7	8	ProbeTrack	1406	SCS215b	733716.364008	733716.365085	8	0.013328	60	10	60-180	60	78	GapPrac	1	13	3	96	0	target	0	627	13.328	13.293	13.363
ProbeTrack7	8	ProbeTrack	1406	SCS215b	733716.364008	733716.365163	8	0.013328	60	10	60-180	60	172	GapPrac	1	14	3	96	1	target	1	613	13.328	13.293	13.363
ProbeTrack7	8	ProbeTrack	1406	SCS215b	733716.364008	733716.365257	8	0.013328	60	10	60-180	60	143	GapPrac	1	15	3	0	0	distractor	1	707	13.328	13.293	13.363
ProbeTrack7	8	ProbeTrack	1406	SCS215b	733716.364008	733716.365336	8	0.013328	60	10	60-180	60	72	GapPrac	1	16	3	6	0	target	0	533	13.328	13.293	13.363
ProbeTrack7	8	ProbeTrack	1406	SCS215b	733716.364008	733716.365403	8	0.013328	60	10	60-180	60	147	GapPrac	1	17	3	6	1	distractor	0	600	13.328	13.293	13.363
ProbeTrack7	8	ProbeTrack	1406	SCS215b	733716.364008	733716.365478	8	0.013328	60	10	60-180	60	128	GapPrac	1	18	3	0	1	target	1	573	13.328	13.293	13.363
ProbeTrack7	8	ProbeTrack	1406	SCS215b	733716.364008	733716.365551	8	0.013328	60	10	60-180	60	62	GapPrac	1	19	3	3	1	target	1	547	13.328	13.293	13.363
ProbeTrack7	8	ProbeTrack	1406	SCS215b	733716.364008	733716.365610	8	0.013328	60	10	60-180	60	99	GapPrac	1	20	3	96	0	distractor	1	627	13.328	13.293	13.363
ProbeTrack7	8	ProbeTrack	1406	SCS215b	733716.366445	733716.366558	8	0.013326	60	10	60-180	60	126	GapPrac	1	1	3	3	1	target	1	387	13.328	13.290	13.363
ProbeTrack7	8	ProbeTrack	1406	SCS215b	733716.366445	733716.366631	8	0.013326	60	10	60-180	60	176	GapPrac	1	2	3	6	1	target	1	547	13.328	13.293	13.363
ProbeTrack7	8	ProbeTrack	1406	SCS215b	733716.366445	733716.366711	8	0.013326	60	10	60-180	60	156	GapPrac	1	3	3	96	0	distractor	1	520	13.328	13.293	13.363
ProbeTrack7	8	ProbeTrack	1406	SCS215b	733716.366445	733716.366800	8	0.013326	60	10	60-180	60	90	GapPrac	1	4	3	96	1	target	1	493	13.328	13.291	13.363
ProbeTrack7	8	ProbeTrack	1406	SCS215b	733716.366445	733716.366880	8	0.013326	60	10	60-180	60	66	GapPrac	1	5	3	3	0	distractor	1	573	13.328	13.293	13.363
ProbeTrack7	8	ProbeTrack	1406	SCS215b	733716.366445	733716.366943	8	0.013326	60	10	60-180	60	103	GapPrac	1	6	3	0	0	distractor	1	747	13.328	13.293	13.363
ProbeTrack7	8	ProbeTrack	1406	SCS215b	733716.366445	733716.367015	8	0.013326	60	10	60-180	60	123	GapPrac	1	7	3	6	0	target	0	533	13.328	13.293	13.363
ProbeTrack7	8	ProbeTrack	1406	SCS215b	733716.366445	733716.367086	8	0.013326	60	10	60-180	60	67	GapPrac	1	8	3	96	0	distractor	1	573	13.328	13.293	13.367
ProbeTrack7	8	ProbeTrack	1406	SCS215b	733716.366445	733716.367167	8	0.013326	60	10	60-180	60	142	GapPrac	1	9	3	3	0	distractor	1	693	13.328	13.292	13.363
ProbeTrack7	8	ProbeTrack	1406	SCS215b	733716.366445	733716.367246	8	0.013326	60	10	60-180	60	137	GapPrac	1	10	3	6	1	target	1	533	13.328	13.289	13.363
ProbeTrack7	8	ProbeTrack	1406	SCS215b	733716.366445	733716.367325	8	0.013326	60	10	60-180	60	148	GapPrac	1	11	3	3	1	target	1	507	13.328	13.293	13.363
ProbeTrack7	8	ProbeTrack	1406	SCS215b	733716.366445	733716.367402	8	0.013326	60	10	60-180	60	72	GapPrac	1	12	3	0	1	target	1	573	13.328	13.293	13.363
ProbeTrack7	8	ProbeTrack	1406	SCS215b	733716.366445	733716.367464	8	0.013326	60	10	60-180	60	81	GapPrac	1	13	3	6	1	target	1	573	13.328	13.293	13.363
ProbeTrack7	8	ProbeTrack	1406	SCS215b	733716.366445	733716.367531	8	0.013326	60	10	60-180	60	146	GapPrac	1	14	3	3	1	target	1	467	13.328	13.292	13.364
ProbeTrack7	8	ProbeTrack	1406	SCS215b	733716.366445	733716.367605	8	0.013326	60	10	60-180	60	151	GapPrac	1	15	3	96	1	target	1	760	13.328	13.291	13.363
ProbeTrack7	8	ProbeTrack	1406	SCS215b	733716.366445	733716.367696	8	0.013326	60	10	60-180	60	128	GapPrac	1	16	3	96	1	target	1	560	13.328	13.292	13.363
ProbeTrack7	8	ProbeTrack	1406	SCS215b	733716.366445	733716.367785	8	0.013326	60	10	60-180	60	178	GapPrac	1	17	3	96	0	target	0	547	13.328	13.293	13.363
ProbeTrack7	8	ProbeTrack	1406	SCS215b	733716.366445	733716.367880	8	0.013326	60	10	60-180	60	66	GapPrac	1	18	3	0	0	distractor	1	707	13.328	13.293	13.363
ProbeTrack7	8	ProbeTrack	1406	SCS215b	733716.366445	733716.367949	8	0.013326	60	10	60-180	60	164	GapPrac	1	19	3	6	0	target	0	493	13.328	13.287	13.363
ProbeTrack7	8	ProbeTrack	1406	SCS215b	733716.366445	733716.368025	8	0.013326	60	10	60-180	60	94	GapPrac	1	20	3	0	1	target	1	680	13.328	13.293	13.363
ProbeTrack7	8	ProbeTrack	1406	SCS215b	733716.368731	733716.368884	8	0.013328	60	10	60-180	60	87	GapExp	1	1	3	3	1	target	1	560	13.328	13.293	13.363
ProbeTrack7	8	ProbeTrack	1406	SCS215b	733716.368731	733716.368950	8	0.013328	60	10	60-180	60	107	GapExp	1	2	3	96	0	distractor	1	600	13.328	13.293	13.363
ProbeTrack7	8	ProbeTrack	1406	SCS215b	733716.368731	733716.369033	8	0.013328	60	10	60-180	60	68	GapExp	1	3	3	6	1	target	1	573	13.328	13.293	13.363
ProbeTrack7	8	ProbeTrack	1406	SCS215b	733716.368731	733716.369094	8	0.013328	60	10	60-180	60	155	GapExp	1	4	3	3	0	target	0	640	13.328	13.293	13.364
ProbeTrack7	8	ProbeTrack	1406	SCS215b	733716.368731	733716.369170	8	0.013328	60	10	60-180	60	90	GapExp	1	5	3	0	0	target	0	480	13.328	13.293	13.363
ProbeTrack7	8	ProbeTrack	1406	SCS215b	733716.368731	733716.369235	8	0.013328	60	10	60-180	60	83	GapExp	0	6	3	0	1	target	1	787	13.328	13.293	13.367
ProbeTrack7	8	ProbeTrack	1406	SCS215b	733716.368731	733716.369301	8	0.013328	60	10	60-180	60	78	GapExp	0	7	3	0	1	target	1	653	13.328	13.293	13.363
ProbeTrack7	8	ProbeTrack	1406	SCS215b	733716.368731	733716.369368	8	0.013328	60	10	60-180	60	118	GapExp	0	8	3	3	0	distractor	1	440	13.328	13.293	13.363
ProbeTrack7	8	ProbeTrack	1406	SCS215b	733716.368731	733716.369436	8	0.013328	60	10	60-180	60	153	GapExp	0	9	3	3	0	target	0	707	13.328	13.293	13.363
ProbeTrack7	8	ProbeTrack	1406	SCS215b	733716.368731	733716.369517	8	0.013328	60	10	60-180	60	176	GapExp	0	10	3	3	1	target	1	560	13.328	13.293	13.363
ProbeTrack7	8	ProbeTrack	1406	SCS215b	733716.368731	733716.369597	8	0.013328	60	10	60-180	60	130	GapExp	0	11	3	3	0	target	0	480	13.328	13.293	13.363
ProbeTrack7	8	ProbeTrack	1406	SCS215b	733716.368731	733716.369667	8	0.013328	60	10	60-180	60	66	GapExp	0	12	3	3	1	distractor	0	600	13.328	13.293	13.363
ProbeTrack7	8	ProbeTrack	1406	SCS215b	733716.368731	733716.369731	8	0.013328	60	10	60-180	60	66	GapExp	0	13	3	6	0	distractor	1	587	13.328	13.293	13.363
ProbeTrack7	8	ProbeTrack	1406	SCS215b	733716.368731	733716.369795	8	0.013328	60	10	60-180	60	119	GapExp	0	14	3	96	0	distractor	1	587	13.328	13.293	13.364
ProbeTrack7	8	ProbeTrack	1406	SCS215b	733716.368731	733716.369880	8	0.013328	60	10	60-180	60	98	GapExp	0	15	3	6	1	target	1	573	13.328	13.293	13.363
ProbeTrack7	8	ProbeTrack	1406	SCS215b	733716.368731	733716.369949	8	0.013328	60	10	60-180	60	68	GapExp	0	16	3	6	0	distractor	1	613	13.328	13.293	13.363
ProbeTrack7	8	ProbeTrack	1406	SCS215b	733716.368731	733716.370014	8	0.013328	60	10	60-180	60	87	GapExp	0	17	3	0	1	target	1	413	13.328	13.293	13.363
ProbeTrack7	8	ProbeTrack	1406	SCS215b	733716.368731	733716.370078	8	0.013328	60	10	60-180	60	77	GapExp	0	18	3	3	0	target	0	547	13.328	13.292	13.364
ProbeTrack7	8	ProbeTrack	1406	SCS215b	733716.368731	733716.370143	8	0.013328	60	10	60-180	60	74	GapExp	0	19	3	0	1	target	1	640	13.328	13.293	13.363
ProbeTrack7	8	ProbeTrack	1406	SCS215b	733716.368731	733716.370205	8	0.013328	60	10	60-180	60	92	GapExp	0	20	3	0	1	target	1	547	13.328	13.292	13.363
ProbeTrack7	8	ProbeTrack	1406	SCS215b	733716.368731	733716.370271	8	0.013328	60	10	60-180	60	144	GapExp	0	21	3	6	0	distractor	1	507	13.328	13.268	13.363
ProbeTrack7	8	ProbeTrack	1406	SCS215b	733716.368731	733716.370344	8	0.013328	60	10	60-180	60	80	GapExp	0	22	3	3	0	target	0	360	13.328	13.293	13.363
ProbeTrack7	8	ProbeTrack	1406	SCS215b	733716.368731	733716.370411	8	0.013328	60	10	60-180	60	110	GapExp	0	23	3	96	1	target	1	453	13.328	13.293	13.363
ProbeTrack7	8	ProbeTrack	1406	SCS215b	733716.368731	733716.370493	8	0.013328	60	10	60-180	60	142	GapExp	0	24	3	6	1	target	1	480	13.328	13.293	13.363
ProbeTrack7	8	ProbeTrack	1406	SCS215b	733716.368731	733716.370565	8	0.013328	60	10	60-180	60	71	GapExp	0	25	3	0	1	target	1	507	13.328	13.293	13.363
ProbeTrack7	8	ProbeTrack	1406	SCS215b	733716.368731	733716.370626	8	0.013328	60	10	60-180	60	64	GapExp	0	26	3	3	0	target	0	547	13.328	13.293	13.363
ProbeTrack7	8	ProbeTrack	1406	SCS215b	733716.368731	733716.370688	8	0.013328	60	10	60-180	60	63	GapExp	0	27	3	96	0	distractor	1	560	13.328	13.293	13.363
ProbeTrack7	8	ProbeTrack	1406	SCS215b	733716.368731	733716.370771	8	0.013328	60	10	60-180	60	124	GapExp	0	28	3	6	1	target	1	427	13.328	13.293	13.363
ProbeTrack7	8	ProbeTrack	1406	SCS215b	733716.368731	733716.370842	8	0.013328	60	10	60-180	60	93	GapExp	0	29	3	3	0	target	0	587	13.328	13.292	13.363
ProbeTrack7	8	ProbeTrack	1406	SCS215b	733716.368731	733716.370911	8	0.013328	60	10	60-180	60	101	GapExp	0	30	3	96	0	distractor	1	587	13.328	13.293	13.363
ProbeTrack7	8	ProbeTrack	1406	SCS215b	733716.368731	733716.370994	8	0.013328	60	10	60-180	60	87	GapExp	0	31	3	0	1	target	1	613	13.328	13.293	13.363
ProbeTrack7	8	ProbeTrack	1406	SCS215b	733716.368731	733716.371060	8	0.013328	60	10	60-180	60	77	GapExp	0	32	3	96	1	target	1	440	13.328	13.293	13.364
ProbeTrack7	8	ProbeTrack	1406	SCS215b	733716.368731	733716.371146	8	0.013328	60	10	60-180	60	105	GapExp	0	33	3	6	0	target	0	493	13.328	13.293	13.363
ProbeTrack7	8	ProbeTrack	1406	SCS215b	733716.368731	733716.371211	8	0.013328	60	10	60-180	60	75	GapExp	0	34	3	6	0	distractor	1	547	13.328	13.293	13.363
ProbeTrack7	8	ProbeTrack	1406	SCS215b	733716.368731	733716.371274	8	0.013328	60	10	60-180	60	100	GapExp	0	35	3	96	1	target	1	467	13.328	13.288	13.363
ProbeTrack7	8	ProbeTrack	1406	SCS215b	733716.368731	733716.371371	8	0.013328	60	10	60-180	60	126	GapExp	0	36	3	96	1	target	1	387	13.328	13.293	13.364
ProbeTrack7	8	ProbeTrack	1406	SCS215b	733716.368731	733716.371457	8	0.013328	60	10	60-180	60	100	GapExp	0	37	3	0	0	distractor	1	773	13.328	13.293	13.363
ProbeTrack7	8	ProbeTrack	1406	SCS215b	733716.368731	733716.371526	8	0.013328	60	10	60-180	60	115	GapExp	0	38	3	0	1	target	1	520	13.328	13.292	13.363
ProbeTrack7	8	ProbeTrack	1406	SCS215b	733716.368731	733716.371598	8	0.013328	60	10	60-180	60	143	GapExp	0	39	3	3	1	target	1	400	13.328	13.293	13.363
ProbeTrack7	8	ProbeTrack	1406	SCS215b	733716.368731	733716.371673	8	0.013328	60	10	60-180	60	87	GapExp	0	40	3	6	0	distractor	1	560	13.328	13.290	13.367
ProbeTrack7	8	ProbeTrack	1406	SCS215b	733716.368731	733716.371740	8	0.013328	60	10	60-180	60	175	GapExp	0	41	3	96	1	target	1	507	13.328	13.292	13.363
ProbeTrack7	8	ProbeTrack	1406	SCS215b	733716.368731	733716.371835	8	0.013328	60	10	60-180	60	79	GapExp	0	42	3	6	1	target	1	440	13.328	13.293	13.363
ProbeTrack7	8	ProbeTrack	1406	SCS215b	733716.368731	733716.371899	8	0.013328	60	10	60-180	60	168	GapExp	0	43	3	6	1	target	1	400	13.328	13.293	13.363
ProbeTrack7	8	ProbeTrack	1406	SCS215b	733716.368731	733716.371975	8	0.013328	60	10	60-180	60	97	GapExp	0	44	3	6	0	distractor	1	613	13.328	13.292	13.363
ProbeTrack7	8	ProbeTrack	1406	SCS215b	733716.368731	733716.372044	8	0.013328	60	10	60-180	60	79	GapExp	0	45	3	0	1	target	1	493	13.328	13.293	13.363
ProbeTrack7	8	ProbeTrack	1406	SCS215b	733716.368731	733716.372108	8	0.013328	60	10	60-180	60	75	GapExp	0	46	3	6	0	distractor	1	573	13.328	13.293	13.363
ProbeTrack7	8	ProbeTrack	1406	SCS215b	733716.368731	733716.372171	8	0.013328	60	10	60-180	60	88	GapExp	0	47	3	0	0	target	0	507	13.328	13.293	13.363
ProbeTrack7	8	ProbeTrack	1406	SCS215b	733716.368731	733716.372237	8	0.013328	60	10	60-180	60	155	GapExp	0	48	3	96	0	target	0	733	13.328	13.292	13.363
ProbeTrack7	8	ProbeTrack	1406	SCS215b	733716.368731	733716.372330	8	0.013328	60	10	60-180	60	128	GapExp	0	49	3	96	0	distractor	1	653	13.328	13.292	13.363
ProbeTrack7	8	ProbeTrack	1406	SCS215b	733716.368731	733716.372419	8	0.013328	60	10	60-180	60	68	GapExp	0	50	3	96	1	target	1	493	13.328	13.293	13.363
ProbeTrack7	8	ProbeTrack	1406	SCS215b	733716.368731	733716.372497	8	0.013328	60	10	60-180	60	141	GapExp	0	51	3	3	0	distractor	1	613	13.328	13.275	13.366
ProbeTrack7	8	ProbeTrack	1406	SCS215b	733716.368731	733716.372573	8	0.013328	60	10	60-180	60	159	GapExp	0	52	3	3	1	target	1	467	13.328	13.293	13.363
ProbeTrack7	8	ProbeTrack	1406	SCS215b	733716.368731	733716.372649	8	0.013328	60	10	60-180	60	97	GapExp	0	53	3	0	0	distractor	1	773	13.328	13.293	13.363
ProbeTrack7	8	ProbeTrack	1406	SCS215b	733716.368731	733716.372722	8	0.013328	60	10	60-180	60	139	GapExp	0	54	3	0	0	target	0	613	13.328	13.293	13.363
ProbeTrack7	8	ProbeTrack	1406	SCS215b	733716.368731	733716.372795	8	0.013328	60	10	60-180	60	82	GapExp	0	55	3	6	1	target	1	760	13.328	13.292	13.363
ProbeTrack7	8	ProbeTrack	1406	SCS215b	733716.368731	733716.372862	8	0.013328	60	10	60-180	60	143	GapExp	0	56	3	6	1	target	1	414	13.328	13.293	13.363
ProbeTrack7	8	ProbeTrack	1406	SCS215b	733716.368731	733716.372934	8	0.013328	60	10	60-180	60	142	GapExp	0	57	3	6	1	target	1	453	13.328	13.289	13.363
ProbeTrack7	8	ProbeTrack	1406	SCS215b	733716.368731	733716.373009	8	0.013328	60	10	60-180	60	72	GapExp	0	58	3	3	0	distractor	1	867	13.328	13.293	13.363
ProbeTrack7	8	ProbeTrack	1406	SCS215b	733716.368731	733716.373075	8	0.013328	60	10	60-180	60	166	GapExp	0	59	3	6	0	target	0	720	13.328	13.293	13.363
ProbeTrack7	8	ProbeTrack	1406	SCS215b	733716.368731	733716.373156	8	0.013328	60	10	60-180	60	127	GapExp	0	60	3	96	1	target	1	587	13.328	13.293	13.363
ProbeTrack7	8	ProbeTrack	1406	SCS215b	733716.368731	733716.373242	8	0.013328	60	10	60-180	60	79	GapExp	0	61	3	96	0	distractor	1	587	13.328	13.293	13.363
ProbeTrack7	8	ProbeTrack	1406	SCS215b	733716.368731	733716.373320	8	0.013328	60	10	60-180	60	176	GapExp	0	62	3	3	1	target	1	573	13.328	13.293	13.363
ProbeTrack7	8	ProbeTrack	1406	SCS215b	733716.368731	733716.373401	8	0.013328	60	10	60-180	60	67	GapExp	0	63	3	3	0	distractor	1	707	13.328	13.293	13.363
ProbeTrack7	8	ProbeTrack	1406	SCS215b	733716.368731	733716.373464	8	0.013328	60	10	60-180	60	123	GapExp	0	64	3	3	0	distractor	1	613	13.328	13.293	13.367
ProbeTrack7	8	ProbeTrack	1406	SCS215b	733716.368731	733716.373536	8	0.013328	60	10	60-180	60	110	GapExp	0	65	3	6	1	target	1	467	13.328	13.292	13.363
ProbeTrack7	8	ProbeTrack	1406	SCS215b	733716.368731	733716.373604	8	0.013328	60	10	60-180	60	91	GapExp	0	66	3	3	1	target	1	467	13.328	13.292	13.363
ProbeTrack7	8	ProbeTrack	1406	SCS215b	733716.368731	733716.373669	8	0.013328	60	10	60-180	60	89	GapExp	0	67	3	0	0	target	0	533	13.328	13.293	13.363
ProbeTrack7	8	ProbeTrack	1406	SCS215b	733716.368731	733716.373734	8	0.013328	60	10	60-180	60	108	GapExp	0	68	3	3	1	target	1	493	13.328	13.293	13.363
ProbeTrack7	8	ProbeTrack	1406	SCS215b	733716.368731	733716.373803	8	0.013328	60	10	60-180	60	153	GapExp	0	69	3	0	1	target	1	507	13.328	13.293	13.363
ProbeTrack7	8	ProbeTrack	1406	SCS215b	733716.368731	733716.373894	8	0.013328	60	10	60-180	60	97	GapExp	0	70	3	6	0	distractor	1	680	13.328	13.293	13.363
ProbeTrack7	8	ProbeTrack	1406	SCS215b	733716.368731	733716.373962	8	0.013328	60	10	60-180	60	169	GapExp	0	71	3	0	1	target	1	587	13.328	13.293	13.366
ProbeTrack7	8	ProbeTrack	1406	SCS215b	733716.368731	733716.374042	8	0.013328	60	10	60-180	60	133	GapExp	0	72	3	0	1	target	1	467	13.328	13.293	13.363
ProbeTrack7	8	ProbeTrack	1406	SCS215b	733716.368731	733716.374114	8	0.013328	60	10	60-180	60	98	GapExp	0	73	3	96	1	target	1	547	13.328	13.293	13.363
ProbeTrack7	8	ProbeTrack	1406	SCS215b	733716.368731	733716.374194	8	0.013328	60	10	60-180	60	74	GapExp	0	74	3	0	0	distractor	1	667	13.328	13.293	13.364
ProbeTrack7	8	ProbeTrack	1406	SCS215b	733716.368731	733716.374259	8	0.013328	60	10	60-180	60	68	GapExp	0	75	3	96	1	target	1	560	13.328	13.293	13.363
ProbeTrack7	8	ProbeTrack	1406	SCS215b	733716.368731	733716.374337	8	0.013328	60	10	60-180	60	117	GapExp	0	76	3	0	1	target	1	600	13.328	13.293	13.363
ProbeTrack7	8	ProbeTrack	1406	SCS215b	733716.368731	733716.374408	8	0.013328	60	10	60-180	60	160	GapExp	0	77	3	0	1	target	1	467	13.328	13.293	13.363
ProbeTrack7	8	ProbeTrack	1406	SCS215b	733716.368731	733716.374482	8	0.013328	60	10	60-180	60	102	GapExp	0	78	3	3	0	target	0	507	13.328	13.291	13.366
ProbeTrack7	8	ProbeTrack	1406	SCS215b	733716.368731	733716.374549	8	0.013328	60	10	60-180	60	133	GapExp	0	79	3	3	0	target	0	693	13.328	13.293	13.363
ProbeTrack7	8	ProbeTrack	1406	SCS215b	733716.368731	733716.374622	8	0.013328	60	10	60-180	60	76	GapExp	0	80	3	96	0	distractor	1	507	13.328	13.293	13.363
ProbeTrack7	8	ProbeTrack	1406	SCS215b	733716.368731	733716.374700	8	0.013328	60	10	60-180	60	68	GapExp	0	81	3	0	0	target	0	587	13.328	13.293	13.363
ProbeTrack7	8	ProbeTrack	1406	SCS215b	733716.368731	733716.374765	8	0.013328	60	10	60-180	60	82	GapExp	0	82	3	6	0	distractor	1	573	13.328	13.293	13.363
ProbeTrack7	8	ProbeTrack	1406	SCS215b	733716.368731	733716.374831	8	0.013328	60	10	60-180	60	159	GapExp	0	83	3	0	0	distractor	1	787	13.328	13.293	13.363
ProbeTrack7	8	ProbeTrack	1406	SCS215b	733716.368731	733716.374911	8	0.013328	60	10	60-180	60	109	GapExp	0	84	3	96	0	distractor	1	667	13.328	13.292	13.364
ProbeTrack7	8	ProbeTrack	1406	SCS215b	733716.368731	733716.374996	8	0.013328	60	10	60-180	60	171	GapExp	0	85	3	6	1	distractor	0	613	13.328	13.292	13.363
ProbeTrack7	8	ProbeTrack	1406	SCS215b	733716.368731	733716.375074	8	0.013328	60	10	60-180	60	155	GapExp	0	86	3	6	1	target	1	360	13.328	13.290	13.363
ProbeTrack7	8	ProbeTrack	1406	SCS215b	733716.368731	733716.375151	8	0.013328	60	10	60-180	60	143	GapExp	0	87	3	6	1	target	1	507	13.328	13.293	13.363
ProbeTrack7	8	ProbeTrack	1406	SCS215b	733716.368731	733716.375230	8	0.013328	60	10	60-180	60	111	GapExp	0	88	3	0	0	target	0	587	13.328	13.293	13.363
ProbeTrack7	8	ProbeTrack	1406	SCS215b	733716.368731	733716.375298	8	0.013328	60	10	60-180	60	172	GapExp	0	89	3	6	1	target	1	653	13.328	13.293	13.363
ProbeTrack7	8	ProbeTrack	1406	SCS215b	733716.368731	733716.375378	8	0.013328	60	10	60-180	60	102	GapExp	0	90	3	6	0	target	0	467	13.328	13.293	13.364
ProbeTrack7	8	ProbeTrack	1406	SCS215b	733716.368731	733716.375448	8	0.013328	60	10	60-180	60	161	GapExp	0	91	3	0	0	target	0	467	13.328	13.293	13.365
ProbeTrack7	8	ProbeTrack	1406	SCS215b	733716.368731	733716.375538	8	0.013328	60	10	60-180	60	136	GapExp	0	92	3	6	0	distractor	1	640	13.328	13.293	13.363
ProbeTrack7	8	ProbeTrack	1406	SCS215b	733716.368731	733716.375611	8	0.013328	60	10	60-180	60	88	GapExp	0	93	3	3	1	target	1	680	13.328	13.290	13.366
ProbeTrack7	8	ProbeTrack	1406	SCS215b	733716.368731	733716.375679	8	0.013328	60	10	60-180	60	157	GapExp	0	94	3	96	0	distractor	1	627	13.328	13.290	13.363
ProbeTrack7	8	ProbeTrack	1406	SCS215b	733716.368731	733716.375773	8	0.013328	60	10	60-180	60	94	GapExp	0	95	3	6	1	target	1	587	13.328	13.293	13.364
ProbeTrack7	8	ProbeTrack	1406	SCS215b	733716.368731	733716.375842	8	0.013328	60	10	60-180	60	82	GapExp	0	96	3	3	1	target	1	493	13.328	13.292	13.363
ProbeTrack7	8	ProbeTrack	1406	SCS215b	733716.368731	733716.375905	8	0.013328	60	10	60-180	60	99	GapExp	0	97	3	0	0	target	0	454	13.328	13.293	13.363
ProbeTrack7	8	ProbeTrack	1406	SCS215b	733716.368731	733716.375971	8	0.013328	60	10	60-180	60	124	GapExp	0	98	3	96	0	target	0	507	13.328	13.293	13.363
ProbeTrack7	8	ProbeTrack	1406	SCS215b	733716.368731	733716.376070	8	0.013328	60	10	60-180	60	98	GapExp	0	99	3	96	1	target	1	493	13.328	13.293	13.363
ProbeTrack7	8	ProbeTrack	1406	SCS215b	733716.368731	733716.376153	8	0.013328	60	10	60-180	60	100	GapExp	0	100	3	96	1	target	1	387	13.328	13.293	13.365
ProbeTrack7	8	ProbeTrack	1406	SCS215b	733716.368731	733716.376234	8	0.013328	60	10	60-180	60	144	GapExp	0	101	3	6	0	target	0	480	13.328	13.293	13.363
ProbeTrack7	8	ProbeTrack	1406	SCS215b	733716.368731	733716.376306	8	0.013328	60	10	60-180	60	142	GapExp	0	102	3	0	0	target	0	600	13.328	13.293	13.363
ProbeTrack7	8	ProbeTrack	1406	SCS215b	733716.368731	733716.376380	8	0.013328	60	10	60-180	60	124	GapExp	0	103	3	3	1	target	1	507	13.328	13.293	13.363
ProbeTrack7	8	ProbeTrack	1406	SCS215b	733716.368731	733716.376456	8	0.013328	60	10	60-180	60	159	GapExp	0	104	3	3	1	target	1	453	13.328	13.293	13.364
ProbeTrack7	8	ProbeTrack	1406	SCS215b	733716.368731	733716.376533	8	0.013328	60	10	60-180	60	115	GapExp	0	105	3	96	1	target	1	627	13.328	13.293	13.363
ProbeTrack7	8	ProbeTrack	1406	SCS215b	733716.368731	733716.376620	8	0.013328	60	10	60-180	60	147	GapExp	0	106	3	6	1	distractor	0	587	13.328	13.291	13.365
ProbeTrack7	8	ProbeTrack	1406	SCS215b	733716.368731	733716.376697	8	0.013328	60	10	60-180	60	127	GapExp	0	107	3	6	0	target	0	534	13.328	13.293	13.363
ProbeTrack7	8	ProbeTrack	1406	SCS215b	733716.368731	733716.376771	8	0.013328	60	10	60-180	60	148	GapExp	0	108	3	0	0	target	0	813	13.328	13.293	13.363
ProbeTrack7	8	ProbeTrack	1406	SCS215b	733716.368731	733716.376848	8	0.013328	60	10	60-180	60	71	GapExp	0	109	3	3	1	target	1	547	13.328	13.293	13.363
ProbeTrack7	8	ProbeTrack	1406	SCS215b	733716.368731	733716.376911	8	0.013328	60	10	60-180	60	123	GapExp	0	110	3	96	0	distractor	1	587	13.328	13.290	13.363
ProbeTrack7	8	ProbeTrack	1406	SCS215b	733716.368731	733716.376997	8	0.013328	60	10	60-180	60	78	GapExp	0	111	3	96	0	distractor	1	640	13.328	13.293	13.364
ProbeTrack7	8	ProbeTrack	1406	SCS215b	733716.368731	733716.377078	8	0.013328	60	10	60-180	60	123	GapExp	0	112	3	3	1	target	1	560	13.328	13.293	13.363
ProbeTrack7	8	ProbeTrack	1406	SCS215b	733716.368731	733716.377150	8	0.013328	60	10	60-180	60	103	GapExp	0	113	3	96	0	distractor	1	733	13.328	13.293	13.363
ProbeTrack7	8	ProbeTrack	1406	SCS215b	733716.368731	733716.377235	8	0.013328	60	10	60-180	60	95	GapExp	0	114	3	96	0	distractor	1	613	13.328	13.293	13.363
ProbeTrack7	8	ProbeTrack	1406	SCS215b	733716.368731	733716.377316	8	0.013328	60	10	60-180	60	139	GapExp	0	115	3	3	0	distractor	1	800	13.328	13.293	13.363
ProbeTrack7	8	ProbeTrack	1406	SCS215b	733716.368731	733716.377393	8	0.013328	60	10	60-180	60	96	GapExp	0	116	3	0	0	target	0	560	13.328	13.293	13.363
ProbeTrack7	8	ProbeTrack	1406	SCS215b	733716.368731	733716.377459	8	0.013328	60	10	60-180	60	80	GapExp	0	117	3	3	0	distractor	1	560	13.328	13.292	13.363
ProbeTrack7	8	ProbeTrack	1406	SCS215b	733716.368731	733716.377524	8	0.013328	60	10	60-180	60	120	GapExp	0	118	3	0	0	target	0	667	13.328	13.293	13.367
ProbeTrack7	8	ProbeTrack	1406	SCS215b	733716.368731	733716.377598	8	0.013328	60	10	60-180	60	133	GapExp	0	119	3	96	1	distractor	0	520	13.328	13.293	13.363
ProbeTrack7	8	ProbeTrack	1406	SCS215b	733716.368731	733716.377687	8	0.013328	60	10	60-180	60	111	GapExp	0	120	3	3	1	target	1	533	13.328	13.293	13.363
ProbeTrack7	8	ProbeTrack	1406	SCS215b	733716.368731	733716.377757	8	0.013328	60	10	60-180	60	162	GapExp	0	121	3	96	1	target	1	587	13.328	13.290	13.367
ProbeTrack7	8	ProbeTrack	1406	SCS215b	733716.368731	733716.377850	8	0.013328	60	10	60-180	60	64	GapExp	0	122	3	96	1	target	1	480	13.328	13.292	13.363
ProbeTrack7	8	ProbeTrack	1406	SCS215b	733716.368731	733716.377926	8	0.013328	60	10	60-180	60	169	GapExp	0	123	3	3	1	target	1	453	13.328	13.293	13.363
ProbeTrack7	8	ProbeTrack	1406	SCS215b	733716.368731	733716.378002	8	0.013328	60	10	60-180	60	96	GapExp	0	124	3	96	0	distractor	1	613	13.328	13.293	13.363
ProbeTrack7	8	ProbeTrack	1406	SCS215b	733716.368731	733716.378088	8	0.013328	60	10	60-180	60	137	GapExp	0	125	3	0	1	target	1	467	13.328	13.293	13.363
