exp	sub	code	rev	comp	runtime	trialtime	nstim	refreshdur	cuedur	gapdur	gapOnsetRange	durPostProbe	gapOnsetTime	blocktype	prac	trial	ntargets	soa	probeTarget	resp	acc	rt	meanFrameDur	minFrameDur	maxFrameDur
ProbeTrack7	33	ProbeTrack	1406	SCS215a	733725.448720	733725.448973	8	0.013328	60	0	60-180	60	166	NoGap	1	1	4	3	1	target	1	1053	13.328	13.291	13.366
ProbeTrack7	33	ProbeTrack	1406	SCS215a	733725.448720	733725.449285	8	0.013328	60	0	60-180	60	72	NoGap	1	2	4	6	0	distractor	1	987	13.328	13.293	13.363
ProbeTrack7	33	ProbeTrack	1406	SCS215a	733725.448720	733725.449402	8	0.013328	60	0	60-180	60	164	NoGap	1	3	4	0	0	distractor	1	946	13.328	13.293	13.363
ProbeTrack7	33	ProbeTrack	1406	SCS215a	733725.448720	733725.449531	8	0.013328	60	0	60-180	60	121	NoGap	1	4	4	3	0	target	0	813	13.328	13.293	13.363
ProbeTrack7	33	ProbeTrack	1406	SCS215a	733725.448720	733725.449669	8	0.013328	60	0	60-180	60	68	NoGap	1	5	4	3	1	distractor	0	1293	13.328	13.293	13.363
ProbeTrack7	33	ProbeTrack	1406	SCS215a	733725.448720	733725.449753	8	0.013328	60	0	60-180	60	87	NoGap	1	6	4	96	0	distractor	1	600	13.328	13.293	13.363
ProbeTrack7	33	ProbeTrack	1406	SCS215a	733725.448720	733725.449841	8	0.013328	60	0	60-180	60	158	NoGap	1	7	4	6	1	distractor	0	880	13.328	13.293	13.366
ProbeTrack7	33	ProbeTrack	1406	SCS215a	733725.448720	733725.449929	8	0.013328	60	0	60-180	60	150	NoGap	1	8	4	0	1	target	1	1080	13.328	13.293	13.364
ProbeTrack7	33	ProbeTrack	1406	SCS215a	733725.448720	733725.450016	8	0.013328	60	0	60-180	60	101	NoGap	1	9	4	6	1	distractor	0	947	13.328	13.293	13.363
ProbeTrack7	33	ProbeTrack	1406	SCS215a	733725.448720	733725.450095	8	0.013328	60	0	60-180	60	160	NoGap	1	10	4	96	1	distractor	0	800	13.328	13.290	13.363
ProbeTrack7	33	ProbeTrack	1406	SCS215a	733725.448720	733725.450200	8	0.013328	60	0	60-180	60	119	NoGap	1	11	4	96	0	distractor	1	707	13.328	13.293	13.363
ProbeTrack7	33	ProbeTrack	1406	SCS215a	733725.448720	733725.450290	8	0.013328	60	0	60-180	60	130	NoGap	1	12	4	96	0	target	0	1026	13.328	13.293	13.363
ProbeTrack7	33	ProbeTrack	1406	SCS215a	733725.448720	733725.450396	8	0.013328	60	0	60-180	60	151	NoGap	1	13	4	3	1	target	1	800	13.328	13.293	13.363
ProbeTrack7	33	ProbeTrack	1406	SCS215a	733725.448720	733725.450477	8	0.013328	60	0	60-180	60	119	NoGap	1	14	4	6	0	distractor	1	520	13.328	13.293	13.363
ProbeTrack7	33	ProbeTrack	1406	SCS215a	733725.448720	733725.450560	8	0.013328	60	0	60-180	60	171	NoGap	1	15	4	6	1	distractor	0	640	13.328	13.293	13.363
ProbeTrack7	33	ProbeTrack	1406	SCS215a	733725.448720	733725.450660	8	0.013328	60	0	60-180	60	95	NoGap	1	16	4	3	0	distractor	1	573	13.328	13.293	13.363
ProbeTrack7	33	ProbeTrack	1406	SCS215a	733725.448720	733725.450731	8	0.013328	60	0	60-180	60	164	NoGap	1	17	4	6	1	distractor	0	707	13.328	13.293	13.363
ProbeTrack7	33	ProbeTrack	1406	SCS215a	733725.448720	733725.450830	8	0.013328	60	0	60-180	60	133	NoGap	1	18	4	6	0	target	0	400	13.328	13.289	13.363
ProbeTrack7	33	ProbeTrack	1406	SCS215a	733725.448720	733725.450913	8	0.013328	60	0	60-180	60	174	NoGap	1	19	4	0	1	distractor	0	747	13.328	13.293	13.363
ProbeTrack7	33	ProbeTrack	1406	SCS215a	733725.448720	733725.450999	8	0.013328	60	0	60-180	60	86	NoGap	1	20	4	96	1	target	1	1053	13.328	13.293	13.363
ProbeTrack7	33	ProbeTrack	1406	SCS215a	733725.448720	733725.451090	8	0.013328	60	0	60-180	60	157	NoGap	1	21	4	3	1	target	1	840	13.328	13.288	13.363
ProbeTrack7	33	ProbeTrack	1406	SCS215a	733725.448720	733725.451173	8	0.013328	60	0	60-180	60	147	NoGap	1	22	4	0	0	target	0	360	13.328	13.293	13.363
ProbeTrack7	33	ProbeTrack	1406	SCS215a	733725.448720	733725.451250	8	0.013328	60	0	60-180	60	79	NoGap	1	23	4	96	1	target	1	893	13.328	13.293	13.363
ProbeTrack7	33	ProbeTrack	1406	SCS215a	733725.448720	733725.451332	8	0.013328	60	0	60-180	60	146	NoGap	1	24	4	0	1	target	1	693	13.328	13.293	13.363
ProbeTrack7	33	ProbeTrack	1406	SCS215a	733725.448720	733725.451420	8	0.013328	60	0	60-180	60	150	NoGap	1	25	4	3	1	distractor	0	800	13.328	13.293	13.363
ProbeTrack7	33	ProbeTrack	1406	SCS215a	733725.448720	733725.451507	8	0.013328	60	0	60-180	60	70	NoGap	1	26	4	96	1	target	1	733	13.328	13.293	13.363
ProbeTrack7	33	ProbeTrack	1406	SCS215a	733725.448720	733725.451583	8	0.013328	60	0	60-180	60	162	NoGap	1	27	4	3	1	target	1	640	13.328	13.293	13.363
ProbeTrack7	33	ProbeTrack	1406	SCS215a	733725.448720	733725.451661	8	0.013328	60	0	60-180	60	83	NoGap	1	28	4	96	1	target	1	520	13.328	13.293	13.363
ProbeTrack7	33	ProbeTrack	1406	SCS215a	733725.448720	733725.451742	8	0.013328	60	0	60-180	60	96	NoGap	1	29	4	0	1	target	1	520	13.328	13.293	13.363
ProbeTrack7	33	ProbeTrack	1406	SCS215a	733725.448720	733725.451812	8	0.013328	60	0	60-180	60	133	NoGap	1	30	4	6	1	target	1	374	13.328	13.293	13.366
ProbeTrack7	33	ProbeTrack	1406	SCS215a	733725.448720	733725.451884	8	0.013328	60	0	60-180	60	173	NoGap	1	31	4	6	1	target	1	520	13.328	13.293	13.363
ProbeTrack7	33	ProbeTrack	1406	SCS215a	733725.448720	733725.451961	8	0.013328	60	0	60-180	60	144	NoGap	1	32	4	0	0	distractor	1	667	13.328	13.289	13.363
ProbeTrack7	33	ProbeTrack	1406	SCS215a	733725.448720	733725.452034	8	0.013328	60	0	60-180	60	106	NoGap	1	33	4	6	0	distractor	1	1093	13.328	13.293	13.363
ProbeTrack7	33	ProbeTrack	1406	SCS215a	733725.448720	733725.452116	8	0.013328	60	0	60-180	60	164	NoGap	1	34	4	0	1	target	1	520	13.328	13.293	13.363
ProbeTrack7	33	ProbeTrack	1406	SCS215a	733725.448720	733725.452194	8	0.013328	60	0	60-180	60	163	NoGap	1	35	4	3	0	distractor	1	667	13.328	13.293	13.363
ProbeTrack7	33	ProbeTrack	1406	SCS215a	733725.448720	733725.452272	8	0.013328	60	0	60-180	60	83	NoGap	1	36	4	0	0	distractor	1	600	13.328	13.293	13.368
ProbeTrack7	33	ProbeTrack	1406	SCS215a	733725.448720	733725.452337	8	0.013328	60	0	60-180	60	158	NoGap	1	37	4	0	1	target	1	653	13.328	13.292	13.363
ProbeTrack7	33	ProbeTrack	1406	SCS215a	733725.448720	733725.452413	8	0.013328	60	0	60-180	60	74	NoGap	1	38	4	96	0	distractor	1	707	13.328	13.293	13.363
ProbeTrack7	33	ProbeTrack	1406	SCS215a	733725.448720	733725.452491	8	0.013328	60	0	60-180	60	139	NoGap	1	39	4	3	0	distractor	1	573	13.328	13.293	13.363
ProbeTrack7	33	ProbeTrack	1406	SCS215a	733725.448720	733725.452564	8	0.013328	60	0	60-180	60	105	NoGap	1	40	4	6	0	distractor	1	547	13.328	13.293	13.363
ProbeTrack7	33	ProbeTrack	1406	SCS215a	733725.448720	733725.452634	8	0.013328	60	0	60-180	60	155	NoGap	1	41	4	96	0	distractor	1	493	13.328	13.293	13.363
ProbeTrack7	33	ProbeTrack	1406	SCS215a	733725.448720	733725.452724	8	0.013328	60	0	60-180	60	88	NoGap	1	42	4	6	1	distractor	0	827	13.328	13.293	13.363
ProbeTrack7	33	ProbeTrack	1406	SCS215a	733725.448720	733725.452789	8	0.013328	60	0	60-180	60	147	NoGap	1	43	4	96	0	distractor	1	533	13.328	13.293	13.363
ProbeTrack7	33	ProbeTrack	1406	SCS215a	733725.448720	733725.452880	8	0.013328	60	0	60-180	60	149	NoGap	1	44	4	3	0	distractor	1	1146	13.328	13.293	13.363
ProbeTrack7	33	ProbeTrack	1406	SCS215a	733725.448720	733725.452961	8	0.013328	60	0	60-180	60	149	NoGap	1	45	4	6	0	distractor	1	494	13.328	13.293	13.363
ProbeTrack7	33	ProbeTrack	1406	SCS215a	733725.448720	733725.453084	8	0.013328	60	0	60-180	60	71	NoGap	1	46	4	3	0	target	0	680	13.328	13.293	13.363
ProbeTrack7	33	ProbeTrack	1406	SCS215a	733725.448720	733725.453148	8	0.013328	60	0	60-180	60	108	NoGap	1	47	4	96	1	distractor	0	613	13.328	13.292	13.363
ProbeTrack7	33	ProbeTrack	1406	SCS215a	733725.448720	733725.453235	8	0.013328	60	0	60-180	60	116	NoGap	1	48	4	3	1	target	1	747	13.328	13.293	13.364
ProbeTrack7	33	ProbeTrack	1406	SCS215a	733725.448720	733725.453307	8	0.013328	60	0	60-180	60	109	NoGap	1	49	4	0	0	distractor	1	587	13.328	13.292	13.363
ProbeTrack7	33	ProbeTrack	1406	SCS215a	733725.448720	733725.453378	8	0.013328	60	0	60-180	60	140	NoGap	1	50	4	0	0	distractor	1	560	13.328	13.293	13.367
ProbeTrack7	33	ProbeTrack	1406	SCS215a	733725.454188	733725.454317	8	0.013327	60	10	60-180	60	70	GapPrac	1	1	3	96	0	distractor	1	1040	13.328	13.293	13.363
ProbeTrack7	33	ProbeTrack	1406	SCS215a	733725.454188	733725.454430	8	0.013327	60	10	60-180	60	88	GapPrac	1	2	3	6	1	distractor	0	573	13.328	13.293	13.363
ProbeTrack7	33	ProbeTrack	1406	SCS215a	733725.454188	733725.454504	8	0.013327	60	10	60-180	60	94	GapPrac	1	3	3	0	0	distractor	1	906	13.328	13.179	13.511
ProbeTrack7	33	ProbeTrack	1406	SCS215a	733725.454188	733725.454574	8	0.013327	60	10	60-180	60	174	GapPrac	1	4	3	0	1	target	1	906	13.328	13.289	13.367
ProbeTrack7	33	ProbeTrack	1406	SCS215a	733725.454188	733725.454658	8	0.013327	60	10	60-180	60	86	GapPrac	1	5	3	0	0	distractor	1	520	13.328	13.293	13.363
ProbeTrack7	33	ProbeTrack	1406	SCS215a	733725.454188	733725.454724	8	0.013327	60	10	60-180	60	87	GapPrac	1	6	3	96	0	target	0	347	13.328	13.293	13.363
ProbeTrack7	33	ProbeTrack	1406	SCS215a	733725.454188	733725.454803	8	0.013327	60	10	60-180	60	126	GapPrac	1	7	3	0	1	distractor	0	387	13.328	13.293	13.363
ProbeTrack7	33	ProbeTrack	1406	SCS215a	733725.454188	733725.454872	8	0.013327	60	10	60-180	60	70	GapPrac	1	8	3	3	1	distractor	0	613	13.328	13.291	13.365
ProbeTrack7	33	ProbeTrack	1406	SCS215a	733725.454188	733725.454935	8	0.013327	60	10	60-180	60	166	GapPrac	1	9	3	3	0	distractor	1	560	13.328	13.293	13.363
ProbeTrack7	33	ProbeTrack	1406	SCS215a	733725.454188	733725.455014	8	0.013327	60	10	60-180	60	84	GapPrac	1	10	3	3	0	distractor	1	613	13.328	13.293	13.363
ProbeTrack7	33	ProbeTrack	1406	SCS215a	733725.454188	733725.455081	8	0.013327	60	10	60-180	60	81	GapPrac	1	11	3	0	0	distractor	1	493	13.328	13.293	13.363
ProbeTrack7	33	ProbeTrack	1406	SCS215a	733725.454188	733725.455145	8	0.013327	60	10	60-180	60	126	GapPrac	1	12	3	6	0	distractor	1	547	13.328	13.293	13.363
ProbeTrack7	33	ProbeTrack	1406	SCS215a	733725.454188	733725.455215	8	0.013327	60	10	60-180	60	167	GapPrac	1	13	3	96	1	distractor	0	720	13.328	13.293	13.363
ProbeTrack7	33	ProbeTrack	1406	SCS215a	733725.454188	733725.455308	8	0.013327	60	10	60-180	60	153	GapPrac	1	14	3	3	1	target	1	587	13.328	13.293	13.363
ProbeTrack7	33	ProbeTrack	1406	SCS215a	733725.454188	733725.455382	8	0.013327	60	10	60-180	60	80	GapPrac	1	15	3	6	0	distractor	1	453	13.328	13.290	13.363
ProbeTrack7	33	ProbeTrack	1406	SCS215a	733725.454188	733725.455444	8	0.013327	60	10	60-180	60	103	GapPrac	1	16	3	6	1	target	1	747	13.328	13.293	13.363
ProbeTrack7	33	ProbeTrack	1406	SCS215a	733725.454188	733725.455515	8	0.013327	60	10	60-180	60	115	GapPrac	1	17	3	6	1	target	1	627	13.328	13.289	13.363
ProbeTrack7	33	ProbeTrack	1406	SCS215a	733725.454188	733725.455586	8	0.013327	60	10	60-180	60	160	GapPrac	1	18	3	96	1	distractor	0	374	13.328	13.293	13.364
ProbeTrack7	33	ProbeTrack	1406	SCS215a	733725.454188	733725.455675	8	0.013327	60	10	60-180	60	146	GapPrac	1	19	3	0	1	target	1	427	13.328	13.293	13.363
ProbeTrack7	33	ProbeTrack	1406	SCS215a	733725.454188	733725.455745	8	0.013327	60	10	60-180	60	127	GapPrac	1	20	3	96	0	distractor	1	587	13.328	13.293	13.363
ProbeTrack7	33	ProbeTrack	1406	SCS215a	733725.456511	733725.456625	8	0.013328	60	10	60-180	60	163	GapExp	1	1	3	96	1	distractor	0	747	13.328	13.293	13.363
ProbeTrack7	33	ProbeTrack	1406	SCS215a	733725.456511	733725.456741	8	0.013328	60	10	60-180	60	77	GapExp	1	2	3	3	0	distractor	1	933	13.328	13.293	13.363
ProbeTrack7	33	ProbeTrack	1406	SCS215a	733725.456511	733725.456825	8	0.013328	60	10	60-180	60	167	GapExp	1	3	3	0	0	target	0	413	13.328	13.293	13.363
ProbeTrack7	33	ProbeTrack	1406	SCS215a	733725.456511	733725.456970	8	0.013328	60	10	60-180	60	93	GapExp	1	4	3	3	1	distractor	0	560	13.328	13.289	13.363
ProbeTrack7	33	ProbeTrack	1406	SCS215a	733725.456511	733725.457039	8	0.013328	60	10	60-180	60	126	GapExp	1	5	3	6	0	distractor	1	893	13.328	13.293	13.363
ProbeTrack7	33	ProbeTrack	1406	SCS215a	733725.456511	733725.457120	8	0.013328	60	10	60-180	60	138	GapExp	0	6	3	6	0	distractor	1	533	13.328	13.293	13.363
ProbeTrack7	33	ProbeTrack	1406	SCS215a	733725.456511	733725.457195	8	0.013328	60	10	60-180	60	165	GapExp	0	7	3	96	0	distractor	1	880	13.328	13.292	13.363
ProbeTrack7	33	ProbeTrack	1406	SCS215a	733725.456511	733725.457292	8	0.013328	60	10	60-180	60	128	GapExp	0	8	3	0	1	distractor	0	787	13.328	13.293	13.363
ProbeTrack7	33	ProbeTrack	1406	SCS215a	733725.456511	733725.457369	8	0.013328	60	10	60-180	60	135	GapExp	0	9	3	6	0	distractor	1	667	13.328	13.292	13.365
ProbeTrack7	33	ProbeTrack	1406	SCS215a	733725.456511	733725.457523	8	0.013328	60	10	60-180	60	178	GapExp	0	10	3	96	0	distractor	1	853	13.328	13.293	13.363
ProbeTrack7	33	ProbeTrack	1406	SCS215a	733725.456511	733725.457627	8	0.013328	60	10	60-180	60	72	GapExp	0	11	3	96	1	distractor	0	1186	13.328	13.292	13.364
ProbeTrack7	33	ProbeTrack	1406	SCS215a	733725.456511	733725.457720	8	0.013328	60	10	60-180	60	159	GapExp	0	12	3	0	0	distractor	1	840	13.328	13.292	13.363
ProbeTrack7	33	ProbeTrack	1406	SCS215a	733725.456511	733725.457800	8	0.013328	60	10	60-180	60	172	GapExp	0	13	3	6	1	target	1	907	13.328	13.293	13.363
ProbeTrack7	33	ProbeTrack	1406	SCS215a	733725.456511	733725.457886	8	0.013328	60	10	60-180	60	61	GapExp	0	14	3	96	0	distractor	1	813	13.328	13.293	13.363
ProbeTrack7	33	ProbeTrack	1406	SCS215a	733725.456511	733725.457966	8	0.013328	60	10	60-180	60	111	GapExp	0	15	3	6	1	target	1	840	13.328	13.293	13.363
ProbeTrack7	33	ProbeTrack	1406	SCS215a	733725.456511	733725.458202	8	0.013328	60	10	60-180	60	117	GapExp	0	16	3	0	1	target	1	667	13.328	13.293	13.363
ProbeTrack7	33	ProbeTrack	1406	SCS215a	733725.456511	733725.458278	8	0.013328	60	10	60-180	60	134	GapExp	0	17	3	96	1	target	1	973	13.328	13.292	13.364
ProbeTrack7	33	ProbeTrack	1406	SCS215a	733725.456511	733725.458408	8	0.013328	60	10	60-180	60	65	GapExp	0	18	3	96	0	target	0	547	13.328	13.291	13.363
ProbeTrack7	33	ProbeTrack	1406	SCS215a	733725.456511	733725.458491	8	0.013328	60	10	60-180	60	77	GapExp	0	19	3	6	0	target	0	667	13.328	13.293	13.363
ProbeTrack7	33	ProbeTrack	1406	SCS215a	733725.456511	733725.458574	8	0.013328	60	10	60-180	60	171	GapExp	0	20	3	3	1	distractor	0	400	13.328	13.292	13.363
ProbeTrack7	33	ProbeTrack	1406	SCS215a	733725.456511	733725.458648	8	0.013328	60	10	60-180	60	102	GapExp	0	21	3	0	1	target	1	680	13.328	13.293	13.363
ProbeTrack7	33	ProbeTrack	1406	SCS215a	733725.456511	733725.458716	8	0.013328	60	10	60-180	60	171	GapExp	0	22	3	3	0	distractor	1	813	13.328	13.293	13.363
ProbeTrack7	33	ProbeTrack	1406	SCS215a	733725.456511	733725.458803	8	0.013328	60	10	60-180	60	124	GapExp	0	23	3	6	1	target	1	493	13.328	13.293	13.363
ProbeTrack7	33	ProbeTrack	1406	SCS215a	733725.456511	733725.458874	8	0.013328	60	10	60-180	60	89	GapExp	0	24	3	3	1	89	-3	3879	13.328	13.293	13.363
ProbeTrack7	33	ProbeTrack	1406	SCS215a	733725.456511	733725.459216	8	0.013328	60	10	60-180	60	105	GapExp	0	25	3	0	0	target	0	693	13.328	13.293	13.363
ProbeTrack7	33	ProbeTrack	1406	SCS215a	733725.456511	733725.459296	8	0.013328	60	10	60-180	60	118	GapExp	0	26	3	3	1	target	1	733	13.328	13.293	13.363
ProbeTrack7	33	ProbeTrack	1406	SCS215a	733725.456511	733725.459370	8	0.013328	60	10	60-180	60	149	GapExp	0	27	3	96	0	distractor	1	707	13.328	13.293	13.363
ProbeTrack7	33	ProbeTrack	1406	SCS215a	733725.456511	733725.459460	8	0.013328	60	10	60-180	60	112	GapExp	0	28	3	6	0	distractor	1	640	13.328	13.293	13.363
ProbeTrack7	33	ProbeTrack	1406	SCS215a	733725.456511	733725.459532	8	0.013328	60	10	60-180	60	122	GapExp	0	29	3	96	0	distractor	1	707	13.328	13.293	13.363
ProbeTrack7	33	ProbeTrack	1406	SCS215a	733725.456511	733725.459625	8	0.013328	60	10	60-180	60	150	GapExp	0	30	3	0	1	target	1	867	13.328	13.293	13.363
ProbeTrack7	33	ProbeTrack	1406	SCS215a	733725.456511	733725.459707	8	0.013328	60	10	60-180	60	92	GapExp	0	31	3	3	1	distractor	0	680	13.328	13.293	13.363
ProbeTrack7	33	ProbeTrack	1406	SCS215a	733725.456511	733725.459777	8	0.013328	60	10	60-180	60	65	GapExp	0	32	3	3	1	distractor	0	667	13.328	13.293	13.363
ProbeTrack7	33	ProbeTrack	1406	SCS215a	733725.456511	733725.459842	8	0.013328	60	10	60-180	60	79	GapExp	0	33	3	6	0	target	0	374	13.328	13.292	13.363
ProbeTrack7	33	ProbeTrack	1406	SCS215a	733725.456511	733725.459904	8	0.013328	60	10	60-180	60	172	GapExp	0	34	3	0	1	target	1	560	13.328	13.293	13.363
ProbeTrack7	33	ProbeTrack	1406	SCS215a	733725.456511	733725.460092	8	0.013328	60	10	60-180	60	172	GapExp	0	35	3	0	0	target	0	1013	13.328	13.293	13.363
ProbeTrack7	33	ProbeTrack	1406	SCS215a	733725.456511	733725.460177	8	0.013328	60	10	60-180	60	141	GapExp	0	36	3	0	0	target	0	707	13.328	13.293	13.363
ProbeTrack7	33	ProbeTrack	1406	SCS215a	733725.456511	733725.460253	8	0.013328	60	10	60-180	60	175	GapExp	0	37	3	3	0	distractor	1	134	13.328	13.293	13.363
ProbeTrack7	33	ProbeTrack	1406	SCS215a	733725.456511	733725.460326	8	0.013328	60	10	60-180	60	105	GapExp	0	38	3	96	1	target	1	1280	13.328	13.293	13.363
ProbeTrack7	33	ProbeTrack	1406	SCS215a	733725.456511	733725.460420	8	0.013328	60	10	60-180	60	90	GapExp	0	39	3	0	1	target	1	880	13.328	13.293	13.363
ProbeTrack7	33	ProbeTrack	1406	SCS215a	733725.456511	733725.460490	8	0.013328	60	10	60-180	60	168	GapExp	0	40	3	3	1	distractor	0	827	13.328	13.293	13.363
ProbeTrack7	33	ProbeTrack	1406	SCS215a	733725.456511	733725.460572	8	0.013328	60	10	60-180	60	107	GapExp	0	41	3	96	1	distractor	0	387	13.328	13.293	13.363
ProbeTrack7	33	ProbeTrack	1406	SCS215a	733725.456511	733725.460652	8	0.013328	60	10	60-180	60	102	GapExp	0	42	3	3	1	target	1	667	13.328	13.293	13.363
ProbeTrack7	33	ProbeTrack	1406	SCS215a	733725.456511	733725.460723	8	0.013328	60	10	60-180	60	177	GapExp	0	43	3	6	1	distractor	0	560	13.328	13.289	13.363
ProbeTrack7	33	ProbeTrack	1406	SCS215a	733725.456511	733725.460806	8	0.013328	60	10	60-180	60	171	GapExp	0	44	3	96	1	target	1	827	13.328	13.293	13.363
ProbeTrack7	33	ProbeTrack	1406	SCS215a	733725.456511	733725.460900	8	0.013328	60	10	60-180	60	158	GapExp	0	45	3	0	0	distractor	1	720	13.328	13.292	13.363
ProbeTrack7	33	ProbeTrack	1406	SCS215a	733725.456511	733725.460979	8	0.013328	60	10	60-180	60	83	GapExp	0	46	3	0	1	target	1	493	13.328	13.293	13.363
ProbeTrack7	33	ProbeTrack	1406	SCS215a	733725.456511	733725.461052	8	0.013328	60	10	60-180	60	124	GapExp	0	47	3	96	0	target	0	573	13.328	13.293	13.363
ProbeTrack7	33	ProbeTrack	1406	SCS215a	733725.456511	733725.461142	8	0.013328	60	10	60-180	60	129	GapExp	0	48	3	3	1	target	1	493	13.328	13.293	13.363
ProbeTrack7	33	ProbeTrack	1406	SCS215a	733725.456511	733725.461227	8	0.013328	60	10	60-180	60	94	GapExp	0	49	3	6	0	distractor	1	573	13.328	13.293	13.364
ProbeTrack7	33	ProbeTrack	1406	SCS215a	733725.456511	733725.461294	8	0.013328	60	10	60-180	60	151	GapExp	0	50	3	0	0	distractor	1	827	13.328	13.293	13.363
ProbeTrack7	33	ProbeTrack	1406	SCS215a	733725.456511	733725.461390	8	0.013328	60	10	60-180	60	67	GapExp	0	51	3	0	1	target	1	680	13.328	13.293	13.363
ProbeTrack7	33	ProbeTrack	1406	SCS215a	733725.456511	733725.461455	8	0.013328	60	10	60-180	60	129	GapExp	0	52	3	0	1	target	1	467	13.328	13.292	13.363
ProbeTrack7	33	ProbeTrack	1406	SCS215a	733725.456511	733725.461529	8	0.013328	60	10	60-180	60	155	GapExp	0	53	3	96	0	target	0	480	13.328	13.292	13.363
ProbeTrack7	33	ProbeTrack	1406	SCS215a	733725.456511	733725.461619	8	0.013328	60	10	60-180	60	120	GapExp	0	54	3	6	1	target	1	334	13.328	13.292	13.363
ProbeTrack7	33	ProbeTrack	1406	SCS215a	733725.456511	733725.461683	8	0.013328	60	10	60-180	60	136	GapExp	0	55	3	96	1	target	1	480	13.328	13.292	13.363
ProbeTrack7	33	ProbeTrack	1406	SCS215a	733725.456511	733725.461768	8	0.013328	60	10	60-180	60	142	GapExp	0	56	3	96	0	target	0	520	13.328	13.293	13.363
ProbeTrack7	33	ProbeTrack	1406	SCS215a	733725.456511	733725.461855	8	0.013328	60	10	60-180	60	98	GapExp	0	57	3	0	0	distractor	1	360	13.328	13.293	13.366
ProbeTrack7	33	ProbeTrack	1406	SCS215a	733725.456511	733725.461918	8	0.013328	60	10	60-180	60	152	GapExp	0	58	3	3	0	distractor	1	667	13.328	13.293	13.363
ProbeTrack7	33	ProbeTrack	1406	SCS215a	733725.456511	733725.461993	8	0.013328	60	10	60-180	60	85	GapExp	0	59	3	6	1	distractor	0	813	13.328	13.292	13.363
ProbeTrack7	33	ProbeTrack	1406	SCS215a	733725.456511	733725.462063	8	0.013328	60	10	60-180	60	96	GapExp	0	60	3	6	1	target	1	1053	13.328	13.293	13.363
ProbeTrack7	33	ProbeTrack	1406	SCS215a	733725.456511	733725.462138	8	0.013328	60	10	60-180	60	61	GapExp	0	61	3	0	1	target	1	613	13.328	13.293	13.363
ProbeTrack7	33	ProbeTrack	1406	SCS215a	733725.456511	733725.462241	8	0.013328	60	10	60-180	60	174	GapExp	0	62	3	6	1	distractor	0	414	13.328	13.293	13.363
ProbeTrack7	33	ProbeTrack	1406	SCS215a	733725.456511	733725.462321	8	0.013328	60	10	60-180	60	136	GapExp	0	63	3	3	0	distractor	1	587	13.328	13.289	13.363
ProbeTrack7	33	ProbeTrack	1406	SCS215a	733725.456511	733725.462395	8	0.013328	60	10	60-180	60	162	GapExp	0	64	3	3	1	distractor	0	533	13.328	13.293	13.363
ProbeTrack7	33	ProbeTrack	1406	SCS215a	733725.456511	733725.462472	8	0.013328	60	10	60-180	60	94	GapExp	0	65	3	0	0	distractor	1	760	13.328	13.293	13.362
ProbeTrack7	33	ProbeTrack	1406	SCS215a	733725.456511	733725.462542	8	0.013328	60	10	60-180	60	69	GapExp	0	66	3	3	0	distractor	1	920	13.328	13.292	13.363
ProbeTrack7	33	ProbeTrack	1406	SCS215a	733725.456511	733725.462609	8	0.013328	60	10	60-180	60	90	GapExp	0	67	3	96	1	distractor	0	627	13.328	13.293	13.363
ProbeTrack7	33	ProbeTrack	1406	SCS215a	733725.456511	733725.462692	8	0.013328	60	10	60-180	60	173	GapExp	0	68	3	3	0	distractor	1	560	13.328	13.293	13.363
ProbeTrack7	33	ProbeTrack	1406	SCS215a	733725.456511	733725.462768	8	0.013328	60	10	60-180	60	133	GapExp	0	69	3	3	0	distractor	1	520	13.328	13.293	13.363
ProbeTrack7	33	ProbeTrack	1406	SCS215a	733725.456511	733725.462839	8	0.013328	60	10	60-180	60	61	GapExp	0	70	3	6	0	distractor	1	613	13.328	13.293	13.363
ProbeTrack7	33	ProbeTrack	1406	SCS215a	733725.456511	733725.462910	8	0.013328	60	10	60-180	60	138	GapExp	0	71	3	6	0	distractor	1	880	13.328	13.293	13.363
ProbeTrack7	33	ProbeTrack	1406	SCS215a	733725.456511	733725.462986	8	0.013328	60	10	60-180	60	88	GapExp	0	72	3	6	1	target	1	493	13.328	13.293	13.364
ProbeTrack7	33	ProbeTrack	1406	SCS215a	733725.456511	733725.463051	8	0.013328	60	10	60-180	60	153	GapExp	0	73	3	3	0	distractor	1	453	13.328	13.292	13.363
ProbeTrack7	33	ProbeTrack	1406	SCS215a	733725.456511	733725.463126	8	0.013328	60	10	60-180	60	79	GapExp	0	74	3	0	0	distractor	1	680	13.328	13.290	13.366
ProbeTrack7	33	ProbeTrack	1406	SCS215a	733725.456511	733725.463192	8	0.013328	60	10	60-180	60	124	GapExp	0	75	3	96	1	target	1	747	13.328	13.290	13.363
ProbeTrack7	33	ProbeTrack	1406	SCS215a	733725.456511	733725.463282	8	0.013328	60	10	60-180	60	161	GapExp	0	76	3	96	1	distractor	0	387	13.328	13.293	13.364
ProbeTrack7	33	ProbeTrack	1406	SCS215a	733725.456511	733725.463373	8	0.013328	60	10	60-180	60	113	GapExp	0	77	3	6	1	target	1	573	13.328	13.293	13.363
ProbeTrack7	33	ProbeTrack	1406	SCS215a	733725.456511	733725.463441	8	0.013328	60	10	60-180	60	76	GapExp	0	78	3	6	0	distractor	1	587	13.328	13.293	13.363
ProbeTrack7	33	ProbeTrack	1406	SCS215a	733725.456511	733725.463524	8	0.013328	60	10	60-180	60	103	GapExp	0	79	3	3	1	target	1	707	13.328	13.292	13.363
ProbeTrack7	33	ProbeTrack	1406	SCS215a	733725.456511	733725.463592	8	0.013328	60	10	60-180	60	169	GapExp	0	80	3	3	0	target	0	520	13.328	13.293	13.363
ProbeTrack7	33	ProbeTrack	1406	SCS215a	733725.456511	733725.463668	8	0.013328	60	10	60-180	60	131	GapExp	0	81	3	3	0	distractor	1	440	13.328	13.289	13.363
ProbeTrack7	33	ProbeTrack	1406	SCS215a	733725.456511	733725.463750	8	0.013328	60	10	60-180	60	71	GapExp	0	82	3	0	0	target	0	760	13.328	13.291	13.363
ProbeTrack7	33	ProbeTrack	1406	SCS215a	733725.456511	733725.463814	8	0.013328	60	10	60-180	60	71	GapExp	0	83	3	3	1	distractor	0	453	13.328	13.293	13.363
ProbeTrack7	33	ProbeTrack	1406	SCS215a	733725.456511	733725.463873	8	0.013328	60	10	60-180	60	65	GapExp	0	84	3	0	1	target	1	520	13.328	13.289	13.363
ProbeTrack7	33	ProbeTrack	1406	SCS215a	733725.456511	733725.463935	8	0.013328	60	10	60-180	60	85	GapExp	0	85	3	3	1	target	1	454	13.328	13.293	13.363
ProbeTrack7	33	ProbeTrack	1406	SCS215a	733725.456511	733725.463997	8	0.013328	60	10	60-180	60	113	GapExp	0	86	3	3	1	target	1	374	13.328	13.293	13.363
ProbeTrack7	33	ProbeTrack	1406	SCS215a	733725.456511	733725.464065	8	0.013328	60	10	60-180	60	136	GapExp	0	87	3	0	1	target	1	533	13.328	13.293	13.363
ProbeTrack7	33	ProbeTrack	1406	SCS215a	733725.456511	733725.464137	8	0.013328	60	10	60-180	60	113	GapExp	0	88	3	96	0	target	0	680	13.328	13.289	13.363
ProbeTrack7	33	ProbeTrack	1406	SCS215a	733725.456511	733725.464219	8	0.013328	60	10	60-180	60	90	GapExp	0	89	3	96	1	target	1	467	13.328	13.293	13.363
ProbeTrack7	33	ProbeTrack	1406	SCS215a	733725.456511	733725.464299	8	0.013328	60	10	60-180	60	131	GapExp	0	90	3	6	1	target	1	507	13.328	13.290	13.363
ProbeTrack7	33	ProbeTrack	1406	SCS215a	733725.456511	733725.464368	8	0.013328	60	10	60-180	60	141	GapExp	0	91	3	96	1	target	1	440	13.328	13.293	13.363
ProbeTrack7	33	ProbeTrack	1406	SCS215a	733725.456511	733725.464453	8	0.013328	60	10	60-180	60	105	GapExp	0	92	3	3	0	distractor	1	547	13.328	13.293	13.363
ProbeTrack7	33	ProbeTrack	1406	SCS215a	733725.456511	733725.464523	8	0.013328	60	10	60-180	60	154	GapExp	0	93	3	0	0	distractor	1	760	13.328	13.293	13.363
ProbeTrack7	33	ProbeTrack	1406	SCS215a	733725.456511	733725.464601	8	0.013328	60	10	60-180	60	158	GapExp	0	94	3	3	0	target	0	427	13.328	13.293	13.363
ProbeTrack7	33	ProbeTrack	1406	SCS215a	733725.456511	733725.464687	8	0.013328	60	10	60-180	60	136	GapExp	0	95	3	0	0	distractor	1	600	13.328	13.293	13.363
ProbeTrack7	33	ProbeTrack	1406	SCS215a	733725.456511	733725.464763	8	0.013328	60	10	60-180	60	158	GapExp	0	96	3	6	1	target	1	574	13.328	13.293	13.369
ProbeTrack7	33	ProbeTrack	1406	SCS215a	733725.456511	733725.464839	8	0.013328	60	10	60-180	60	112	GapExp	0	97	3	96	1	target	1	653	13.328	13.292	13.363
ProbeTrack7	33	ProbeTrack	1406	SCS215a	733725.456511	733725.464922	8	0.013328	60	10	60-180	60	135	GapExp	0	98	3	96	0	target	0	374	13.328	13.293	13.363
ProbeTrack7	33	ProbeTrack	1406	SCS215a	733725.456511	733725.465009	8	0.013328	60	10	60-180	60	120	GapExp	0	99	3	6	1	target	1	307	13.328	13.293	13.363
ProbeTrack7	33	ProbeTrack	1406	SCS215a	733725.456511	733725.465106	8	0.013328	60	10	60-180	60	171	GapExp	0	100	3	3	0	target	0	493	13.328	13.293	13.364
ProbeTrack7	33	ProbeTrack	1406	SCS215a	733725.456511	733725.465186	8	0.013328	60	10	60-180	60	153	GapExp	0	101	3	96	1	target	1	587	13.328	13.293	13.363
ProbeTrack7	33	ProbeTrack	1406	SCS215a	733725.456511	733725.465304	8	0.013328	60	10	60-180	60	105	GapExp	0	102	3	6	0	distractor	1	867	13.328	13.292	13.366
ProbeTrack7	33	ProbeTrack	1406	SCS215a	733725.456511	733725.465377	8	0.013328	60	10	60-180	60	83	GapExp	0	103	3	6	0	distractor	1	613	13.328	13.293	13.363
ProbeTrack7	33	ProbeTrack	1406	SCS215a	733725.456511	733725.465442	8	0.013328	60	10	60-180	60	61	GapExp	0	104	3	96	0	target	0	440	13.328	13.293	13.363
ProbeTrack7	33	ProbeTrack	1406	SCS215a	733725.456511	733725.465515	8	0.013328	60	10	60-180	60	109	GapExp	0	105	3	96	1	target	1	507	13.328	13.292	13.363
ProbeTrack7	33	ProbeTrack	1406	SCS215a	733725.456511	733725.465600	8	0.013328	60	10	60-180	60	98	GapExp	0	106	3	0	0	target	0	600	13.328	13.292	13.363
ProbeTrack7	33	ProbeTrack	1406	SCS215a	733725.456511	733725.465670	8	0.013328	60	10	60-180	60	143	GapExp	0	107	3	0	0	target	0	1346	13.328	13.293	13.363
ProbeTrack7	33	ProbeTrack	1406	SCS215a	733725.456511	733725.465755	8	0.013328	60	10	60-180	60	175	GapExp	0	108	3	3	0	distractor	1	134	13.328	13.293	13.363
ProbeTrack7	33	ProbeTrack	1406	SCS215a	733725.456511	733725.465835	8	0.013328	60	10	60-180	60	96	GapExp	0	109	3	0	1	distractor	0	347	13.328	13.293	13.363
ProbeTrack7	33	ProbeTrack	1406	SCS215a	733725.456511	733725.465899	8	0.013328	60	10	60-180	60	113	GapExp	0	110	3	96	0	target	0	573	13.328	13.293	13.363
ProbeTrack7	33	ProbeTrack	1406	SCS215a	733725.456511	733725.465987	8	0.013328	60	10	60-180	60	160	GapExp	0	111	3	3	0	target	0	520	13.328	13.293	13.363
ProbeTrack7	33	ProbeTrack	1406	SCS215a	733725.456511	733725.466062	8	0.013328	60	10	60-180	60	175	GapExp	0	112	3	6	0	distractor	1	707	13.328	13.291	13.363
ProbeTrack7	33	ProbeTrack	1406	SCS215a	733725.456511	733725.466144	8	0.013328	60	10	60-180	60	177	GapExp	0	113	3	6	1	target	1	814	13.328	13.293	13.363
ProbeTrack7	33	ProbeTrack	1406	SCS215a	733725.456511	733725.466225	8	0.013328	60	10	60-180	60	124	GapExp	0	114	3	96	1	target	1	320	13.328	13.293	13.363
ProbeTrack7	33	ProbeTrack	1406	SCS215a	733725.456511	733725.466321	8	0.013328	60	10	60-180	60	72	GapExp	0	115	3	96	0	distractor	1	467	13.328	13.293	13.363
ProbeTrack7	33	ProbeTrack	1406	SCS215a	733725.456511	733725.466397	8	0.013328	60	10	60-180	60	159	GapExp	0	116	3	6	0	target	0	440	13.328	13.293	13.363
ProbeTrack7	33	ProbeTrack	1406	SCS215a	733725.456511	733725.466471	8	0.013328	60	10	60-180	60	65	GapExp	0	117	3	3	1	distractor	0	587	13.328	13.293	13.363
ProbeTrack7	33	ProbeTrack	1406	SCS215a	733725.456511	733725.466532	8	0.013328	60	10	60-180	60	75	GapExp	0	118	3	6	0	target	0	1240	13.328	13.293	13.363
ProbeTrack7	33	ProbeTrack	1406	SCS215a	733725.456511	733725.466601	8	0.013328	60	10	60-180	60	180	GapExp	0	119	3	6	1	target	1	413	13.328	13.293	13.363
ProbeTrack7	33	ProbeTrack	1406	SCS215a	733725.456511	733725.466681	8	0.013328	60	10	60-180	60	87	GapExp	0	120	3	0	1	target	1	600	13.328	13.293	13.363
ProbeTrack7	33	ProbeTrack	1406	SCS215a	733725.456511	733725.466747	8	0.013328	60	10	60-180	60	90	GapExp	0	121	3	0	1	target	1	453	13.328	13.293	13.363
ProbeTrack7	33	ProbeTrack	1406	SCS215a	733725.456511	733725.466809	8	0.013328	60	10	60-180	60	91	GapExp	0	122	3	3	1	target	1	294	13.328	13.293	13.364
ProbeTrack7	33	ProbeTrack	1406	SCS215a	733725.456511	733725.466871	8	0.013328	60	10	60-180	60	119	GapExp	0	123	3	96	0	target	0	320	13.328	13.293	13.363
ProbeTrack7	33	ProbeTrack	1406	SCS215a	733725.456511	733725.466951	8	0.013328	60	10	60-180	60	128	GapExp	0	124	3	6	0	target	0	427	13.328	13.293	13.363
ProbeTrack7	33	ProbeTrack	1406	SCS215a	733725.456511	733725.467022	8	0.013328	60	10	60-180	60	152	GapExp	0	125	3	0	0	target	0	493	13.328	13.292	13.363
ProbeTrack7	33	ProbeTrack	1406	SCS215a	733725.467805	733725.467877	8	0.013327	60	10	60-180	60	173	GapPrac	1	1	4	3	0	target	0	240	13.328	13.293	13.363
ProbeTrack7	33	ProbeTrack	1406	SCS215a	733725.467805	733725.467986	8	0.013327	60	10	60-180	60	107	GapPrac	1	2	4	6	1	target	1	467	13.328	13.293	13.363
ProbeTrack7	33	ProbeTrack	1406	SCS215a	733725.467805	733725.468056	8	0.013327	60	10	60-180	60	65	GapPrac	1	3	4	6	0	target	0	454	13.328	13.293	13.363
ProbeTrack7	33	ProbeTrack	1406	SCS215a	733725.467805	733725.468115	8	0.013327	60	10	60-180	60	102	GapPrac	1	4	4	96	1	target	1	387	13.328	13.293	13.363
ProbeTrack7	33	ProbeTrack	1406	SCS215a	733725.467805	733725.468201	8	0.013327	60	10	60-180	60	67	GapPrac	1	5	4	96	0	target	0	387	13.328	13.293	13.363
ProbeTrack7	33	ProbeTrack	1406	SCS215a	733725.467805	733725.468277	8	0.013327	60	10	60-180	60	70	GapPrac	1	6	4	3	0	target	0	320	13.328	13.293	13.363
ProbeTrack7	33	ProbeTrack	1406	SCS215a	733725.467805	733725.468348	8	0.013327	60	10	60-180	60	140	GapPrac	1	7	4	3	0	distractor	1	373	13.328	13.292	13.363
ProbeTrack7	33	ProbeTrack	1406	SCS215a	733725.467805	733725.468426	8	0.013327	60	10	60-180	60	159	GapPrac	1	8	4	6	0	target	0	360	13.328	13.293	13.363
ProbeTrack7	33	ProbeTrack	1406	SCS215a	733725.467805	733725.468502	8	0.013327	60	10	60-180	60	157	GapPrac	1	9	4	0	1	distractor	0	240	13.328	13.293	13.369
ProbeTrack7	33	ProbeTrack	1406	SCS215a	733725.467805	733725.468578	8	0.013327	60	10	60-180	60	133	GapPrac	1	10	4	0	1	target	1	-13	13.328	13.291	13.363
ProbeTrack7	33	ProbeTrack	1406	SCS215a	733725.467805	733725.468643	8	0.013327	60	10	60-180	60	96	GapPrac	1	11	4	6	1	target	1	374	13.328	13.293	13.363
ProbeTrack7	33	ProbeTrack	1406	SCS215a	733725.467805	733725.468715	8	0.013327	60	10	60-180	60	175	GapPrac	1	12	4	96	0	target	0	453	13.328	13.293	13.363
ProbeTrack7	33	ProbeTrack	1406	SCS215a	733725.467805	733725.468809	8	0.013327	60	10	60-180	60	165	GapPrac	1	13	4	0	0	distractor	1	1093	13.328	13.293	13.363
ProbeTrack7	33	ProbeTrack	1406	SCS215a	733725.467805	733725.468892	8	0.013327	60	10	60-180	60	86	GapPrac	1	14	4	3	1	distractor	0	946	13.328	13.293	13.363
ProbeTrack7	33	ProbeTrack	1406	SCS215a	733725.467805	733725.468964	8	0.013327	60	10	60-180	60	80	GapPrac	1	15	4	6	1	target	1	334	13.328	13.289	13.363
ProbeTrack7	33	ProbeTrack	1406	SCS215a	733725.467805	733725.469027	8	0.013327	60	10	60-180	60	143	GapPrac	1	16	4	0	0	target	0	160	13.328	13.293	13.363
ProbeTrack7	33	ProbeTrack	1406	SCS215a	733725.467805	733725.469096	8	0.013327	60	10	60-180	60	123	GapPrac	1	17	4	96	1	distractor	0	240	13.328	13.290	13.364
ProbeTrack7	33	ProbeTrack	1406	SCS215a	733725.467805	733725.469197	8	0.013327	60	10	60-180	60	89	GapPrac	1	18	4	3	1	distractor	0	467	13.328	13.293	13.366
ProbeTrack7	33	ProbeTrack	1406	SCS215a	733725.467805	733725.469280	8	0.013327	60	10	60-180	60	114	GapPrac	1	19	4	96	1	distractor	0	320	13.328	13.293	13.363
ProbeTrack7	33	ProbeTrack	1406	SCS215a	733725.467805	733725.469362	8	0.013327	60	10	60-180	60	68	GapPrac	1	20	4	6	0	target	0	-13	13.328	13.293	13.363
ProbeTrack7	33	ProbeTrack	1406	SCS215a	733725.470355	733725.470423	8	0.013327	60	10	60-180	60	106	GapPrac	1	1	4	0	1	distractor	0	400	13.328	13.292	13.363
ProbeTrack7	33	ProbeTrack	1406	SCS215a	733725.470355	733725.470503	8	0.013327	60	10	60-180	60	111	GapPrac	1	2	4	96	1	target	1	720	13.328	13.293	13.363
ProbeTrack7	33	ProbeTrack	1406	SCS215a	733725.470355	733725.470588	8	0.013327	60	10	60-180	60	151	GapPrac	1	3	4	96	0	target	0	560	13.328	13.293	13.363
ProbeTrack7	33	ProbeTrack	1406	SCS215a	733725.470355	733725.470680	8	0.013327	60	10	60-180	60	168	GapPrac	1	4	4	3	1	target	1	507	13.328	13.293	13.363
ProbeTrack7	33	ProbeTrack	1406	SCS215a	733725.470355	733725.470755	8	0.013327	60	10	60-180	60	94	GapPrac	1	5	4	96	0	target	0	414	13.328	13.293	13.378
ProbeTrack7	33	ProbeTrack	1406	SCS215a	733725.470355	733725.470833	8	0.013327	60	10	60-180	60	172	GapPrac	1	6	4	96	1	target	1	493	13.328	13.293	13.363
ProbeTrack7	33	ProbeTrack	1406	SCS215a	733725.470355	733725.470924	8	0.013327	60	10	60-180	60	122	GapPrac	1	7	4	6	1	target	1	360	13.328	13.293	13.363
ProbeTrack7	33	ProbeTrack	1406	SCS215a	733725.470355	733725.470992	8	0.013327	60	10	60-180	60	133	GapPrac	1	8	4	0	0	target	0	533	13.328	13.292	13.363
ProbeTrack7	33	ProbeTrack	1406	SCS215a	733725.470355	733725.471062	8	0.013327	60	10	60-180	60	107	GapPrac	1	9	4	3	0	target	0	387	13.328	13.293	13.363
ProbeTrack7	33	ProbeTrack	1406	SCS215a	733725.470355	733725.471133	8	0.013327	60	10	60-180	60	98	GapPrac	1	10	4	6	0	target	0	480	13.328	13.293	13.363
ProbeTrack7	33	ProbeTrack	1406	SCS215a	733725.470355	733725.471198	8	0.013327	60	10	60-180	60	149	GapPrac	1	11	4	6	0	distractor	1	733	13.328	13.293	13.363
ProbeTrack7	33	ProbeTrack	1406	SCS215a	733725.470355	733725.471273	8	0.013327	60	10	60-180	60	61	GapPrac	1	12	4	3	1	distractor	0	587	13.328	13.293	13.363
ProbeTrack7	33	ProbeTrack	1406	SCS215a	733725.470355	733725.471334	8	0.013327	60	10	60-180	60	83	GapPrac	1	13	4	0	0	distractor	1	640	13.328	13.293	13.366
ProbeTrack7	33	ProbeTrack	1406	SCS215a	733725.470355	733725.471400	8	0.013327	60	10	60-180	60	119	GapPrac	1	14	4	96	0	distractor	1	373	13.328	13.292	13.363
ProbeTrack7	33	ProbeTrack	1406	SCS215a	733725.470355	733725.471487	8	0.013327	60	10	60-180	60	107	GapPrac	1	15	4	3	1	distractor	0	627	13.328	13.293	13.366
ProbeTrack7	33	ProbeTrack	1406	SCS215a	733725.470355	733725.471557	8	0.013327	60	10	60-180	60	73	GapPrac	1	16	4	6	1	distractor	0	613	13.328	13.293	13.363
ProbeTrack7	33	ProbeTrack	1406	SCS215a	733725.470355	733725.471621	8	0.013327	60	10	60-180	60	76	GapPrac	1	17	4	0	1	distractor	0	640	13.328	13.292	13.363
ProbeTrack7	33	ProbeTrack	1406	SCS215a	733725.470355	733725.471688	8	0.013327	60	10	60-180	60	103	GapPrac	1	18	4	3	0	target	0	373	13.328	13.293	13.363
ProbeTrack7	33	ProbeTrack	1406	SCS215a	733725.470355	733725.471753	8	0.013327	60	10	60-180	60	144	GapPrac	1	19	4	96	1	distractor	0	547	13.328	13.293	13.363
ProbeTrack7	33	ProbeTrack	1406	SCS215a	733725.470355	733725.471840	8	0.013327	60	10	60-180	60	117	GapPrac	1	20	4	0	1	target	1	720	13.328	13.293	13.363
ProbeTrack7	33	ProbeTrack	1406	SCS215a	733725.473166	733725.473227	8	0.013327	60	10	60-180	60	154	GapPrac	1	1	4	96	1	distractor	0	600	13.328	13.293	13.363
ProbeTrack7	33	ProbeTrack	1406	SCS215a	733725.473166	733725.473341	8	0.013327	60	10	60-180	60	159	GapPrac	1	2	4	0	1	distractor	0	547	13.328	13.289	13.363
ProbeTrack7	33	ProbeTrack	1406	SCS215a	733725.473166	733725.473415	8	0.013327	60	10	60-180	60	91	GapPrac	1	3	4	3	1	distractor	0	214	13.328	13.293	13.363
ProbeTrack7	33	ProbeTrack	1406	SCS215a	733725.473166	733725.473478	8	0.013327	60	10	60-180	60	94	GapPrac	1	4	4	3	0	target	0	547	13.328	13.289	13.367
ProbeTrack7	33	ProbeTrack	1406	SCS215a	733725.473166	733725.473542	8	0.013327	60	10	60-180	60	138	GapPrac	1	5	4	96	1	target	1	467	13.328	13.293	13.364
ProbeTrack7	33	ProbeTrack	1406	SCS215a	733725.473166	733725.473630	8	0.013327	60	10	60-180	60	99	GapPrac	1	6	4	0	1	distractor	0	600	13.328	13.292	13.364
ProbeTrack7	33	ProbeTrack	1406	SCS215a	733725.473166	733725.473698	8	0.013327	60	10	60-180	60	172	GapPrac	1	7	4	3	0	distractor	1	533	13.328	13.293	13.366
ProbeTrack7	33	ProbeTrack	1406	SCS215a	733725.473166	733725.473778	8	0.013327	60	10	60-180	60	179	GapPrac	1	8	4	3	1	target	1	440	13.328	13.293	13.363
ProbeTrack7	33	ProbeTrack	1406	SCS215a	733725.473166	733725.473858	8	0.013327	60	10	60-180	60	175	GapPrac	1	9	4	96	0	target	0	613	13.328	13.293	13.363
ProbeTrack7	33	ProbeTrack	1406	SCS215a	733725.473166	733725.473950	8	0.013327	60	10	60-180	60	114	GapPrac	1	10	4	0	0	distractor	1	533	13.328	13.293	13.363
ProbeTrack7	33	ProbeTrack	1406	SCS215a	733725.473166	733725.474017	8	0.013327	60	10	60-180	60	179	GapPrac	1	11	4	3	1	target	1	520	13.328	13.293	13.366
ProbeTrack7	33	ProbeTrack	1406	SCS215a	733725.473166	733725.474094	8	0.013327	60	10	60-180	60	144	GapPrac	1	12	4	6	0	distractor	1	520	13.328	13.289	13.363
ProbeTrack7	33	ProbeTrack	1406	SCS215a	733725.473166	733725.474166	8	0.013327	60	10	60-180	60	86	GapPrac	1	13	4	0	0	target	0	440	13.328	13.290	13.363
ProbeTrack7	33	ProbeTrack	1406	SCS215a	733725.473166	733725.474228	8	0.013327	60	10	60-180	60	165	GapPrac	1	14	4	6	0	distractor	1	667	13.328	13.293	13.363
ProbeTrack7	33	ProbeTrack	1406	SCS215a	733725.473166	733725.474306	8	0.013327	60	10	60-180	60	142	GapPrac	1	15	4	96	0	distractor	1	813	13.328	13.293	13.363
ProbeTrack7	33	ProbeTrack	1406	SCS215a	733725.473166	733725.474398	8	0.013327	60	10	60-180	60	106	GapPrac	1	16	4	6	1	target	1	533	13.328	13.293	13.363
ProbeTrack7	33	ProbeTrack	1406	SCS215a	733725.473166	733725.474464	8	0.013327	60	10	60-180	60	133	GapPrac	1	17	4	0	1	target	1	587	13.328	13.293	13.363
ProbeTrack7	33	ProbeTrack	1406	SCS215a	733725.473166	733725.474537	8	0.013327	60	10	60-180	60	138	GapPrac	1	18	4	96	1	distractor	0	693	13.328	13.293	13.363
ProbeTrack7	33	ProbeTrack	1406	SCS215a	733725.473166	733725.474624	8	0.013327	60	10	60-180	60	148	GapPrac	1	19	4	6	1	target	1	693	13.328	13.293	13.363
ProbeTrack7	33	ProbeTrack	1406	SCS215a	733725.473166	733725.474700	8	0.013327	60	10	60-180	60	116	GapPrac	1	20	4	3	0	target	0	787	13.328	13.293	13.363
ProbeTrack7	33	ProbeTrack	1406	SCS215a	733725.475713	733725.475782	8	0.013325	60	10	60-180	60	146	GapExp	1	1	4	96	1	target	1	533	13.328	13.293	13.363
ProbeTrack7	33	ProbeTrack	1406	SCS215a	733725.475713	733725.475898	8	0.013325	60	10	60-180	60	62	GapExp	1	2	4	0	1	distractor	0	653	13.328	13.293	13.363
ProbeTrack7	33	ProbeTrack	1406	SCS215a	733725.475713	733725.475961	8	0.013325	60	10	60-180	60	157	GapExp	1	3	4	3	0	distractor	1	547	13.328	13.293	13.363
ProbeTrack7	33	ProbeTrack	1406	SCS215a	733725.475713	733725.476055	8	0.013325	60	10	60-180	60	131	GapExp	1	4	4	96	0	target	0	347	13.328	13.293	13.363
ProbeTrack7	33	ProbeTrack	1406	SCS215a	733725.475713	733725.476138	8	0.013325	60	10	60-180	60	80	GapExp	1	5	4	6	0	distractor	1	427	13.328	13.293	13.363
ProbeTrack7	33	ProbeTrack	1406	SCS215a	733725.475713	733725.476200	8	0.013325	60	10	60-180	60	116	GapExp	0	6	4	96	0	target	0	427	13.328	13.292	13.363
ProbeTrack7	33	ProbeTrack	1406	SCS215a	733725.475713	733725.476281	8	0.013325	60	10	60-180	60	134	GapExp	0	7	4	6	1	distractor	0	360	13.328	13.293	13.363
ProbeTrack7	33	ProbeTrack	1406	SCS215a	733725.475713	733725.476348	8	0.013325	60	10	60-180	60	123	GapExp	0	8	4	96	1	target	1	480	13.328	13.293	13.363
ProbeTrack7	33	ProbeTrack	1406	SCS215a	733725.475713	733725.476433	8	0.013325	60	10	60-180	60	102	GapExp	0	9	4	6	0	target	0	387	13.328	13.293	13.363
ProbeTrack7	33	ProbeTrack	1406	SCS215a	733725.475713	733725.476499	8	0.013325	60	10	60-180	60	79	GapExp	0	10	4	0	0	distractor	1	600	13.328	13.293	13.363
ProbeTrack7	33	ProbeTrack	1406	SCS215a	733725.475713	733725.476568	8	0.013325	60	10	60-180	60	110	GapExp	0	11	4	3	1	target	1	334	13.328	13.293	13.363
ProbeTrack7	33	ProbeTrack	1406	SCS215a	733725.475713	733725.476638	8	0.013325	60	10	60-180	60	70	GapExp	0	12	4	6	1	target	1	600	13.328	13.293	13.363
ProbeTrack7	33	ProbeTrack	1406	SCS215a	733725.475713	733725.476700	8	0.013325	60	10	60-180	60	85	GapExp	0	13	4	96	0	target	0	360	13.328	13.293	13.363
ProbeTrack7	33	ProbeTrack	1406	SCS215a	733725.475713	733725.476777	8	0.013325	60	10	60-180	60	113	GapExp	0	14	4	0	0	distractor	1	480	13.328	13.293	13.363
ProbeTrack7	33	ProbeTrack	1406	SCS215a	733725.475713	733725.476846	8	0.013325	60	10	60-180	60	146	GapExp	0	15	4	3	0	distractor	1	707	13.328	13.293	13.366
ProbeTrack7	33	ProbeTrack	1406	SCS215a	733725.475713	733725.476922	8	0.013325	60	10	60-180	60	170	GapExp	0	16	4	0	0	distractor	1	560	13.328	13.293	13.363
ProbeTrack7	33	ProbeTrack	1406	SCS215a	733725.475713	733725.476999	8	0.013325	60	10	60-180	60	107	GapExp	0	17	4	3	0	target	0	80	13.328	13.293	13.362
ProbeTrack7	33	ProbeTrack	1406	SCS215a	733725.475713	733725.477061	8	0.013325	60	10	60-180	60	71	GapExp	0	18	4	96	0	distractor	1	600	13.328	13.293	13.363
ProbeTrack7	33	ProbeTrack	1406	SCS215a	733725.475713	733725.477137	8	0.013325	60	10	60-180	60	136	GapExp	0	19	4	96	0	target	0	467	13.328	13.293	13.363
ProbeTrack7	33	ProbeTrack	1406	SCS215a	733725.475713	733725.477225	8	0.013325	60	10	60-180	60	104	GapExp	0	20	4	0	0	distractor	1	653	13.328	13.293	13.363
ProbeTrack7	33	ProbeTrack	1406	SCS215a	733725.475713	733725.477294	8	0.013325	60	10	60-180	60	66	GapExp	0	21	4	3	0	distractor	1	640	13.328	13.293	13.363
ProbeTrack7	33	ProbeTrack	1406	SCS215a	733725.475713	733725.477357	8	0.013325	60	10	60-180	60	171	GapExp	0	22	4	3	0	distractor	1	440	13.328	13.293	13.366
ProbeTrack7	33	ProbeTrack	1406	SCS215a	733725.475713	733725.477432	8	0.013325	60	10	60-180	60	171	GapExp	0	23	4	0	1	target	1	560	13.328	13.293	13.367
ProbeTrack7	33	ProbeTrack	1406	SCS215a	733725.475713	733725.477513	8	0.013325	60	10	60-180	60	160	GapExp	0	24	4	3	1	distractor	0	693	13.328	13.293	13.363
ProbeTrack7	33	ProbeTrack	1406	SCS215a	733725.475713	733725.477592	8	0.013325	60	10	60-180	60	119	GapExp	0	25	4	6	1	target	1	720	13.328	13.293	13.364
ProbeTrack7	33	ProbeTrack	1406	SCS215a	733725.475713	733725.477667	8	0.013325	60	10	60-180	60	170	GapExp	0	26	4	6	1	target	1	533	13.328	13.289	13.363
ProbeTrack7	33	ProbeTrack	1406	SCS215a	733725.475713	733725.477783	8	0.013325	60	10	60-180	60	143	GapExp	0	27	4	3	1	target	1	573	13.328	13.289	13.363
ProbeTrack7	33	ProbeTrack	1406	SCS215a	733725.475713	733725.477857	8	0.013325	60	10	60-180	60	156	GapExp	0	28	4	6	0	distractor	1	560	13.328	13.290	13.363
ProbeTrack7	33	ProbeTrack	1406	SCS215a	733725.475713	733725.477933	8	0.013325	60	10	60-180	60	162	GapExp	0	29	4	96	0	target	0	507	13.328	13.293	13.363
ProbeTrack7	33	ProbeTrack	1406	SCS215a	733725.475713	733725.478021	8	0.013325	60	10	60-180	60	69	GapExp	0	30	4	6	1	target	1	440	13.328	13.293	13.363
ProbeTrack7	33	ProbeTrack	1406	SCS215a	733725.475713	733725.478080	8	0.013325	60	10	60-180	60	148	GapExp	0	31	4	6	0	target	0	400	13.328	13.293	13.363
ProbeTrack7	33	ProbeTrack	1406	SCS215a	733725.475713	733725.478154	8	0.013325	60	10	60-180	60	150	GapExp	0	32	4	3	0	distractor	1	640	13.328	13.289	13.363
ProbeTrack7	33	ProbeTrack	1406	SCS215a	733725.475713	733725.478230	8	0.013325	60	10	60-180	60	91	GapExp	0	33	4	0	0	target	0	547	13.328	13.292	13.363
ProbeTrack7	33	ProbeTrack	1406	SCS215a	733725.475713	733725.478294	8	0.013325	60	10	60-180	60	103	GapExp	0	34	4	3	1	target	1	480	13.328	13.290	13.365
ProbeTrack7	33	ProbeTrack	1406	SCS215a	733725.475713	733725.478364	8	0.013325	60	10	60-180	60	167	GapExp	0	35	4	0	1	target	1	560	13.328	13.289	13.363
ProbeTrack7	33	ProbeTrack	1406	SCS215a	733725.475713	733725.478439	8	0.013325	60	10	60-180	60	123	GapExp	0	36	4	3	0	target	0	573	13.328	13.293	13.363
ProbeTrack7	33	ProbeTrack	1406	SCS215a	733725.475713	733725.478517	8	0.013325	60	10	60-180	60	92	GapExp	0	37	4	6	0	target	0	440	13.328	13.292	13.363
ProbeTrack7	33	ProbeTrack	1406	SCS215a	733725.475713	733725.478582	8	0.013325	60	10	60-180	60	133	GapExp	0	38	4	3	0	distractor	1	733	13.328	13.293	13.363
ProbeTrack7	33	ProbeTrack	1406	SCS215a	733725.475713	733725.478656	8	0.013325	60	10	60-180	60	142	GapExp	0	39	4	96	1	target	1	507	13.328	13.293	13.363
ProbeTrack7	33	ProbeTrack	1406	SCS215a	733725.475713	733725.478743	8	0.013325	60	10	60-180	60	158	GapExp	0	40	4	3	1	target	1	600	13.328	13.292	13.363
ProbeTrack7	33	ProbeTrack	1406	SCS215a	733725.475713	733725.478818	8	0.013325	60	10	60-180	60	177	GapExp	0	41	4	96	1	target	1	667	13.328	13.292	13.366
ProbeTrack7	33	ProbeTrack	1406	SCS215a	733725.475713	733725.478911	8	0.013325	60	10	60-180	60	105	GapExp	0	42	4	6	1	target	1	893	13.328	13.293	13.363
ProbeTrack7	33	ProbeTrack	1406	SCS215a	733725.475713	733725.478980	8	0.013325	60	10	60-180	60	104	GapExp	0	43	4	3	0	distractor	1	533	13.328	13.289	13.363
ProbeTrack7	33	ProbeTrack	1406	SCS215a	733725.475713	733725.479048	8	0.013325	60	10	60-180	60	87	GapExp	0	44	4	96	1	target	1	573	13.328	13.293	13.363
ProbeTrack7	33	ProbeTrack	1406	SCS215a	733725.475713	733725.479126	8	0.013325	60	10	60-180	60	132	GapExp	0	45	4	3	0	distractor	1	440	13.328	13.292	13.363
ProbeTrack7	33	ProbeTrack	1406	SCS215a	733725.475713	733725.479197	8	0.013325	60	10	60-180	60	169	GapExp	0	46	4	96	0	target	0	600	13.328	13.291	13.363
ProbeTrack7	33	ProbeTrack	1406	SCS215a	733725.475713	733725.479292	8	0.013325	60	10	60-180	60	61	GapExp	0	47	4	6	0	distractor	1	653	13.328	13.293	13.363
ProbeTrack7	33	ProbeTrack	1406	SCS215a	733725.475713	733725.479351	8	0.013325	60	10	60-180	60	176	GapExp	0	48	4	3	0	distractor	1	960	13.328	13.292	13.364
ProbeTrack7	33	ProbeTrack	1406	SCS215a	733725.475713	733725.479432	8	0.013325	60	10	60-180	60	99	GapExp	0	49	4	6	0	distractor	1	587	13.328	13.293	13.363
ProbeTrack7	33	ProbeTrack	1406	SCS215a	733725.475713	733725.479498	8	0.013325	60	10	60-180	60	96	GapExp	0	50	4	96	1	target	1	787	13.328	13.289	13.363
ProbeTrack7	33	ProbeTrack	1406	SCS215a	733725.475713	733725.479583	8	0.013325	60	10	60-180	60	131	GapExp	0	51	4	0	0	target	0	733	13.328	13.293	13.363
ProbeTrack7	33	ProbeTrack	1406	SCS215a	733725.475713	733725.479655	8	0.013325	60	10	60-180	60	80	GapExp	0	52	4	3	1	target	1	760	13.328	13.293	13.363
ProbeTrack7	33	ProbeTrack	1406	SCS215a	733725.475713	733725.479717	8	0.013325	60	10	60-180	60	165	GapExp	0	53	4	3	0	distractor	1	707	13.328	13.293	13.363
ProbeTrack7	33	ProbeTrack	1406	SCS215a	733725.475713	733725.479797	8	0.013325	60	10	60-180	60	172	GapExp	0	54	4	96	0	target	0	667	13.328	13.293	13.363
ProbeTrack7	33	ProbeTrack	1406	SCS215a	733725.475713	733725.479887	8	0.013325	60	10	60-180	60	71	GapExp	0	55	4	6	1	distractor	0	707	13.328	13.293	13.363
ProbeTrack7	33	ProbeTrack	1406	SCS215a	733725.475713	733725.479952	8	0.013325	60	10	60-180	60	83	GapExp	0	56	4	6	0	distractor	1	733	13.328	13.291	13.363
ProbeTrack7	33	ProbeTrack	1406	SCS215a	733725.475713	733725.480027	8	0.013325	60	10	60-180	60	151	GapExp	0	57	4	96	0	distractor	1	1066	13.328	13.292	13.363
ProbeTrack7	33	ProbeTrack	1406	SCS215a	733725.475713	733725.480121	8	0.013325	60	10	60-180	60	75	GapExp	0	58	4	96	0	target	0	480	13.328	13.292	13.363
ProbeTrack7	33	ProbeTrack	1406	SCS215a	733725.475713	733725.480199	8	0.013325	60	10	60-180	60	120	GapExp	0	59	4	6	0	distractor	1	813	13.328	13.293	13.363
ProbeTrack7	33	ProbeTrack	1406	SCS215a	733725.475713	733725.480269	8	0.013325	60	10	60-180	60	99	GapExp	0	60	4	3	1	target	1	760	13.328	13.293	13.363
ProbeTrack7	33	ProbeTrack	1406	SCS215a	733725.475713	733725.480341	8	0.013325	60	10	60-180	60	174	GapExp	0	61	4	0	0	distractor	1	707	13.328	13.293	13.363
ProbeTrack7	33	ProbeTrack	1406	SCS215a	733725.475713	733725.480422	8	0.013325	60	10	60-180	60	116	GapExp	0	62	4	96	0	target	0	560	13.328	13.293	13.363
ProbeTrack7	33	ProbeTrack	1406	SCS215a	733725.475713	733725.480505	8	0.013325	60	10	60-180	60	136	GapExp	0	63	4	96	0	target	0	1013	13.328	13.289	13.363
ProbeTrack7	33	ProbeTrack	1406	SCS215a	733725.475713	733725.480635	8	0.013325	60	10	60-180	60	164	GapExp	0	64	4	6	0	target	0	827	13.328	13.291	13.363
ProbeTrack7	33	ProbeTrack	1406	SCS215a	733725.475713	733725.480717	8	0.013325	60	10	60-180	60	171	GapExp	0	65	4	0	1	target	1	640	13.328	13.293	13.363
ProbeTrack7	33	ProbeTrack	1406	SCS215a	733725.475713	733725.480804	8	0.013325	60	10	60-180	60	156	GapExp	0	66	4	6	1	target	1	480	13.328	13.293	13.367
ProbeTrack7	33	ProbeTrack	1406	SCS215a	733725.475713	733725.480877	8	0.013325	60	10	60-180	60	63	GapExp	0	67	4	96	0	target	0	453	13.328	13.293	13.363
ProbeTrack7	33	ProbeTrack	1406	SCS215a	733725.475713	733725.480950	8	0.013325	60	10	60-180	60	77	GapExp	0	68	4	96	1	distractor	0	493	13.328	13.293	13.363
ProbeTrack7	33	ProbeTrack	1406	SCS215a	733725.475713	733725.481024	8	0.013325	60	10	60-180	60	160	GapExp	0	69	4	0	1	target	1	453	13.328	13.292	13.363
ProbeTrack7	33	ProbeTrack	1406	SCS215a	733725.475713	733725.481098	8	0.013325	60	10	60-180	60	133	GapExp	0	70	4	6	1	target	1	507	13.328	13.293	13.363
ProbeTrack7	33	ProbeTrack	1406	SCS215a	733725.475713	733725.481197	8	0.013325	60	10	60-180	60	146	GapExp	0	71	4	0	1	target	1	493	13.328	13.293	13.363
ProbeTrack7	33	ProbeTrack	1406	SCS215a	733725.475713	733725.481266	8	0.013325	60	10	60-180	60	156	GapExp	0	72	4	0	1	target	1	493	13.328	13.293	13.363
ProbeTrack7	33	ProbeTrack	1406	SCS215a	733725.475713	733725.481342	8	0.013325	60	10	60-180	60	176	GapExp	0	73	4	0	0	distractor	1	693	13.328	13.289	13.363
ProbeTrack7	33	ProbeTrack	1406	SCS215a	733725.475713	733725.481422	8	0.013325	60	10	60-180	60	157	GapExp	0	74	4	0	0	distractor	1	667	13.328	13.292	13.365
ProbeTrack7	33	ProbeTrack	1406	SCS215a	733725.475713	733725.481497	8	0.013325	60	10	60-180	60	127	GapExp	0	75	4	96	1	target	1	360	13.328	13.289	13.366
ProbeTrack7	33	ProbeTrack	1406	SCS215a	733725.475713	733725.481579	8	0.013325	60	10	60-180	60	137	GapExp	0	76	4	0	1	distractor	0	733	13.328	13.293	13.366
ProbeTrack7	33	ProbeTrack	1406	SCS215a	733725.475713	733725.481652	8	0.013325	60	10	60-180	60	79	GapExp	0	77	4	3	0	distractor	1	547	13.328	13.293	13.363
ProbeTrack7	33	ProbeTrack	1406	SCS215a	733725.475713	733725.481730	8	0.013325	60	10	60-180	60	145	GapExp	0	78	4	3	1	target	1	467	13.328	13.293	13.363
ProbeTrack7	33	ProbeTrack	1406	SCS215a	733725.475713	733725.481804	8	0.013325	60	10	60-180	60	174	GapExp	0	79	4	96	1	distractor	0	493	13.328	13.292	13.363
ProbeTrack7	33	ProbeTrack	1406	SCS215a	733725.475713	733725.481895	8	0.013325	60	10	60-180	60	151	GapExp	0	80	4	96	0	target	0	400	13.328	13.293	13.363
ProbeTrack7	33	ProbeTrack	1406	SCS215a	733725.475713	733725.481980	8	0.013325	60	10	60-180	60	177	GapExp	0	81	4	0	1	target	1	267	13.328	13.283	13.363
ProbeTrack7	33	ProbeTrack	1406	SCS215a	733725.475713	733725.482053	8	0.013325	60	10	60-180	60	61	GapExp	0	82	4	96	0	target	0	667	13.328	13.293	13.364
ProbeTrack7	33	ProbeTrack	1406	SCS215a	733725.475713	733725.482128	8	0.013325	60	10	60-180	60	108	GapExp	0	83	4	0	0	distractor	1	707	13.328	13.292	13.363
ProbeTrack7	33	ProbeTrack	1406	SCS215a	733725.475713	733725.482196	8	0.013325	60	10	60-180	60	180	GapExp	0	84	4	96	1	target	1	520	13.328	13.293	13.363
ProbeTrack7	33	ProbeTrack	1406	SCS215a	733725.475713	733725.482287	8	0.013325	60	10	60-180	60	73	GapExp	0	85	4	96	0	target	0	454	13.328	13.293	13.363
ProbeTrack7	33	ProbeTrack	1406	SCS215a	733725.475713	733725.482361	8	0.013325	60	10	60-180	60	82	GapExp	0	86	4	3	1	distractor	0	760	13.328	13.290	13.363
ProbeTrack7	33	ProbeTrack	1406	SCS215a	733725.475713	733725.482425	8	0.013325	60	10	60-180	60	127	GapExp	0	87	4	3	0	distractor	1	667	13.328	13.293	13.366
ProbeTrack7	33	ProbeTrack	1406	SCS215a	733725.475713	733725.482495	8	0.013325	60	10	60-180	60	171	GapExp	0	88	4	3	1	target	1	427	13.328	13.293	13.363
ProbeTrack7	33	ProbeTrack	1406	SCS215a	733725.475713	733725.482590	8	0.013325	60	10	60-180	60	69	GapExp	0	89	4	6	0	target	0	360	13.328	13.293	13.363
ProbeTrack7	33	ProbeTrack	1406	SCS215a	733725.475713	733725.482650	8	0.013325	60	10	60-180	60	145	GapExp	0	90	4	96	1	target	1	360	13.328	13.293	13.363
ProbeTrack7	33	ProbeTrack	1406	SCS215a	733725.475713	733725.482739	8	0.013325	60	10	60-180	60	116	GapExp	0	91	4	6	1	target	1	440	13.328	13.293	13.363
ProbeTrack7	33	ProbeTrack	1406	SCS215a	733725.475713	733725.482806	8	0.013325	60	10	60-180	60	169	GapExp	0	92	4	6	1	target	1	587	13.328	13.289	13.365
ProbeTrack7	33	ProbeTrack	1406	SCS215a	733725.475713	733725.482908	8	0.013325	60	10	60-180	60	174	GapExp	0	93	4	96	1	target	1	640	13.328	13.292	13.363
ProbeTrack7	33	ProbeTrack	1406	SCS215a	733725.475713	733725.482999	8	0.013325	60	10	60-180	60	73	GapExp	0	94	4	0	0	target	0	773	13.328	13.293	13.363
ProbeTrack7	33	ProbeTrack	1406	SCS215a	733725.475713	733725.483061	8	0.013325	60	10	60-180	60	170	GapExp	0	95	4	3	1	distractor	0	560	13.328	13.293	13.363
ProbeTrack7	33	ProbeTrack	1406	SCS215a	733725.475713	733725.483138	8	0.013325	60	10	60-180	60	144	GapExp	0	96	4	3	0	distractor	1	493	13.328	13.293	13.363
ProbeTrack7	33	ProbeTrack	1406	SCS215a	733725.475713	733725.483212	8	0.013325	60	10	60-180	60	128	GapExp	0	97	4	96	1	target	1	693	13.328	13.293	13.363
ProbeTrack7	33	ProbeTrack	1406	SCS215a	733725.475713	733725.483298	8	0.013325	60	10	60-180	60	89	GapExp	0	98	4	96	1	distractor	0	573	13.328	13.293	13.364
ProbeTrack7	33	ProbeTrack	1406	SCS215a	733725.475713	733725.483378	8	0.013325	60	10	60-180	60	122	GapExp	0	99	4	0	1	target	1	760	13.328	13.293	13.364
ProbeTrack7	33	ProbeTrack	1406	SCS215a	733725.475713	733725.483449	8	0.013325	60	10	60-180	60	93	GapExp	0	100	4	6	1	target	1	813	13.328	13.293	13.366
ProbeTrack7	33	ProbeTrack	1406	SCS215a	733725.475713	733725.483515	8	0.013325	60	10	60-180	60	147	GapExp	0	101	4	6	0	target	0	640	13.328	13.293	13.363
ProbeTrack7	33	ProbeTrack	1406	SCS215a	733725.475713	733725.483589	8	0.013325	60	10	60-180	60	143	GapExp	0	102	4	6	1	target	1	547	13.328	13.293	13.363
ProbeTrack7	33	ProbeTrack	1406	SCS215a	733725.475713	733725.483661	8	0.013325	60	10	60-180	60	144	GapExp	0	103	4	3	1	distractor	0	773	13.328	13.293	13.363
ProbeTrack7	33	ProbeTrack	1406	SCS215a	733725.475713	733725.483736	8	0.013325	60	10	60-180	60	161	GapExp	0	104	4	0	1	target	1	613	13.328	13.293	13.363
ProbeTrack7	33	ProbeTrack	1406	SCS215a	733725.475713	733725.483812	8	0.013325	60	10	60-180	60	173	GapExp	0	105	4	0	0	distractor	1	813	13.328	13.293	13.363
ProbeTrack7	33	ProbeTrack	1406	SCS215a	733725.475713	733725.483891	8	0.013325	60	10	60-180	60	170	GapExp	0	106	4	3	0	distractor	1	707	13.328	13.293	13.363
ProbeTrack7	33	ProbeTrack	1406	SCS215a	733725.475713	733725.483971	8	0.013325	60	10	60-180	60	77	GapExp	0	107	4	0	1	distractor	0	1226	13.328	13.293	13.363
ProbeTrack7	33	ProbeTrack	1406	SCS215a	733725.475713	733725.484041	8	0.013325	60	10	60-180	60	102	GapExp	0	108	4	6	1	target	1	507	13.328	13.293	13.363
ProbeTrack7	33	ProbeTrack	1406	SCS215a	733725.475713	733725.484108	8	0.013325	60	10	60-180	60	76	GapExp	0	109	4	3	1	target	1	560	13.328	13.293	13.363
ProbeTrack7	33	ProbeTrack	1406	SCS215a	733725.475713	733725.484168	8	0.013325	60	10	60-180	60	111	GapExp	0	110	4	6	1	target	1	493	13.328	13.292	13.363
ProbeTrack7	33	ProbeTrack	1406	SCS215a	733725.475713	733725.484244	8	0.013325	60	10	60-180	60	156	GapExp	0	111	4	96	1	distractor	0	627	13.328	13.292	13.363
ProbeTrack7	33	ProbeTrack	1406	SCS215a	733725.475713	733725.484339	8	0.013325	60	10	60-180	60	138	GapExp	0	112	4	0	1	target	1	587	13.328	13.293	13.363
ProbeTrack7	33	ProbeTrack	1406	SCS215a	733725.475713	733725.484410	8	0.013325	60	10	60-180	60	120	GapExp	0	113	4	96	1	distractor	0	720	13.328	13.293	13.363
ProbeTrack7	33	ProbeTrack	1406	SCS215a	733725.475713	733725.484495	8	0.013325	60	10	60-180	60	164	GapExp	0	114	4	0	0	distractor	1	560	13.328	13.293	13.363
ProbeTrack7	33	ProbeTrack	1406	SCS215a	733725.475713	733725.484571	8	0.013325	60	10	60-180	60	89	GapExp	0	115	4	3	1	distractor	0	680	13.328	13.293	13.363
ProbeTrack7	33	ProbeTrack	1406	SCS215a	733725.475713	733725.484640	8	0.013325	60	10	60-180	60	99	GapExp	0	116	4	0	0	target	0	600	13.328	13.293	13.367
ProbeTrack7	33	ProbeTrack	1406	SCS215a	733725.475713	733725.484704	8	0.013325	60	10	60-180	60	157	GapExp	0	117	4	0	1	target	1	467	13.328	13.291	13.363
ProbeTrack7	33	ProbeTrack	1406	SCS215a	733725.475713	733725.484776	8	0.013325	60	10	60-180	60	71	GapExp	0	118	4	0	1	target	1	493	13.328	13.293	13.363
ProbeTrack7	33	ProbeTrack	1406	SCS215a	733725.475713	733725.484837	8	0.013325	60	10	60-180	60	73	GapExp	0	119	4	6	0	distractor	1	707	13.328	13.293	13.363
ProbeTrack7	33	ProbeTrack	1406	SCS215a	733725.475713	733725.484899	8	0.013325	60	10	60-180	60	104	GapExp	0	120	4	6	0	distractor	1	653	13.328	13.285	13.371
ProbeTrack7	33	ProbeTrack	1406	SCS215a	733725.475713	733725.484969	8	0.013325	60	10	60-180	60	153	GapExp	0	121	4	0	0	distractor	1	653	13.328	13.293	13.363
ProbeTrack7	33	ProbeTrack	1406	SCS215a	733725.475713	733725.485045	8	0.013325	60	10	60-180	60	170	GapExp	0	122	4	3	1	target	1	787	13.328	13.293	13.365
ProbeTrack7	33	ProbeTrack	1406	SCS215a	733725.475713	733725.485124	8	0.013325	60	10	60-180	60	88	GapExp	0	123	4	0	1	distractor	0	720	13.328	13.292	13.363
ProbeTrack7	33	ProbeTrack	1406	SCS215a	733725.475713	733725.485188	8	0.013325	60	10	60-180	60	120	GapExp	0	124	4	6	0	distractor	1	720	13.328	13.293	13.363
ProbeTrack7	33	ProbeTrack	1406	SCS215a	733725.475713	733725.485264	8	0.013325	60	10	60-180	60	98	GapExp	0	125	4	6	0	distractor	1	667	13.328	13.293	13.363
